t,ax,ay,az,gx,gy,gz
101688.793798,0.212933105,0.224283022,-0.0409971963,0.0326505415,0.00626680721,0.00442944281
101688.803826,0.181208289,0.165959866,0.0151730192,-0.0026973288,-0.00211735675,0.0214683469
101688.813853,0.0850892533,0.122252753,0.0895516761,-0.0191221088,0.00112850405,0.0463625118
101688.823881,0.0163810798,0.127128543,0.0944651671,-0.0337519199,0.00313386437,0.0632898286
101688.833909,-0.0543954609,0.184856071,0.0294920519,-0.0447774045,-0.00767963473,0.0636142045
101688.843936,-0.0186217714,0.407764808,-0.143061148,-0.0461776964,-0.0175285377,0.0515303761
101688.853964,-0.0163853541,0.40438956,-0.142623341,-0.0254404582,-0.0178814065,0.0301127024
101688.863991,0.0531127642,0.483224685,-0.207507609,0.00645941822,-0.0176209491,0.00870488118
101688.874019,0.13919702,0.491425673,-0.240157248,0.0264882538,-0.0255254786,-0.0181048941
101688.884046,0.182582463,0.483569333,-0.165316819,0.0352252834,-0.0290099587,-0.0368010849
101688.894074,0.165989311,0.42492133,-0.0320119258,0.0322460048,-0.0219656304,-0.0522530079
101688.904101,0.139104191,0.297053294,0.207964121,0.0156579763,-0.00542606786,-0.0425947905
101688.914129,0.0553627716,0.205938606,0.396401703,-0.00954511482,-0.000520791626,-0.0151144303
101688.924156,-0.00732278064,0.0462501484,0.439428944,-0.0535279401,0.0136817833,0.00639863405
101688.934184,-0.00897401844,0.0403289416,0.439887209,-0.0732403919,0.0249325726,0.0281742364
101688.944212,0.019363822,0.00253843244,0.313422391,-0.0833633319,0.0291161332,0.0480430201
101688.954239,0.0432722651,0.0040179304,0.0589893646,-0.0702680424,0.0260777324,0.0557890832
101688.964267,0.0701673228,0.0771792474,-0.274186943,-0.0311994664,0.00391650433,0.0498718098
101688.974294,0.122442504,0.158802761,-0.496380665,0.0015928346,-0.0209579524,0.036688365
101688.984322,0.160848332,0.208048803,-0.519030888,0.021904232,-0.0541342832,0.01669042
101688.994349,0.139569543,0.271812543,-0.380107571,0.0396440811,-0.0645227432,-0.00116474368
101689.004377,0.0982689798,0.268393016,-0.101558925,0.0454657488,-0.0499957316,-0.00760959275
101689.014404,0.0356527665,0.223541337,0.217449157,0.0360682532,-0.0275572669,-0.008830918
101689.024432,0.0315503362,0.180214894,0.388102076,0.00650663301,-0.0162074063,0.00195994368
101689.034459,0.0568956437,0.0959365548,0.460825952,-0.0255860556,-0.00535981823,0.0176614076
101689.044487,0.0690076314,0.022848157,0.447542692,-0.0461746864,0.00475912867,0.0306653585
101689.054515,0.0629381022,0.0373935458,0.370417951,-0.0520666651,0.0100265956,0.0296432357
101689.064542,0.0770901809,0.0777550015,0.246190099,-0.0528546944,0.00824387465,0.0219011605
101689.074570,0.102119262,0.0961482248,0.124759768,-0.0358725153,0.00397269707,0.0139417723
101689.084597,0.146558306,0.0991249756,0.0029828152,-0.00737243099,0.00442889659,0.00642233621
101689.094625,0.206059054,0.0845197464,-0.0748930362,0.0178245362,-0.000288893236,0.0027615549
101689.104652,0.262931755,0.0515885137,-0.0991682302,0.0276790299,-0.00979824178,0.00362095702
101689.114680,0.261255931,0.01681253,-0.0705874479,0.0276990049,-0.0231848881,0.0122088529
101689.124707,0.215347472,-0.000310234993,-0.0078746789,0.0290092789,-0.0274392888,0.0231661629
101689.134735,0.147245338,-0.0265171278,0.0638385582,0.0239434149,-0.0249518957,0.032564722
101689.144762,0.0991882866,-0.019461291,0.15986849,0.0123999417,-0.0262661651,0.0366199203
101689.154790,0.0926247269,0.0548529954,0.231045136,-0.00572446687,-0.020805886,0.0390806794
101689.164818,0.115742969,0.103756289,0.315056714,-0.0226544477,-0.0103194229,0.0413198695
101689.174845,0.149418627,0.165100181,0.34285073,-0.0322005488,0.00443422282,0.0388790816
101689.184873,0.190425103,0.234220332,0.274541164,-0.0307930671,0.0143326605,0.0310864039
101689.194900,0.190150195,0.306837606,0.153092128,-0.00596228708,0.0219969712,0.0244237073
101689.204928,0.23013478,0.328327626,-0.0126198276,0.0239319634,0.0225114934,0.0120258937
101689.214955,0.267413212,0.353820818,-0.126491706,0.0483403653,0.0206145234,0.00323373359
101689.224983,0.269623581,0.323761268,-0.154149528,0.0549719036,0.0126495427,-0.00445241574
101689.235010,0.217739007,0.278472147,-0.0696440296,0.040883515,0.0079381438,-0.00737949647
101689.245038,0.115325365,0.235247703,0.0799853909,0.0185363982,0.010242844,-0.00829375908
101689.255065,0.0123040396,0.18325996,0.168895262,0.00165169046,0.0135936327,-0.00762983225
101689.265093,-0.0594088686,0.185441104,0.163413616,0.00425439794,0.0218598172,-0.00715951808
101689.275121,-0.0595199643,0.192144328,0.0616553689,0.00680224411,0.023514973,-0.00318874605
101689.285148,0.00607208646,0.151847462,-0.0133218384,0.00670131017,0.0193055794,0.00386223942
101689.295176,0.0847638573,0.116170365,-0.0530740031,0.00497052167,0.0108146248,0.0142099522
101689.305203,0.178094285,0.0795130241,-0.103686584,0.00221974263,-0.0019589616,0.0293598771
101689.315231,0.203199135,0.0534223781,-0.104086397,-0.000532367965,-0.00894469861,0.04516121
101689.325258,0.175018019,0.0684388185,-0.0451934789,3.32874297e-05,-0.0100605637,0.0482589975
101689.335286,0.0938916781,0.154451945,-0.0069400284,-0.00271376316,-0.012268058,0.0427262783
101689.345313,0.0140711589,0.21612938,0.0853723446,-0.00903956965,-0.00436645932,0.0327032059
101689.355341,-0.0454256437,0.269974148,0.13501988,-0.010154102,0.00552904839,0.0205069967
101689.365368,-0.0829169873,0.307952143,0.192368492,-0.00868696719,0.0198800247,0.0153404642
101689.375396,-0.0375636417,0.296428659,0.173184484,-0.00751144765,0.0189950559,0.01187649
101689.385424,0.0182576874,0.278275747,0.0555851091,-0.0165006816,0.0113214245,0.0118432008
101689.395451,0.00874389948,0.234502729,-0.00235737678,-0.0191417374,0.00660389988,0.0137111414
101689.405479,0.0118182654,0.181356757,-0.050280573,-0.0111642387,0.00251461635,0.0192382671
101689.415506,0.0466509477,0.123387383,-0.112257429,-0.00884436071,-0.0113663115,0.0234327447
101689.425534,0.0630423298,0.122646794,-0.127900404,-0.0116896816,-0.0248704031,0.0277558547
101689.435561,0.0704750736,0.11550401,-0.0500882652,-0.00926434062,-0.0307392105,0.0271395985
101689.445589,0.0703751203,0.1847171,0.00851589941,0.00248952094,-0.0266765598,0.020320043
101689.455616,0.059214917,0.24983883,0.0813069949,0.0182293355,-0.017908901,0.0127444146
101689.465644,0.0982545129,0.29251207,0.150949855,0.0233013257,-0.00686050998,0.0114264162
101689.475671,0.122887873,0.271004733,0.193614108,0.0162937511,-0.000515528256,0.0124762338
101689.485699,0.109240711,0.247137609,0.173507724,0.00014300966,-0.00162872963,0.0120330844
101689.495727,0.0797534087,0.23024931,0.0971755951,-0.0191878099,-0.0111671071,0.0120972665
101689.505754,0.0206284351,0.20033706,0.0639461102,-0.0318767093,-0.0062932563,0.0130584016
101689.515782,0.00285202843,0.182459969,0.0973369232,-0.0352493338,0.00120008003,0.011196319
101689.525809,-0.0136313793,0.219404675,0.0211257901,-0.0191052537,0.00295270653,0.000829165801
101689.535837,0.0120581021,0.269354774,-0.142219436,0.0106824692,-0.00278161233,-0.0042244494
101689.545864,0.0964195161,0.244317875,-0.228823369,0.0306220893,-0.0163576081,-0.00563379377
101689.555892,0.148829868,0.222835673,-0.220904851,0.0426563807,-0.0307509303,-0.00382124633
101689.565919,0.156044731,0.213055014,-0.131779876,0.0490101501,-0.033089716,-0.00225717202
101689.575947,0.167341384,0.190542592,0.00912847835,0.037054956,-0.0311245695,0.00941120181
101689.585974,0.120480008,0.177652569,0.141531454,0.00975489058,-0.0300710239,0.0152797438
101689.596002,0.051427551,0.212006089,0.266968683,-0.0125530772,-0.0228780918,0.0176286511
101689.606030,0.00151025843,0.230574085,0.293262231,-0.0211428367,-0.00529616885,0.0181040261
101689.616058,-0.0443333185,0.265889728,0.255510885,-0.0264409296,0.00185415242,0.010455694
101689.626086,-0.0739025273,0.329483737,0.157187288,-0.0270577185,-0.00555769121,-0.00894862972
101689.636113,-0.0817549578,0.373203783,0.0145090023,-0.00817084685,-0.00531747425,-0.0284666698
101689.646141,0.00169200821,0.383745635,-0.108269821,0.0341654271,-0.00584691064,-0.0384929404
101689.656168,0.119068132,0.343175286,-0.27573125,0.0493952446,-0.0229390785,-0.0440895706
101689.666196,0.20187585,0.276732317,-0.280404503,0.032387767,-0.0434382297,-0.0404780582
101689.676223,0.230885343,0.168789317,-0.117001409,0.0271253586,-0.046641212,-0.0246231984
101689.686251,0.189951713,0.123315122,0.0136187755,0.0271589141,-0.0341528505,-0.0118994135
101689.696278,0.117424274,0.141344261,0.121651865,0.0155683048,-0.0308278948,-0.00116367824
101689.706306,0.0625135567,0.149440693,0.195756965,-0.00786138698,-0.0384815522,0.000436615199
101689.716333,-0.000577836421,0.197732649,0.170077165,-0.0125299077,-0.0416951887,0.00389792584
101689.726361,0.039475832,0.20936595,0.103511228,-0.00346530718,-0.0401502885,0.00438555051
101689.736389,0.0677580697,0.225888338,0.0287742591,0.0045958152,-0.0469512045,-0.00281190872
101689.746416,0.0914498379,0.271418136,-0.0244312614,0.00580275944,-0.055039756,-0.0188878141
101689.756444,0.118210894,0.293180982,0.00611877514,0.0156226326,-0.0487626866,-0.0375102311
101689.766471,0.138631678,0.290738265,0.0902004954,0.0322125293,-0.036320664,-0.0576850101
101689.776499,0.168805392,0.302788988,0.158236505,0.0453171469,-0.027099736,-0.0748296455
101689.786526,0.20252087,0.278488659,0.209063022,0.0525811836,-0.0154843582,-0.070966199
101689.796554,0.326479112,0.188209034,0.248894097,0.050767839,-0.000876386533,-0.0464794934
101689.806581,0.432452054,0.0796624425,0.192744924,0.020994762,-0.00938252266,-0.0154864248
101689.816609,0.401832861,0.0163326376,0.160690328,-0.0256126877,-0.0246195327,0.00909428578
101689.826636,0.304844203,0.0166352007,0.227722714,-0.0451842584,-0.0135700768,0.0255904384
101689.836664,0.164249299,0.0635666824,0.258786545,-0.0353920795,0.0109826699,0.0275289528
101689.846691,0.0428014327,0.114043436,0.231280114,-0.0255394503,0.028883107,0.0124826254
101689.856719,0.0341101402,0.183325281,0.153255794,-0.0195566583,0.0254883748,-0.0159695223
101689.866747,0.0896101648,0.238095712,0.0196329212,0.00205436046,0.0124455448,-0.0410234779
101689.876774,0.202407071,0.231850973,-0.127823247,0.0336013697,0.00439534057,-0.0461921394
101689.886802,0.361271901,0.228715305,-0.163798231,0.0463118367,-0.0109718973,-0.0391249061
101689.896829,0.436542282,0.187444187,-0.0769657508,0.0285602696,-0.0246070158,-0.0223832112
101689.906857,0.407656854,0.14534071,0.125601479,0.00744965859,-0.0262390021,-0.000545824878
101689.916884,0.36725693,0.0945331178,0.327425197,-0.0138953105,-0.0104387328,0.0202808939
101689.926912,0.282831657,0.0769427352,0.508237691,-0.0270047374,0.01374825,0.0353627205
101689.936939,0.213317135,0.136394676,0.493520015,-0.050239753,0.0230035335,0.0328734666
101689.946967,0.135535831,0.211151591,0.480651765,-0.0723256096,0.0369449146,0.0134297274
101689.956994,0.0692918917,0.288264057,0.462920294,-0.060620755,0.07208772,-0.011906255
101689.967022,0.0745780885,0.344674584,0.369106284,-0.0354344398,0.0995196104,-0.0356616527
101689.977050,0.144470321,0.342823111,0.143197926,-0.0184842199,0.101160124,-0.0466384031
101689.987077,0.230365228,0.248477625,-0.122741998,-0.00838897564,0.0771591812,-0.038737338
101689.997105,0.268644763,0.15110395,-0.368235931,-0.00493352348,0.0383902118,-0.0271054469
101690.007132,0.213522924,0.0649251844,-0.449223192,-0.0128468405,0.00583733059,-0.00754239969
101690.017160,0.0797043454,-0.00878967485,-0.327719212,-0.0183848832,-0.00658125617,0.00791005976
101690.027187,-0.0680678298,-0.0310995602,-0.0689385117,-0.023772724,-0.00121099153,0.0157442801
101690.037215,-0.186872561,-0.00933057679,0.143660867,-0.0416031219,0.00878864527,0.0124552771
101690.047242,-0.193373614,-0.00336216991,0.21359482,-0.0523383245,0.0193792377,0.00426845346
101690.057270,-0.124525411,0.0144984079,0.181094234,-0.0416342802,0.0366234742,0.000569855794
101690.067297,0.0210096529,-0.0217973327,0.0861450825,-0.0289712157,0.051115863,0.0108901374
101690.077325,0.139703289,-0.108005251,0.0168663791,-0.0345366895,0.0463125855,0.0288387779
101690.087353,0.25592268,-0.157141915,-0.0626256753,-0.0397245251,0.0350314341,0.0509486087
101690.097380,0.266961486,-0.149346293,-0.105158995,-0.0293211546,0.0381654426,0.0706871599
101690.107408,0.128767907,-0.144337305,-0.0912701705,-0.0178056452,0.0412403271,0.0835694075
101690.117435,-0.0472988537,-0.106591147,-0.0823421831,-0.0204152782,0.0365787297,0.0867460221
101690.127463,-0.246843886,-0.0997286406,-0.106129886,-0.0235964227,0.0291200168,0.0878307223
101690.137490,-0.334650034,-0.0893763195,-0.160837628,-0.0247535668,0.0194729809,0.0860027373
101690.147518,-0.395448421,-0.0411764984,-0.240323252,-0.020428326,0.00645997748,0.0770672858
101690.157545,-0.407247726,0.0191528096,-0.293143573,-0.0157499518,-0.008979965,0.0594781786
101690.167573,-0.431247427,0.118924193,-0.32663317,-0.00288022636,-0.0274870712,0.0363864414
101690.177600,-0.414900578,0.192744851,-0.346392348,0.0179353077,-0.0475899428,0.00096480269
101690.187628,-0.399592717,0.302822379,-0.363000953,0.0536698699,-0.0639936849,-0.0406465568
101690.197656,-0.357585394,0.387155516,-0.342474882,0.0974381194,-0.0741413906,-0.0728452355
101690.207683,-0.246728955,0.333143283,-0.230353647,0.123858809,-0.079694882,-0.0868859589
101690.217711,-0.117042179,0.252837355,-0.0315144977,0.115559332,-0.0837223828,-0.0825311542
101690.227738,-0.0109164212,0.173330979,0.19396073,0.0863553807,-0.0819689557,-0.0645620078
101690.237766,0.051972435,0.121594947,0.332785263,0.0464503057,-0.0787691697,-0.0458525047
101690.247793,-0.00995915702,0.148990611,0.369954425,0.0240430012,-0.0674230382,-0.0409299172
101690.257821,-0.0855215803,0.206430262,0.322474881,0.0197092388,-0.0544212162,-0.0412361808
101690.267848,-0.104706794,0.289215805,0.12561843,0.0242067855,-0.0580487065,-0.0472016633
101690.277876,-0.00973060896,0.364670932,-0.0387614001,0.031125145,-0.0730180666,-0.0495036989
101690.287903,0.19444844,0.380342768,-0.180405082,0.0419956371,-0.091302,-0.031050656
101690.297931,0.410265393,0.373076941,-0.188303727,0.045531515,-0.0983037204,0.00594065245
101690.307958,0.556855592,0.381390085,-0.0692301881,0.0267839264,-0.10084331,0.0485781282
101690.317986,0.60212009,0.344327817,0.097559626,-0.0161531549,-0.102935754,0.0838889778
101690.328014,0.52042585,0.376090809,0.296995572,-0.05112046,-0.0906916037,0.110876918
101690.338041,0.375618004,0.44381578,0.427591791,-0.0666536093,-0.0626567751,0.119107693
101690.348069,0.223674608,0.520275774,0.459872597,-0.0783390328,-0.0373857729,0.116023213
101690.358096,0.141747983,0.572343815,0.43485506,-0.0942857713,-0.0234390646,0.111299038
101690.368124,0.171062523,0.602947408,0.34980654,-0.113503143,-0.021969799,0.103201687
101690.378151,0.186643867,0.580801554,0.238407774,-0.124918513,-0.0190586988,0.0950540155
101690.388179,0.172523389,0.58226074,0.133125445,-0.116443537,-0.0137329083,0.0768715441
101690.398206,0.120206488,0.559048864,0.011668226,-0.0992853269,-0.00867689773,0.0526639484
101690.408234,0.0497711256,0.490601132,-0.0976841292,-0.0798578337,-0.0163531937,0.0294465106
101690.418261,-0.00678074618,0.408919751,-0.215229143,-0.0579876862,-0.030893255,-0.00744812377
101690.428289,-0.0810141129,0.350690995,-0.280922974,-0.0186922122,-0.0355897397,-0.0416694768
101690.438317,-0.079185911,0.223387461,-0.195025728,0.00952744018,-0.0317169689,-0.0606937669
101690.448344,0.0311595102,0.0684845574,-0.0525286441,0.0078866668,-0.0361069255,-0.0608013608
101690.458372,0.115789512,-0.0828379307,0.0826239227,-0.0157917626,-0.04247614,-0.0536755361
101690.468399,0.127233793,-0.170912593,0.16049802,-0.0347332284,-0.0377176031,-0.0442743152
101690.478427,0.0932770898,-0.200731977,0.23864509,-0.0504927523,-0.0291582048,-0.0337550938
101690.488454,0.0464187464,-0.19291239,0.223452782,-0.0535125099,-0.0219165366,-0.0318269655
101690.498482,0.0635278117,-0.127178885,0.149244221,-0.0456295535,-0.00941938628,-0.0220776666
101690.508509,0.176242702,-0.150973894,0.0790887343,-0.0347446799,0.000528851466,0.00893990416
101690.518537,0.366513199,-0.233777776,0.000540098226,-0.0449557751,-0.0042794859,0.0459328108
101690.528564,0.553756238,-0.225651753,-0.0808294405,-0.0640591606,-0.0225434452,0.0784611851
101690.538592,0.56805989,-0.202367981,-0.0779676213,-0.0669905022,-0.0237847436,0.11048384
101690.548619,0.488999249,-0.169759916,0.000981996775,-0.0587448217,-0.00851737428,0.136862442
101690.558647,0.349036542,-0.154530783,0.125983756,-0.0676869154,-0.00216440321,0.145559266
101690.568675,0.165849903,-0.0592035188,0.236714999,-0.0849940032,0.00233846949,0.13807632
101690.578702,0.0247641466,0.0274004865,0.31844168,-0.0893639848,0.0263218321,0.128000513
101690.588730,-0.027054413,0.0464151297,0.428382649,-0.101159126,0.058123704,0.121440083
101690.598757,-0.0330342546,0.0779522776,0.411264925,-0.110967018,0.0796726719,0.104743123
101690.608784,-0.00836589648,0.127639853,0.199230779,-0.0921469852,0.0829422325,0.0870384276
101690.618811,0.0747174604,0.163106449,-0.130820091,-0.0418007262,0.0732872114,0.0818191767
101690.628839,0.215700377,0.131153049,-0.425275915,0.0117913941,0.0386120565,0.100219488
101690.638866,0.339338667,0.0690952366,-0.52021396,0.0282012615,-0.0133291734,0.128845006
101690.648894,0.268773942,0.0802883924,-0.30056174,0.0109080235,-0.0522544682,0.150648296
101690.658921,0.0431841484,0.155512999,0.145749949,-0.0171505082,-0.0503857285,0.159689471
101690.668949,-0.262331597,0.295365048,0.604611323,-0.0510727875,-0.017901022,0.147345185
101690.678976,-0.475226927,0.42351117,0.846605138,-0.0854757726,0.01643751,0.107176989
101690.689004,-0.50076078,0.589298237,0.765799079,-0.107117951,0.0364495665,0.0527113527
101690.699032,-0.362047013,0.725706649,0.473079869,-0.101443015,0.0496191643,0.00435047876
101690.709059,-0.0935941564,0.757126966,0.142944244,-0.0732316226,0.0492495187,-0.0390598439
101690.719087,0.215081405,0.774328788,-0.225263046,-0.0286961105,0.0278909672,-0.0613220073
101690.729114,0.438121514,0.684150577,-0.513891187,0.0120364046,-0.012973641,-0.0769885927
101690.739142,0.518039831,0.657274991,-0.61050155,0.0526693203,-0.0498855859,-0.0902050585
101690.749169,0.433508468,0.574910962,-0.505842321,0.0808604807,-0.0637364239,-0.100901112
101690.759197,0.276980191,0.475045762,-0.117701666,0.0723170564,-0.0520118549,-0.11277695
101690.769224,0.102336558,0.360998746,0.332024215,0.0345486403,-0.0207085256,-0.120791733
101690.779252,0.0257059941,0.252563944,0.632275575,-0.0137927961,0.0195470173,-0.118140027
101690.789279,0.0769578963,0.124304863,0.712747288,-0.0592747927,0.0477355123,-0.0961897075
101690.799307,0.237980964,0.0254123814,0.498944962,-0.0864891037,0.0460630469,-0.0731837302
101690.809334,0.388865827,0.0324080855,0.0652647916,-0.0769392699,0.0335413963,-0.0502075702
101690.819362,0.465356325,0.0755938048,-0.262379017,-0.00732211256,0.0225238986,-0.0274348818
101690.829389,0.538401176,0.0624061142,-0.453274514,0.017659137,0.0121223908,-0.0219306592
101690.839417,0.425052335,0.0463700484,-0.278239434,0.0266510341,-0.00152258156,-0.0191820115
101690.849445,0.3006062,0.017142931,-0.0307651406,0.0178676639,0.0131178806,-0.0188182238
101690.859472,0.133807801,-0.018221447,0.30950551,-0.00667496445,0.0456582457,-0.0176933035
101690.869500,-0.019493805,-0.0562842703,0.540301055,-0.0426249765,0.0778561309,-0.00846252218
101690.879527,-0.0728569638,-0.0979638229,0.568648029,-0.0844917297,0.0938034058,-0.00135774072
101690.889555,-0.103022166,-0.0872042362,0.328994054,-0.0970525295,0.0936795697,0.00359440735
101690.899582,-0.039473092,-0.0576853693,-0.0110831196,-0.075145103,0.0772728994,0.0115556614
101690.909610,0.102595099,-0.0257364257,-0.324925197,-0.0448772125,0.0515989587,0.02556815
101690.919637,0.215766757,-0.0275075271,-0.473172223,-0.0218962617,0.0210477095,0.0375473127
101690.929665,0.258314909,-0.0187938401,-0.435096467,-0.00918666553,-0.00817166734,0.0519562736
101690.939692,0.215891662,0.00129025901,-0.279917596,-0.0203727409,-0.0196243264,0.0630704463
101690.949720,0.108983668,0.0112957394,0.0535848752,-0.0374963321,-0.015182971,0.0654699504
101690.959747,-0.060414502,0.103200628,0.286916077,-0.0608882084,-0.00146955636,0.055613324
101690.969775,-0.19433497,0.178930991,0.393292631,-0.0879493877,0.0145853106,0.0308864079
101690.979802,-0.297291852,0.212935698,0.427641475,-0.111041918,0.0282153673,0.00400898699
101690.989830,-0.333560229,0.212301273,0.307727979,-0.112141006,0.0317893326,-0.0229938682
101690.999858,-0.342772331,0.175517018,0.10605799,-0.0904293209,0.0220434926,-0.0532857254
101691.009885,-0.31135501,0.137383139,-0.184036717,-0.0524787419,0.00799425319,-0.078687489
101691.019913,-0.143393376,0.0641063788,-0.318544556,-0.0110106645,0.00127909216,-0.0896653086
101691.029940,-0.00314078224,-0.0699946697,-0.308701792,0.020662576,-0.00516895344,-0.0865986794
101691.039968,0.138127601,-0.152509104,-0.274568052,0.0352228805,-0.014273501,-0.0660739616
101691.049995,0.198290576,-0.27011184,-0.180696759,0.0285705682,-0.0264422838,-0.0370934382
101691.060023,0.115998954,-0.321122298,-0.0473603016,0.0112040937,-0.0320277289,-0.0123271085
101691.070050,-0.0438786335,-0.296399214,0.133218968,-0.0047495719,-0.0258627813,0.000527170487
101691.080078,-0.233178751,-0.212943151,0.277324072,-0.0171617679,-0.0161843207,0.00724259764
101691.090105,-0.326645664,-0.138377082,0.355612596,-0.0322200768,-0.00220405636,0.0141127538
101691.100133,-0.298764408,-0.0766031645,0.319668007,-0.0547240525,-0.00699162064,0.0295372494
101691.110160,-0.207709963,-0.0246871724,0.19114275,-0.0835301355,-0.021504784,0.0526612103
101691.120188,-0.10746592,0.0272012376,0.0172130006,-0.10750711,-0.0438439101,0.0711744428
101691.130215,-0.0625094285,0.123163548,-0.150728906,-0.109144151,-0.0620804355,0.080771409
101691.140243,-0.0398910617,0.235924652,-0.288747968,-0.0877485797,-0.0747839808,0.0828574598
101691.150270,-0.0346148018,0.313890228,-0.398096816,-0.0726210326,-0.0960008577,0.0727654099
101691.160298,-0.0745178462,0.411200299,-0.464906499,-0.065571107,-0.126689523,0.0567853823
101691.170326,-0.11185283,0.479666115,-0.470602665,-0.0592093505,-0.151248395,0.0383461863
101691.180353,-0.148017455,0.498346887,-0.445883819,-0.0586642027,-0.171879634,0.0265305415
101691.190381,-0.188443537,0.552183326,-0.472997451,-0.063968949,-0.204859689,0.0130650662
101691.200408,-0.263379901,0.602196991,-0.550333204,-0.0494960025,-0.236329466,0.00675044488
101691.210436,-0.256070309,0.616052389,-0.624006343,-0.0602141619,-0.29063186,-0.00945675373
101691.220463,-0.274799796,0.661617258,-0.782691761,-0.0699597299,-0.340231389,-0.0221232809
101691.230491,-0.31900052,0.702178401,-0.700944622,-0.04873221,-0.359719068,-0.0406333134
101691.240518,-0.375459562,0.761505619,-0.580779781,-0.0404857285,-0.371103019,-0.0640331805
101691.250546,-0.421611255,0.776880299,-0.495975591,-0.0674598217,-0.408710569,-0.0970401317
101691.260573,-0.458495317,0.830503314,-0.467075075,-0.101152807,-0.444047272,-0.124898404
101691.270601,-0.451074775,0.811509713,-0.452605821,-0.107175015,-0.460867524,-0.141789228
101691.280628,-0.432631283,0.789216925,-0.527220624,-0.106739052,-0.47286427,-0.147527277
101691.290656,-0.446102905,0.736502842,-0.635835897,-0.122169405,-0.51445806,-0.150260746
101691.300683,-0.437510689,0.711587742,-0.929596725,-0.149307296,-0.57999444,-0.148450062
101691.310711,-0.533058902,0.657504854,-0.989587376,-0.172763079,-0.639398634,-0.146261737
101691.320738,-0.59712294,0.635102907,-0.938948491,-0.187510073,-0.684639633,-0.131974414
101691.330766,-0.604483312,0.601060425,-0.885192935,-0.228814632,-0.724847794,-0.117536888
101691.340794,-0.645980713,0.593379917,-0.746498166,-0.275445253,-0.773788393,-0.107488245
101691.350821,-0.661856035,0.620705475,-0.868239463,-0.316676021,-0.827538431,-0.101335816
101691.360849,-0.619543153,0.640205783,-1.1098586,-0.346635252,-0.894896448,-0.106586233
101691.370876,-0.638049189,0.722801429,-1.30682494,-0.347312778,-0.953048706,-0.124430209
101691.380904,-0.640010845,0.775242614,-1.4872423,-0.317642748,-1.02540338,-0.153494358
101691.390931,-0.608653511,0.875962896,-1.69986097,-0.279224008,-1.08866537,-0.191211104
101691.400959,-0.578927504,0.914509777,-1.54569449,-0.241713926,-1.14876413,-0.223053992
101691.410986,-0.537021011,0.875663914,-1.33212071,-0.209940806,-1.17732573,-0.256162137
101691.421014,-0.502784614,0.80766619,-0.920723683,-0.192349032,-1.19975626,-0.280640036
101691.431041,-0.461236725,0.698770639,-0.675354253,-0.2024014,-1.20122421,-0.300274193
101691.441069,-0.387899832,0.568154765,-0.370658774,-0.224924028,-1.20425832,-0.315356225
101691.451096,-0.298044643,0.46543783,-0.252617501,-0.24668099,-1.19247568,-0.33008936
101691.461124,-0.216994838,0.390889771,-0.105451256,-0.237032622,-1.16725099,-0.337786138
101691.471151,-0.119458885,0.262156204,-0.112376087,-0.221879229,-1.14829278,-0.341794223
101691.481179,0.00443067592,0.145373434,-0.212559632,-0.198256195,-1.15476501,-0.341932952
101691.491206,0.113872901,0.028428286,-0.357978156,-0.172389179,-1.15692484,-0.335634053
101691.501234,0.193875097,-0.0574157586,-0.321570041,-0.141099691,-1.15229023,-0.321318775
101691.511261,0.287457782,-0.153416282,-0.198618785,-0.149189845,-1.14710236,-0.295511931
101691.521289,0.328230668,-0.230901965,0.00973638112,-0.163592756,-1.14557266,-0.269806296
101691.531317,0.325788244,-0.251398992,0.122464935,-0.167084426,-1.11508262,-0.24039942
101691.541344,0.320259836,-0.307129319,0.273770764,-0.181108892,-1.09006751,-0.208922192
101691.551372,0.274895384,-0.366373754,0.295025733,-0.206821978,-1.07611978,-0.191240668
101691.561399,0.198339383,-0.383520704,0.252770646,-0.200318545,-1.05467892,-0.170285314
101691.571427,0.251137784,-0.438431895,0.108646837,-0.187045887,-1.0313158,-0.150095627
101691.581454,0.302294555,-0.523159585,-0.197877611,-0.14221476,-1.03545356,-0.123966292
101691.591482,0.345846405,-0.633607992,-0.478309002,-0.112816654,-1.04947591,-0.101873241
101691.601509,0.363204659,-0.798119632,-0.590552402,-0.0827064216,-1.06120074,-0.0653730184
101691.611538,0.399313206,-0.944052463,-0.640510903,-0.0571368784,-1.06857264,-0.0214686766
101691.621565,0.425374992,-1.05675778,-0.670801997,-0.0358893797,-1.08801663,0.0325948261
101691.631593,0.425946069,-1.12700197,-0.805038618,-0.031909287,-1.10519588,0.0944294259
101691.641620,0.361912573,-1.22880837,-0.880754661,-0.0412612408,-1.13986707,0.171752185
101691.651648,0.301056538,-1.30859955,-1.11781102,-0.0703911632,-1.17897189,0.247225359
101691.661675,0.257125626,-1.28320207,-1.27592185,-0.0808736309,-1.22749436,0.321608543
101691.671703,0.173740656,-1.25659551,-1.49582308,-0.0953612328,-1.27245414,0.392280042
101691.681730,0.0555441926,-1.21668224,-1.63300803,-0.11101982,-1.33303678,0.440176994
101691.691758,-0.0703390261,-1.12699707,-1.75601306,-0.10420692,-1.40071726,0.470767915
101691.701785,-0.173086576,-0.988969755,-1.91739371,-0.0714252666,-1.47383034,0.474055052
101691.711813,-0.285311272,-0.834528478,-2.04492587,-0.00668355962,-1.54520738,0.457457185
101691.721840,-0.358196183,-0.721986241,-2.07853529,0.0758997351,-1.604092,0.428876132
101691.731868,-0.390320337,-0.659205375,-1.9650036,0.151174501,-1.64817023,0.393768221
101691.741895,-0.347449456,-0.656015639,-1.81298816,0.23481001,-1.67872417,0.364740282
101691.751923,-0.161005385,-0.675736238,-1.73358028,0.296465665,-1.7073127,0.345311999
101691.761950,0.112020113,-0.697402784,-1.62099318,0.363199949,-1.76064801,0.344794005
101691.771978,0.456055669,-0.762431867,-1.53397482,0.385135353,-1.80232096,0.350113422
101691.782006,0.745690941,-0.780843503,-1.1155875,0.399185121,-1.82672131,0.370378196
101691.792033,1.01181791,-0.715118839,-0.755485775,0.413574457,-1.84802103,0.379855067
101691.802061,1.17000298,-0.540325751,-0.32842473,0.404653132,-1.83435845,0.379725099
101691.812088,1.20373106,-0.395588414,0.222964706,0.42723009,-1.82229912,0.365949363
101691.822116,1.21993459,-0.214895125,0.467215945,0.408972234,-1.77839291,0.326613933
101691.832143,1.09135264,0.0350001844,0.906584683,0.391926408,-1.71609259,0.282767385
101691.842171,1.06314303,0.207728777,1.12994745,0.472269982,-1.62840128,0.252283245
101691.852198,1.19115449,0.217164623,1.05617962,0.504518449,-1.53007185,0.221516281
101691.862226,1.26561966,0.401589481,1.19095224,0.533847034,-1.44779074,0.20691815
101691.872253,1.41137428,0.399472817,1.1610937,0.514563084,-1.39288116,0.187352449
101691.882281,1.50073365,0.501424614,1.17453302,0.52517581,-1.33675647,0.172218502
101691.892308,1.59621705,0.489975985,1.21297761,0.532552183,-1.26015699,0.158073649
101691.902336,1.61801329,0.49171819,1.39945705,0.565257668,-1.17944694,0.159087256
101691.912363,1.6145915,0.438739244,1.47519355,0.530493081,-1.09942484,0.16619283
101691.922391,1.54421156,0.393037487,1.64095402,0.437762886,-1.04560101,0.189595357
101691.932418,1.38701433,0.333897462,1.5910376,0.307442784,-1.01497126,0.205154195
101691.942446,1.08510001,0.343383522,1.4414678,0.210985214,-0.967270374,0.225305274
101691.952473,0.815399853,0.37580454,1.25779583,0.161429107,-0.907790542,0.246943459
101691.962501,0.583002133,0.441216338,0.936076735,0.133347675,-0.855697513,0.254298329
101691.972528,0.424313792,0.54769902,0.598159954,0.128808573,-0.827195525,0.243671224
101691.982556,0.35819969,0.669694401,0.244197463,0.149974853,-0.807962477,0.212042466
101691.992583,0.362422276,0.705508861,-0.0567132363,0.181765795,-0.800506949,0.176320955
101692.002611,0.409406146,0.669983155,-0.321734877,0.210510358,-0.821652412,0.137796462
101692.012638,0.436352605,0.592686309,-0.527103135,0.22496067,-0.860719681,0.0962492824
101692.022666,0.423196186,0.494846478,-0.516885693,0.224081039,-0.89009434,0.0632287562
101692.032693,0.452963548,0.40200208,-0.38705286,0.221268997,-0.890335083,0.0313121006
101692.042721,0.422146969,0.40083837,-0.160424955,0.217783719,-0.859259188,0.00596626569
101692.052749,0.394713604,0.328344723,0.00611292992,0.203590944,-0.826697528,-0.0103133712
101692.062776,0.399664504,0.261393787,0.0251291806,0.185421795,-0.785678208,-0.016658619
101692.072804,0.432587115,0.173692031,-0.0648778381,0.159639731,-0.769588709,-0.012237506
101692.082831,0.486998504,0.0974702763,-0.248722832,0.137933895,-0.769869924,-0.00956529006
101692.092859,0.523635167,0.0686050693,-0.465897848,0.13714081,-0.767521024,-0.00906994194
101692.102886,0.528719338,0.123256286,-0.646582917,0.163364962,-0.761316955,-0.0158309098
101692.112914,0.49573886,0.174367044,-0.758210231,0.185026839,-0.759563744,-0.0228014663
101692.122941,0.492662521,0.183518392,-0.870842923,0.202601045,-0.770795643,-0.0341116451
101692.132969,0.428750898,0.223875537,-0.854533009,0.1929335,-0.778268456,-0.0420872793
101692.142996,0.311389424,0.197583341,-0.70812898,0.172929704,-0.803532302,-0.0568438582
101692.153024,0.163104404,0.258337925,-0.648690703,0.16018568,-0.803812206,-0.0744289756
101692.163051,0.017276129,0.298475381,-0.500568764,0.155949384,-0.81798929,-0.110419199
101692.173079,-0.227650818,0.401631055,-0.470399251,0.161625117,-0.814550042,-0.165892586
101692.183106,-0.456515103,0.465438706,-0.408666726,0.180046469,-0.811738551,-0.240773484
101692.193134,-0.704789607,0.55587966,-0.375991367,0.205875397,-0.796566546,-0.321286947
101692.203161,-0.867939018,0.549355044,-0.308413038,0.25581792,-0.763422132,-0.399141282
101692.213189,-0.954327262,0.512690981,-0.224683785,0.321446747,-0.728632987,-0.462000132
101692.223216,-0.867870045,0.444459193,-0.242956523,0.363841861,-0.711395442,-0.505166531
101692.233244,-0.709665104,0.322753954,-0.230742939,0.397076517,-0.699200034,-0.521149218
101692.243271,-0.492401824,0.179625878,-0.22530104,0.423272163,-0.686901569,-0.519254148
101692.253299,-0.36077334,0.0538821046,-0.195459736,0.421532869,-0.662108839,-0.501324117
101692.263326,-0.376971611,-0.11568923,-0.00707914461,0.425553441,-0.616730988,-0.470942229
101692.273354,-0.389317882,-0.32286958,0.225398363,0.424406677,-0.553966641,-0.419118971
101692.283381,-0.29983401,-0.550958204,0.446171988,0.409190446,-0.495784819,-0.353794307
101692.293409,-0.224461082,-0.740563808,0.514479216,0.398642987,-0.450541973,-0.282906801
101692.303436,-0.114324298,-0.806192245,0.415305725,0.426104426,-0.406579047,-0.210340738
101692.313464,0.0287163914,-0.787466794,0.289452902,0.473771036,-0.358975053,-0.15357919
101692.323491,0.00217325239,-0.762653109,0.22685353,0.510610819,-0.301280588,-0.100131676
101692.333519,-0.0574041412,-0.743906104,0.230190858,0.517362952,-0.246701777,-0.051634714
101692.343546,-0.18373978,-0.720062287,0.176692784,0.49279052,-0.19485563,0.0104523599
101692.353574,-0.302638546,-0.768180713,0.0587929652,0.445866972,-0.143442765,0.0854597539
101692.363601,-0.326477687,-0.779232853,-0.0593614128,0.394593924,-0.10283915,0.173861519
101692.373629,-0.280547126,-0.78822448,-0.319550518,0.341197789,-0.0945748314,0.253677279
101692.383656,-0.233355167,-0.715237643,-0.652885816,0.28152436,-0.123504214,0.30727765
101692.393684,-0.334397959,-0.524259363,-1.02544487,0.233276397,-0.178099811,0.310036689
101692.403711,-0.643511254,-0.1809945,-1.38732442,0.234749123,-0.236681372,0.259169519
101692.413739,-1.04952951,0.164057393,-1.71469906,0.295718729,-0.280869335,0.161117762
101692.423766,-1.39420336,0.409757297,-2.01055539,0.40027231,-0.321259618,0.0287733097
101692.433794,-1.58527889,0.498062188,-2.25442377,0.504802704,-0.364196956,-0.100150317
101692.443822,-1.50554251,0.310965061,-2.32171042,0.557756484,-0.426660627,-0.192334577
101692.453849,-1.18667588,-0.0503507156,-2.28947638,0.562122166,-0.498540401,-0.227257133
101692.463877,-0.840082459,-0.454454736,-2.18974701,0.557112515,-0.559018135,-0.202373102
101692.473904,-0.391529713,-0.783463476,-2.12339033,0.550448239,-0.616425276,-0.130523667
101692.483932,-0.0202823251,-1.07008152,-2.02104581,0.476737261,-0.7038486,-0.0265485346
101692.493959,0.289037891,-1.2248445,-1.81403241,0.355740249,-0.806931555,0.053837385
101692.503987,0.467702267,-0.890205211,-1.49308986,0.347521752,-0.844458163,0.0945115834
101692.514014,0.259955005,-0.721353276,-1.20348732,0.427929491,-0.835866809,0.0954146534
101692.524042,0.153926241,-0.551384248,-0.848180133,0.530504346,-0.812758803,0.0418891124
101692.534069,0.00615267741,-0.430815137,-0.347817412,0.616883457,-0.769234478,-0.0397743247
101692.544097,-0.087880528,-0.559351354,0.262836697,0.632050157,-0.713293731,-0.0960296094
101692.554124,0.0800584561,-0.82964129,0.984737598,0.571130574,-0.624365449,-0.092533946
101692.564152,0.493977695,-1.08788335,1.68065445,0.460431516,-0.483386219,-0.0160583425
101692.574179,0.955925929,-1.22280313,2.32437146,0.264708877,-0.363449693,0.108933657
101692.584207,1.3427403,-1.07211865,2.49365105,-0.00835006963,-0.272367716,0.235134467
101692.594234,1.51585698,-0.695367406,2.4225802,-0.187572554,-0.217004612,0.346172065
101692.604262,1.42371529,-0.224028097,2.14329389,-0.302453607,-0.121521756,0.396093547
101692.614289,1.04507662,0.251819117,2.17330938,-0.341399938,-0.00963916443,0.384050727
101692.624317,0.649625353,0.627276013,1.96290371,-0.340226024,0.0779647157,0.307900846
101692.634344,0.325972076,0.842105781,1.72694274,-0.298321187,0.162433535,0.184930414
101692.644372,0.222848386,0.955686202,1.65761465,-0.274198532,0.283735991,0.0546525791
101692.654399,0.403582554,0.88620372,1.89494193,-0.253455162,0.377857447,-0.0601493679
101692.664427,0.786133426,0.710254448,2.09384976,-0.358800232,0.501325011,-0.140599743
101692.674454,1.21745505,0.53431672,2.90580094,-0.587675512,0.661581814,-0.152003139
101692.684482,1.54718093,0.371622066,3.70723656,-0.842127502,0.832275808,-0.130642712
101692.694509,1.25265437,0.204060537,4.05610845,-1.19944668,1.05228221,-0.0741301626
101692.704537,0.906774653,0.303046543,4.22519982,-1.45164478,1.27936995,0.0112782065
101692.714564,0.779729404,0.395074619,3.48012876,-1.51499903,1.49600339,0.0995718539
101692.724592,0.831939484,0.470441702,2.13113466,-1.40051425,1.67034376,0.212380424
101692.734619,1.26960142,0.478213359,0.574521305,-1.18357372,1.72725284,0.322547674
101692.744647,1.71325762,0.424366911,-1.08793961,-0.992611289,1.63915825,0.39990133
101692.754674,1.95128254,0.177751426,-2.27468272,-0.87009573,1.40260983,0.453329653
101692.764702,1.90965698,-0.0250334651,-3.14228096,-0.885567367,1.07929599,0.480908573
101692.774729,1.17378659,-0.102415578,-3.27569019,-0.963249624,0.765340686,0.492754847
101692.784757,0.182773565,-0.0643212271,-3.0109988,-1.00684416,0.556916356,0.501813054
101692.794784,-0.567808071,0.188868777,-2.26120656,-1.00059009,0.440819889,0.499230325
101692.804812,-1.18354752,0.417016621,-1.44210084,-0.968118727,0.433125228,0.507711112
101692.814839,-1.29388363,0.320974779,-0.313805253,-0.958269536,0.50279218,0.527395844
101692.824867,-0.974261797,0.118932313,0.532651417,-0.914316475,0.543584347,0.547860146
101692.834894,-0.482835539,0.0763565511,0.747667794,-0.930337489,0.560280204,0.564152002
101692.844922,0.345219213,-0.0658878189,0.82528178,-0.937591434,0.501088023,0.585995793
101692.854949,0.978794179,-0.195535925,0.545090628,-0.940045238,0.399684697,0.594115794
101692.864977,1.31385557,-0.220777023,0.376441449,-0.962040305,0.282243848,0.575848103
101692.875004,1.20819798,-0.144341616,0.434558123,-1.01273882,0.18681024,0.520891368
101692.885032,0.805736537,0.0707496527,0.741081402,-1.05869067,0.142642245,0.443571836
101692.895059,0.434976056,0.282410874,1.07306938,-1.06086826,0.172503203,0.370970875
101692.905087,0.201519182,0.308828852,1.51055712,-1.02158988,0.283744246,0.319842726
101692.915114,0.202044667,0.174342202,1.8526585,-0.923060954,0.42860052,0.298713982
101692.925142,0.478159364,-0.0741508395,1.75403036,-0.777673662,0.547650695,0.314550489
101692.935169,0.949904185,-0.249109347,1.44837919,-0.664697111,0.595821738,0.316975951
101692.945197,1.23663731,-0.319204847,0.988863738,-0.567839801,0.559203029,0.301921636
101692.955224,1.47689977,-0.213833962,0.328432328,-0.539688885,0.412519008,0.217689306
101692.965252,1.28524381,0.239355576,-0.287277896,-0.544693708,0.231139094,0.0753718317
101692.975279,0.619502602,0.463385792,-0.459521299,-0.481016487,0.153522328,-0.0753550902
101692.985307,0.0793313109,0.5536066,-0.157702252,-0.306655079,0.223654285,-0.191310719
101692.995334,-0.328293212,0.508385795,0.282529824,-0.150630608,0.374041915,-0.29501155
101693.005362,-0.821036982,0.545536252,0.800564687,-0.106536113,0.533024132,-0.401410162
101693.015389,-1.11749479,0.640315454,1.18110247,-0.159196392,0.678084135,-0.490728587
101693.025417,-1.067268,0.611392069,1.40063369,-0.269382536,0.825329483,-0.549337626
101693.035444,-0.860268922,0.628560061,1.4196289,-0.361680239,0.958517909,-0.591604114
101693.045472,-0.593854951,0.905566446,1.06083767,-0.420901209,1.09385848,-0.633335054
101693.055499,-0.430367685,1.15244855,0.62046531,-0.417550951,1.21014452,-0.653740466
101693.065527,-0.161852358,1.23197209,-0.0985942297,-0.327106297,1.27696407,-0.624646485
101693.075554,0.190831784,0.844795166,-0.837650263,-0.278470039,1.27068031,-0.569633305
101693.085582,0.504432454,0.536706465,-1.28323539,-0.2875413,1.18164074,-0.489415646
101693.095609,0.756367818,0.123799398,-1.50500007,-0.372342467,1.04428446,-0.396475315
101693.105637,0.776197723,-0.248041206,-1.38257898,-0.496067613,0.925832927,-0.28401643
101693.115665,0.805503313,-0.63298438,-0.885460647,-0.652758181,0.852634072,-0.154000372
101693.125692,0.611603958,-0.768779556,-0.228773684,-0.811177075,0.832376242,-0.0377105102
101693.135720,0.34739188,-0.662001727,0.315943434,-0.900356472,0.880850017,0.0745917931
101693.145747,0.193704709,-0.58621693,0.549742837,-0.905615687,0.978760898,0.189935699
101693.155775,0.1393243,-0.605354031,0.424608391,-0.877022922,1.04998422,0.272888631
101693.165802,0.0551660069,-0.36565249,-0.031923663,-0.835647523,1.0280211,0.293310285
101693.175830,0.0125315648,0.179165604,-1.0962217,-0.705901563,0.913850605,0.270782351
101693.185857,0.202127085,0.613696839,-2.60356805,-0.489347935,0.711805582,0.23192735
101693.195885,0.256651871,0.899124576,-3.52582669,-0.301397473,0.507812023,0.163853765
101693.205912,0.110915367,0.808440389,-3.61474065,-0.13766554,0.292807519,0.0853403136
101693.215940,-0.153080438,0.654609864,-3.27081849,-0.0361498259,0.13739422,0.0166075863
101693.225967,-0.421607456,0.508774867,-2.2984108,0.0129383579,0.0674758703,-0.0427670553
101693.235995,-0.822743201,0.325377471,-1.22551912,0.0118675008,0.125613734,-0.0623037368
101693.246022,-1.17952718,-0.142899966,0.0463058241,-0.0481702685,0.273034066,-0.0296163689
101693.256050,-1.39988492,-0.769349611,1.0531553,-0.154983804,0.442269444,0.0296402983
101693.266077,-1.47855513,-1.15546855,1.42682202,-0.265135318,0.595351994,0.0892828554
101693.276105,-1.38484575,-1.27642264,1.20161918,-0.308006108,0.691725135,0.114086211
101693.286132,-1.04057931,-0.985465766,0.082152798,-0.251380086,0.682456791,0.0883158669
101693.296160,-0.743878339,-0.54670347,-1.53911511,-0.088662304,0.581837475,0.0372633301
101693.306187,-0.357430459,-0.244815449,-3.03946063,0.168073341,0.3958399,-0.00484497473
101693.316215,0.0565939939,-0.0368302859,-3.99390948,0.318947017,0.206089929,-0.0559228063
101693.326242,0.153899937,0.01148454,-3.88568525,0.447889298,0.0127819944,-0.0603519082
101693.336270,0.269565129,-0.397724037,-3.52022346,0.503172517,-0.123342551,-0.0371384695
101693.346297,0.173353995,-0.815438724,-2.54375743,0.449356973,-0.196905985,0.0109816585
101693.356325,-0.0127267951,-1.10079793,-1.39837919,0.308929294,-0.210020989,0.0644675195
101693.366352,-0.246631413,-1.25409873,-0.246499311,0.129696131,-0.150939569,0.112365536
101693.376380,-0.440292282,-1.2736108,0.782276166,-0.0230041984,-0.0263963006,0.146970659
101693.386407,-0.545834724,-1.19772671,1.56186645,-0.138420805,0.16382131,0.169466913
101693.396435,-0.651088996,-1.14851815,2.12720784,-0.183649272,0.373917282,0.189813986
101693.406462,-0.482861258,-1.074494,2.13913618,-0.156391546,0.558014452,0.214959562
101693.416490,-0.115973235,-0.739472359,1.65672091,-0.0690907314,0.646894813,0.22019054
101693.426517,0.1916431,-0.315441476,0.750159027,0.0323778354,0.652657628,0.214588314
101693.436545,0.499445313,0.0744254186,-0.0283335296,0.147278324,0.575042725,0.20951499
101693.446572,0.785679253,0.374635423,-0.795210467,0.269802392,0.43605867,0.197076425
101693.456600,1.01057171,0.598293372,-1.36861884,0.352980644,0.252077669,0.168872491
101693.466627,1.09202191,0.767339002,-1.70489019,0.438267559,0.0550695285,0.149258569
101693.476655,1.12533557,0.708586807,-1.76297647,0.487820476,-0.105368078,0.133034855
101693.486682,1.12419634,0.665435063,-1.4109768,0.491009593,-0.229725987,0.12870349
101693.496710,0.969158336,0.651945613,-0.866648979,0.455442816,-0.297315419,0.117691599
101693.506737,0.8245786,0.682657124,-0.280348973,0.406366885,-0.324702829,0.111951947
101693.516765,0.771247407,0.611505028,0.212637958,0.370728195,-0.300140232,0.115498751
101693.526792,0.755542473,0.495719132,0.634302696,0.341199607,-0.229316935,0.123596355
101693.536820,0.69257836,0.522854684,1.03405313,0.317640483,-0.139323384,0.11366836
101693.546847,0.74191493,0.621965193,1.2253385,0.329211652,-0.0439886115,0.124162279
101693.556875,1.01464408,0.54609659,1.2420833,0.380539298,0.0368045047,0.16660507
101693.566902,1.3661165,0.484904747,1.03046299,0.452620655,0.0730591863,0.23955971
101693.576930,1.72012576,0.486718664,0.586585836,0.488190383,0.0378442034,0.32253316
101693.586957,1.93037594,0.548378271,0.17576807,0.471147746,-0.0794557855,0.398243636
101693.596985,2.05443954,0.711216498,-0.307057532,0.409800231,-0.287611127,0.441705883
101693.607011,2.00047707,1.03251627,-0.705324444,0.323428601,-0.503951132,0.456600934
101693.617039,1.89911396,1.28250035,-0.732191993,0.270485759,-0.688412845,0.445811421
101693.627066,1.70791392,1.45600925,-0.556703324,0.274615258,-0.79708153,0.44007203
101693.637094,1.57546477,1.43220796,-0.0897293708,0.304096431,-0.805704296,0.446463883
101693.647121,1.34900872,1.22622449,0.612452099,0.349909991,-0.734203219,0.47238791
101693.657149,1.15890934,0.976943583,1.22926999,0.372700542,-0.603836417,0.515435457
101693.667176,0.983987072,0.80070205,1.6703052,0.374400437,-0.46641311,0.56155026
101693.677204,0.736588766,0.75165248,1.84613991,0.352453858,-0.344939142,0.592547059
101693.687231,0.557543866,0.822223123,1.86649764,0.295614004,-0.266060561,0.59548372
101693.697259,0.439065956,1.00860772,1.7532284,0.226145968,-0.230751306,0.575465262
101693.707286,0.362348627,1.07452703,1.6362153,0.148161158,-0.218293846,0.534452319
101693.717314,0.378748557,1.16150155,1.52749598,0.125150383,-0.21008864,0.496790707
101693.727341,0.5063076,1.08194403,1.32235861,0.163088173,-0.191632137,0.474095523
101693.737369,0.610801994,0.982854707,1.13023328,0.242282331,-0.16163829,0.455804646
101693.747396,0.57417819,0.888811857,1.07746323,0.297724843,-0.118637808,0.420965731
101693.757424,0.362687065,0.890811214,1.18129594,0.318308949,-0.0794238299,0.364310443
101693.767451,0.0994996542,0.805194685,1.22906483,0.310063511,-0.00721328473,0.301345587
101693.777479,-0.0345639484,0.586258943,1.3685148,0.303285778,0.0779242516,0.243406385
101693.787506,-0.0929062472,0.386977895,1.26189684,0.307029903,0.146846846,0.211912632
101693.797534,0.10635142,0.205714734,1.00566348,0.309256583,0.167744681,0.202104747
101693.807561,0.393653281,0.114529904,0.67045596,0.298771441,0.133920133,0.206644371
101693.817589,0.602604074,0.0606856471,0.401062096,0.285333931,0.0787554234,0.217442155
101693.827616,0.694418435,0.0151445238,0.23717794,0.302279621,0.0391584747,0.231784075
101693.837644,0.607979922,0.0733684569,0.115845224,0.347871631,0.023100147,0.220580697
101693.847671,0.348497211,0.163245712,0.0141863463,0.406501651,0.0249150898,0.186271727
101693.857699,0.0957470236,0.203495012,-0.018078093,0.441208482,0.0488433242,0.138717785
101693.867726,-0.110032739,0.071129592,0.0682440997,0.449872017,0.0863909721,0.0900075063
101693.877754,-0.22210429,-0.0985480525,0.102117143,0.451694965,0.131016761,0.0507573038
101693.887781,-0.193149413,-0.295910846,-0.0566834257,0.475978196,0.162658304,0.0373054072
101693.897809,-0.0138210201,-0.510238071,-0.319772052,0.520287573,0.176524311,0.0594906062
101693.907836,0.293065247,-0.644511298,-0.57759589,0.576214254,0.143283799,0.119121976
101693.917864,0.635585137,-0.690345998,-0.922821532,0.614286542,0.0647250861,0.209326968
101693.927891,0.910631328,-0.676626027,-1.16241822,0.611153603,-0.0602301657,0.299858749
101693.937919,0.994064814,-0.5443005,-1.25695236,0.563725233,-0.198521197,0.369444817
101693.947946,0.850001211,-0.323218685,-1.09511696,0.492207915,-0.303932846,0.412926525
101693.957974,0.585364186,-0.200199405,-0.728650959,0.438571066,-0.355095387,0.441454828
101693.968001,0.278359845,-0.0977302333,-0.413965417,0.421819776,-0.333311766,0.46738258
101693.978029,0.00808978295,-0.102420802,-0.0394224943,0.440750331,-0.251258999,0.486405015
101693.988056,-0.225214531,-0.0692884211,0.226152104,0.480658323,-0.142370835,0.506747305
101693.998084,-0.329136677,-0.0311205299,0.391427422,0.510558426,-0.0488057435,0.526734054
101694.008111,-0.299516031,-0.0295236892,0.412658426,0.507975161,0.00513232453,0.562224686
101694.018139,-0.176939452,-0.04373422,0.385156671,0.461760283,0.0133870589,0.610496342
101694.028166,-0.0218172795,-0.0290084331,0.408188002,0.379076034,-0.0124373483,0.665388346
101694.038194,0.143659114,0.05935944,0.47122635,0.261101753,-0.0678286999,0.718603611
101694.048221,0.182830848,0.185303303,0.55027709,0.131590888,-0.12528266,0.755508125
101694.058249,0.168317754,0.288184197,0.591978635,0.0223735832,-0.173202783,0.785505176
101694.068276,0.111208212,0.422785413,0.58419748,-0.0599026456,-0.193111509,0.783810616
101694.078304,-0.148788878,0.679970223,0.581059182,-0.110246241,-0.183722809,0.73153007
101694.088331,-0.486712088,0.961957757,0.493162287,-0.113035105,-0.151766211,0.662978172
101694.098359,-0.604986001,1.05246147,0.351394686,-0.0638704896,-0.0958089381,0.604150295
101694.108387,-0.547676552,1.05261827,0.181677002,0.0219232421,-0.038995456,0.562923193
101694.118414,-0.381113533,1.01727779,-0.0202314716,0.113615349,0.00251390459,0.544653952
101694.128442,-0.171174897,0.988910061,-0.185934075,0.181652725,0.00173892477,0.528394282
101694.138469,0.107313543,1.0681005,-0.36163551,0.211614355,-0.0547666959,0.500073433
101694.148497,0.357104881,1.17722416,-0.490013468,0.226133108,-0.150993884,0.46606645
101694.158524,0.645013476,1.2375591,-0.506785155,0.258635908,-0.241513938,0.425650299
101694.168552,0.809583275,1.37907141,-0.443442855,0.306670547,-0.33741197,0.350310802
101694.178579,0.639777913,1.43752506,-0.383216058,0.352365077,-0.376663506,0.2884565
101694.188607,0.608974194,1.42268522,0.0696796854,0.402806401,-0.365202069,0.242778778
101694.198634,0.388249961,1.34296549,0.495586884,0.414965332,-0.303757608,0.192762196
101694.208662,0.0831909089,1.21229533,0.77813366,0.374269575,-0.211649239,0.17138502
101694.218689,-0.137045833,0.943931102,1.05908001,0.269151956,-0.121859446,0.196845353
101694.228717,-0.126538468,0.739389941,1.08427875,0.116876923,-0.0723171905,0.244298905
101694.238744,-0.0185673378,0.715260293,0.881941825,-0.0497059338,-0.0840558782,0.307688534
101694.248772,0.161290632,0.738381787,0.413466235,-0.178383753,-0.165446326,0.364021569
101694.258799,0.368467402,0.913792569,-0.209876092,-0.240099579,-0.288633794,0.409932852
101694.268827,0.480142647,1.09760834,-0.801229873,-0.244607508,-0.437588394,0.43901673
101694.278854,0.539608981,1.40425714,-1.25165601,-0.213969171,-0.600393534,0.431690902
101694.288882,0.437854826,1.72095607,-1.44505502,-0.178868711,-0.740840137,0.39989993
101694.298909,0.224650467,1.92270132,-1.23996324,-0.152576387,-0.820243061,0.344045997
101694.308937,-0.0873895296,2.00736814,-0.767125944,-0.118914567,-0.834130645,0.287372321
101694.318964,-0.333194428,1.96157027,-0.354898895,-0.0791202858,-0.783090115,0.245981753
101694.328992,-0.53452481,1.7821371,0.0750403357,-0.0720629022,-0.689369202,0.211045861
101694.339019,-0.742607004,1.5877713,0.497106641,-0.0955828801,-0.573202133,0.201619357
101694.349047,-0.713649205,1.33512325,0.682805738,-0.1610322,-0.496839464,0.20774436
101694.359074,-0.615620208,1.2306784,0.554687308,-0.269829512,-0.467442423,0.214266956
101694.369102,-0.481084896,1.3039564,0.31373511,-0.361308306,-0.483883977,0.208285511
101694.379129,-0.242927882,1.38390044,-0.166270759,-0.383847684,-0.569060385,0.208430648
101694.389157,0.0327723888,1.38712817,-0.975858126,-0.29182297,-0.72218734,0.206189871
101694.399184,0.158183314,1.33282447,-1.68257432,-0.206484631,-0.902231455,0.185986072
101694.409212,0.182967626,1.40270582,-1.76748489,-0.161432207,-1.07887697,0.143873751
101694.419239,0.149371062,1.41907784,-1.50105163,-0.199762806,-1.22452021,0.0792873129
101694.429267,0.132007255,1.43856069,-0.861801538,-0.288992286,-1.30084503,0.0115623269
101694.439294,0.156487616,1.325616,-0.1644716,-0.386298329,-1.29692483,-0.0491417684
101694.449322,0.343498965,1.20996762,0.380641824,-0.419063479,-1.23399436,-0.0764282495
101694.459349,0.792825617,1.07369701,0.491862311,-0.368287653,-1.16549015,-0.0714822263
101694.469377,1.29920687,1.06020084,0.372941917,-0.273474038,-1.12556481,-0.0714979395
101694.479404,1.55700382,1.1762445,0.29392917,-0.175589293,-1.11438513,-0.0985705703
101694.489432,1.5723709,1.26483742,0.36793198,-0.0739151314,-1.10765958,-0.166842312
101694.499459,1.44848382,1.28833812,0.573325373,-0.00503646908,-1.07682049,-0.252906352
101694.509487,1.15536597,1.02301136,1.10707569,0.0448855534,-0.983043432,-0.321171165
101694.519514,1.18311147,0.803411893,1.55855163,0.0854220614,-0.863280296,-0.382047296
101694.529542,0.987006127,0.454837233,1.77154089,0.112860344,-0.733814716,-0.405754477
101694.539569,1.17605921,0.0753261669,1.85179691,0.143959671,-0.651604295,-0.374555826
101694.549597,1.54473353,-0.253580501,1.55889884,0.192383125,-0.638272464,-0.304249704
101694.559624,1.92872525,-0.431502973,1.14888713,0.240340009,-0.694681168,-0.218158752
101694.569652,2.08366564,-0.496759873,0.903370397,0.26125142,-0.787910163,-0.14051643
101694.579679,2.00358322,-0.531590656,0.925192353,0.277454883,-0.887415171,-0.071328029
101694.589707,1.66509419,-0.673082801,1.13297995,0.269997776,-0.943822563,-0.0108524356
101694.599734,1.14359487,-0.866932033,1.60391374,0.241800487,-0.947688937,0.0374477208
101694.609762,0.603810528,-1.00154363,2.04046479,0.177600995,-0.90769279,0.0735388771
101694.619789,0.214230195,-0.998344391,2.43315741,0.105499096,-0.835384488,0.0933144465
101694.629817,-0.11572189,-0.998932127,2.56134306,0.071990937,-0.755308568,0.110152014
101694.639844,-0.309943901,-1.05061511,2.50201059,0.0807894915,-0.662288368,0.12658079
101694.649872,-0.369458166,-1.01563236,2.42051567,0.133815959,-0.580920517,0.149212062
101694.659899,-0.369372242,-0.979530092,2.26878898,0.201939091,-0.497583002,0.172544569
101694.669927,-0.305499197,-1.03194081,2.23462894,0.247575805,-0.43427673,0.206852198
101694.679954,-0.228610018,-1.08533864,2.23816296,0.238411069,-0.368333936,0.24682945
101694.689982,-0.109831663,-1.2133368,2.34985282,0.197067901,-0.313180953,0.312328815
101694.700010,0.0868862563,-1.34201886,2.253981,0.155910879,-0.285538405,0.391548812
101694.710037,0.398212552,-1.3708751,2.02458012,0.105184309,-0.283785254,0.476688713
101694.720065,0.643648617,-1.40330598,1.78461839,0.053211391,-0.304730207,0.559114099
101694.730092,0.856953514,-1.36414652,1.56504479,0.0238713454,-0.348979414,0.629688919
101694.740120,0.983534067,-1.27212597,1.22522159,0.0280543715,-0.414103031,0.686709344
101694.750147,0.916631445,-1.16379565,0.989178211,0.0380841047,-0.475860924,0.72438854
101694.760175,0.649748687,-1.09126364,0.927587431,0.0298354942,-0.526905239,0.74604857
101694.770202,0.277377848,-1.01728758,1.03809626,-0.0116988998,-0.551096857,0.750870228
101694.780230,-0.101990886,-0.945040086,1.24889941,-0.0847597942,-0.546402752,0.733729601
101694.790257,-0.41132104,-0.767353907,1.34342946,-0.174948007,-0.531828582,0.694354475
101694.800285,-0.63537471,-0.483062041,1.32144617,-0.250719726,-0.498742819,0.609847844
101694.810312,-0.767112499,-0.103678109,1.16240244,-0.279251784,-0.448200017,0.508943081
101694.820340,-0.729611329,0.201760882,0.923420959,-0.244511113,-0.374719948,0.390586585
101694.830367,-0.554929884,0.502148727,0.652751084,-0.126540527,-0.290665507,0.268451631
101694.840395,-0.378064082,0.666827248,0.311687822,0.0370513313,-0.206974596,0.13286452
101694.850422,-0.317789354,0.81619188,0.120805769,0.220906645,-0.119584039,-0.0109403189
101694.860450,-0.382881711,0.917958895,-0.0665986705,0.414707273,-0.0592088476,-0.162122637
101694.870477,-0.424689055,0.870945507,-0.0552121841,0.557117403,0.0246061571,-0.310877502
101694.880505,-0.602107231,0.740265409,0.276560102,0.647105336,0.11448811,-0.4480564
101694.890532,-0.743404876,0.519968169,0.641838353,0.668340027,0.229147315,-0.573157072
101694.900560,-0.833055336,0.275449803,1.07913847,0.647250473,0.357325792,-0.676265061
101694.910587,-0.90092242,0.0485183856,1.3824346,0.618232429,0.496286064,-0.753784657
101694.920615,-0.862176802,-0.171070706,1.54188691,0.611475945,0.636049569,-0.801267445
101694.930642,-0.731970459,-0.400456823,1.59002521,0.628538072,0.78592211,-0.820102394
101694.940670,-0.586671761,-0.546651447,1.69022337,0.64612031,0.931923985,-0.823700249
101694.950697,-0.482034744,-0.571033901,1.69918409,0.651239455,1.06878698,-0.820549726
101694.960725,-0.422058122,-0.542265341,1.74273915,0.634259403,1.20697868,-0.811146379
101694.970752,-0.46823126,-0.566391336,1.85906749,0.598268926,1.35406089,-0.793010294
101694.980780,-0.500413866,-0.550865704,1.91299431,0.548011899,1.50354671,-0.761492848
101694.990807,-0.441613302,-0.493996839,1.78817843,0.51264751,1.62269843,-0.717449188
101695.000835,-0.320709625,-0.452318966,1.32749393,0.510381699,1.69900358,-0.654363453
101695.010862,-0.0931692821,-0.394670495,0.753821056,0.538212776,1.73071063,-0.567950249
101695.020890,0.168414785,-0.338073579,0.259876679,0.563811064,1.70647931,-0.469987482
101695.030917,0.441447298,-0.241144213,-0.186888015,0.546646237,1.62043285,-0.364089012
101695.040945,0.661412822,-0.153709091,-0.544298016,0.489217281,1.45682323,-0.268531322
101695.050972,0.667874711,-0.0353667892,-0.864531256,0.352971822,1.26423669,-0.193911135
101695.061000,0.585659369,0.185981714,-0.934198666,0.217355683,1.08570075,-0.121185005
101695.071027,0.509366988,0.275589212,-0.984658687,0.111904085,0.951087594,-0.0439972728
101695.081055,0.372520476,0.298868088,-0.893674348,0.0324649215,0.870909095,0.0274577346
101695.091082,0.155454766,0.364443845,-0.751146869,-0.0259310119,0.828902006,0.0836831927
101695.101110,-0.087077395,0.434686425,-0.665173051,-0.0585118569,0.815638125,0.128836825
101695.111137,-0.26542496,0.495943735,-0.655381725,-0.0708609298,0.819044292,0.162466154
101695.121165,-0.354330155,0.520635255,-0.683990564,-0.0799316615,0.83145839,0.190502852
101695.131192,-0.382799294,0.543370233,-0.662991031,-0.0940983444,0.836618245,0.210717574
101695.141220,-0.269822319,0.643264878,-0.81467563,-0.113923982,0.803366005,0.216843903
101695.151248,-0.135801971,0.785887489,-1.0626982,-0.160298407,0.720681012,0.179772168
101695.161275,-0.00771919608,1.15152566,-1.47289579,-0.198086798,0.587403893,0.119502977
101695.171303,0.119399702,1.36157798,-1.98377143,-0.191994816,0.45964244,0.0668405592
101695.181330,0.334738735,1.37036408,-2.22778126,-0.140662119,0.361830384,0.0418760926
101695.191358,0.470756979,1.27662445,-2.28161515,-0.0678920448,0.294005275,0.0266175084
101695.201385,0.456576478,1.20258365,-2.18637958,-0.0237701219,0.257298648,0.0187926069
101695.211413,0.392200159,1.1819414,-1.90336811,-0.0254556369,0.248101175,0.0104161669
101695.221440,0.309845701,1.13806207,-1.60333711,-0.0935284272,0.254059464,-0.0128984768
101695.231468,0.185199331,1.13372288,-1.24604636,-0.198489472,0.267135561,-0.0425333306
101695.241495,0.142250416,1.09283089,-1.0360557,-0.296642691,0.298200011,-0.0672176406
101695.251523,0.199508427,1.11360992,-0.936056277,-0.364670992,0.337361276,-0.088842243
101695.261550,0.293781286,1.10158966,-0.988853801,-0.381708294,0.378097504,-0.105208963
101695.271578,0.435619614,1.09044999,-1.13360246,-0.361371607,0.398629427,-0.119332239
101695.281605,0.509836943,1.08554731,-1.32265379,-0.326084197,0.404548556,-0.143441573
101695.291633,0.404738739,1.07540863,-1.39357559,-0.29342851,0.399319708,-0.199068084
101695.301660,0.161903211,1.12947179,-1.38028882,-0.270296812,0.389792532,-0.260883272
101695.311688,-0.000171264914,1.00766825,-1.2870494,-0.256833494,0.39904353,-0.303286374
101695.321715,0.0461415734,0.842193021,-1.12687754,-0.255710691,0.410730302,-0.322289109
101695.331743,0.159622407,0.678357965,-1.06175654,-0.286638528,0.411280245,-0.317077011
101695.341770,0.394305023,0.557334315,-0.952706383,-0.380492032,0.392929196,-0.317255974
101695.351798,0.596966945,0.601231617,-0.805089471,-0.510548294,0.35780555,-0.324142128
101695.361825,0.829140793,0.601706687,-0.770900201,-0.618157864,0.313527584,-0.327070802
101695.371853,1.15293319,0.521090743,-0.967322937,-0.666606367,0.265857249,-0.310118198
101695.381880,1.45357618,0.475398813,-1.20363169,-0.632710457,0.219334781,-0.287612349
101695.391908,1.4958716,0.38963557,-1.47077573,-0.568570077,0.177189454,-0.277908593
101695.401935,1.39137486,0.390470559,-1.56570384,-0.489583373,0.134324819,-0.286275715
101695.411963,1.25187462,0.359277987,-1.55598383,-0.428691536,0.0795499831,-0.306806266
101695.421990,1.24220663,0.315239962,-1.49613405,-0.379036874,0.00909418985,-0.333319098
101695.432018,1.26830144,0.221894446,-1.34663497,-0.347294927,-0.053928718,-0.359053493
101695.442045,1.31838562,0.0773320999,-1.10115507,-0.319988489,-0.096902281,-0.377764612
101695.452073,1.36652216,-0.105898854,-0.804868522,-0.294052213,-0.120874196,-0.394566745
101695.462100,1.38431501,-0.254446616,-0.50499301,-0.256348521,-0.113499634,-0.403947473
101695.472128,1.36714292,-0.339881066,-0.267915024,-0.201341182,-0.0685084611,-0.414845407
101695.482155,1.19182377,-0.382638697,-0.042899815,-0.140677571,0.00473672617,-0.431901604
101695.492183,0.962049381,-0.358683236,0.0935883843,-0.0756056234,0.0936231911,-0.455189347
101695.502210,0.756430362,-0.311198723,0.114863227,-0.00505262613,0.18486096,-0.485909194
101695.512238,0.63661565,-0.270056127,0.0125286422,0.0713009983,0.262377053,-0.517002642
101695.522266,0.58808572,-0.231965904,-0.221839501,0.15577434,0.310889453,-0.544392467
101695.532293,0.684701343,-0.219304868,-0.521954082,0.249127463,0.330898046,-0.558024406
101695.542321,0.846345611,-0.265374984,-0.831049842,0.349299848,0.317289561,-0.555440307
101695.552348,1.00402624,-0.286959624,-1.13612877,0.441432178,0.275772214,-0.539441407
101695.562376,1.06503746,-0.310066358,-1.31718208,0.501026511,0.218709737,-0.526690722
101695.572403,0.979380455,-0.316202742,-1.31082307,0.532191396,0.173856512,-0.498571992
101695.582431,0.822592395,-0.480819523,-1.15380062,0.528619826,0.161078662,-0.448415607
101695.592458,0.660377049,-0.702714408,-0.848420079,0.485844374,0.185306773,-0.386520803
101695.602486,0.472507622,-0.91737883,-0.57603054,0.411030859,0.219932929,-0.304088265
101695.612513,0.447879961,-1.07089956,-0.437331095,0.315431893,0.239981472,-0.219215691
101695.622541,0.426351435,-1.01810087,-0.467346294,0.199501842,0.238559067,-0.148746848
101695.632568,0.422743182,-0.866045606,-0.586757101,0.0922560841,0.211627319,-0.073300831
101695.642596,0.549400307,-0.718638465,-0.81163144,0.0095971562,0.143632293,-0.00749518909
101695.652623,0.702207773,-0.468837628,-1.11578214,-0.0552004799,0.0486272201,0.0363308564
101695.662651,0.747781776,-0.123653048,-1.3320494,-0.0832685977,-0.051788602,0.059261471
101695.672678,0.747514065,0.150135543,-1.50552088,-0.0726990476,-0.145436794,0.0731538534
101695.682706,0.738378572,0.328375118,-1.49732179,-0.0411163531,-0.206391752,0.0764588341
101695.692733,0.5992232,0.39744091,-1.3032617,0.0106760031,-0.230206549,0.0848493874
101695.702761,0.433767265,0.33746648,-1.02799456,0.0590430051,-0.222345695,0.0926481932
101695.712788,0.317155148,0.289503682,-0.748484371,0.104466677,-0.197080553,0.111759834
101695.722816,0.278590147,0.263377819,-0.512362662,0.107059002,-0.163866937,0.126877263
101695.732843,0.162366737,0.270473987,-0.251283622,0.081760563,-0.140867874,0.140751809
101695.742871,0.0655921239,0.2948004,-0.101052144,0.0344015732,-0.120336503,0.153420731
101695.752898,-0.0668967767,0.321135888,0.0396375984,-0.0106327478,-0.0876206309,0.176233903
101695.762926,-0.251657716,0.314311814,0.115879127,-0.0370502397,-0.0563556552,0.195518121
101695.772953,-0.410841147,0.44119062,0.0137350954,-0.0250748042,-0.0531063341,0.210073084
101695.782981,-0.470733598,0.591041208,-0.248234172,0.0120488629,-0.0802237019,0.211184159
101695.793008,-0.473932102,0.71589355,-0.450480499,0.0622483827,-0.136143431,0.19628723
101695.803036,-0.533752656,0.778184586,-0.574794276,0.129547268,-0.211278662,0.163389742
101695.813063,-0.556774051,0.780216092,-0.672400664,0.203201771,-0.286889553,0.125625312
101695.823091,-0.585365939,0.696055242,-0.601819061,0.276303679,-0.332671404,0.0896827579
101695.833118,-0.612692338,0.512577182,-0.364517203,0.329710156,-0.344076931,0.0788151994
101695.843146,-0.560139728,0.303999898,-0.060641808,0.350839943,-0.350685298,0.0944884345
101695.853173,-0.522124178,0.14797537,0.175265381,0.314272612,-0.367847234,0.119751446
101695.863201,-0.512904514,0.146823131,0.43437809,0.211799785,-0.388218284,0.128912449
101695.873228,-0.603386749,0.323309359,0.684513127,0.0864669085,-0.421975464,0.114663742
101695.883256,-0.587133533,0.557641774,0.689087011,-0.0181990564,-0.461552173,0.079736121
101695.893283,-0.520540124,0.769844263,0.59058572,-0.0625303015,-0.477568686,0.0295706876
101695.903311,-0.610118103,0.844323311,0.523926259,-0.0463289581,-0.443482071,-0.0392006561
101695.913339,-0.684708357,0.876295489,0.50853346,0.0420914516,-0.377588302,-0.113566764
101695.923366,-0.711879273,0.845835761,0.354834598,0.17917873,-0.295425504,-0.193201676
101695.933394,-0.657056965,0.753913484,0.159226101,0.361064643,-0.219446301,-0.244504794
101695.943421,-0.376506331,0.56352506,-0.0772480749,0.559600472,-0.153767675,-0.256218791
101695.953449,-0.0501198294,0.320770562,-0.221841839,0.717320621,-0.101113252,-0.235466376
101695.963476,0.202357971,0.122934379,-0.147125329,0.774138093,-0.0789064839,-0.201104134
101695.973504,0.321105347,0.0152089673,0.00651858811,0.711064339,-0.0874533653,-0.167778939
101695.983531,0.382879958,0.019901436,0.14771628,0.554116488,-0.12739253,-0.144035801
101695.993559,0.417861255,0.109329888,0.23690263,0.355174094,-0.195951343,-0.134531766
101696.003586,0.492874118,0.252332876,0.164713592,0.172990963,-0.272883952,-0.123933464
101696.013614,0.584240735,0.398127869,0.0362269132,0.0434028767,-0.339238733,-0.124152631
101696.023641,0.631615649,0.526207648,-0.150147891,-0.0184764657,-0.39350304,-0.132269949
101696.033669,0.688978874,0.676611414,-0.329002822,-0.0238826834,-0.433544457,-0.152471632
101696.043696,0.735301065,0.785902248,-0.438406615,0.0277176611,-0.44731912,-0.183284134
101696.053724,0.805198192,0.826044362,-0.485882652,0.126580596,-0.428805113,-0.211444929
101696.063751,0.976758289,0.75117836,-0.486845359,0.253757447,-0.391984224,-0.22252129
101696.073779,1.16472884,0.617381664,-0.457463197,0.387090743,-0.364380836,-0.21593529
101696.083806,1.38083593,0.454243724,-0.448953143,0.488621622,-0.354279727,-0.196290478
101696.093834,1.51586166,0.315961773,-0.341559521,0.543963194,-0.365898848,-0.163623616
101696.103861,1.63807934,0.152889719,-0.198261057,0.556464911,-0.391113639,-0.111202747
101696.113889,1.71021636,-0.00441047339,0.0240852245,0.508996427,-0.420462757,-0.0518877618
101696.123916,1.66092596,-0.122496079,0.344844534,0.398279756,-0.448763371,0.00785492919
101696.133944,1.51243753,-0.163713402,0.652082099,0.250418901,-0.465450197,0.0624912754
101696.143971,1.32542151,-0.183433436,0.875536049,0.0905410945,-0.469627112,0.11562027
101696.153999,1.17157885,-0.201797835,0.974222634,-0.0525193885,-0.468907505,0.173739776
101696.164026,1.06249888,-0.203589066,0.885680427,-0.156439126,-0.470928043,0.219505936
101696.174054,0.90319621,-0.0969009064,0.655291708,-0.214103758,-0.490453273,0.247619331
101696.184081,0.746084909,0.0229624127,0.394632355,-0.224122301,-0.510783076,0.259349763
101696.194109,0.625623131,0.156634934,0.199140178,-0.190420002,-0.519901693,0.260451227
101696.204136,0.503379145,0.201732843,0.0336941798,-0.124337122,-0.518623948,0.24927102
101696.214164,0.338500133,0.197428625,-0.0609878449,-0.0464532413,-0.503476679,0.229347646
101696.224191,0.163134799,0.196654974,-0.0481733715,0.023614794,-0.471806616,0.199437946
101696.234219,-0.0280763399,0.139052643,0.0220271229,0.0702475384,-0.434962064,0.161129445
101696.244246,-0.201501647,0.0915750352,0.14629823,0.0954815224,-0.396410942,0.124710977
101696.254274,-0.263152339,0.00907338716,0.17243045,0.104844138,-0.34833768,0.0973525941
101696.264301,-0.287777662,-0.092006668,0.232704594,0.0938356891,-0.3031196,0.0787091255
101696.274329,-0.293314838,-0.171799678,0.231718506,0.0785576701,-0.272114277,0.0637123361
101696.284356,-0.173053551,-0.24771128,0.141232179,0.0621541962,-0.256266087,0.0619173646
101696.294384,-0.00871112972,-0.322829978,0.0133195003,0.0533391312,-0.265813261,0.0735415369
101696.304412,0.148656192,-0.313030578,-0.134416654,0.0645523742,-0.288637877,0.0888991803
101696.314439,0.281656549,-0.262803708,-0.297833777,0.0938519388,-0.318249822,0.0928558409
101696.324467,0.312546777,-0.154152012,-0.37895957,0.134223327,-0.355017692,0.0875265896
101696.334494,0.286810278,-0.0873735649,-0.412803387,0.183713645,-0.376503289,0.0626478717
101696.344522,0.169895379,-0.0262717017,-0.33019057,0.253891677,-0.376547754,0.028849693
101696.354549,0.0577267973,-0.05678674,-0.249966694,0.327041507,-0.338984936,0.000490489416
101696.364577,0.0305067819,-0.1883609,-0.046129883,0.397206485,-0.280868381,-0.0150447935
101696.374604,0.0348819283,-0.384905728,0.164646957,0.456304967,-0.210727632,-0.0120399501
101696.384632,0.1413409,-0.5464998,0.340829453,0.48431024,-0.143460974,0.00301969377
101696.394659,0.207839617,-0.622619711,0.532422869,0.478232086,-0.0772545263,0.0318952836
101696.404687,0.258882991,-0.676673958,0.712303051,0.446819305,-0.0162138101,0.0727782696
101696.414714,0.241688695,-0.663356065,0.788576143,0.398827016,0.0408436172,0.115158752
101696.424742,0.169303258,-0.605893252,0.817986362,0.336789489,0.0935584977,0.146831468
101696.434769,0.0552320579,-0.468249672,0.824123842,0.2720294,0.136796251,0.162284181
101696.444797,-0.0236252057,-0.283197659,0.740965666,0.210897073,0.159869075,0.168259785
101696.454824,0.0121785136,-0.103778555,0.611771716,0.166364759,0.160734877,0.170677409
101696.464852,0.154787826,0.0584861643,0.441567709,0.130716205,0.127755091,0.171587139
101696.474879,0.305672215,0.172009741,0.274519536,0.104068354,0.0738543049,0.16968511
101696.484907,0.432659596,0.278111442,0.220452431,0.0710315779,0.0186887793,0.164585426
101696.494934,0.445287022,0.361154229,0.31104514,0.0379929319,-0.00916575454,0.150333777
101696.504962,0.340326764,0.435716791,0.541601616,0.00878311694,0.00991792604,0.135278136
101696.514989,0.186875155,0.463312289,0.821398216,-0.025291495,0.0820128918,0.113714784
101696.525017,-0.00507481905,0.493944524,1.07951432,-0.0550509915,0.198854029,0.0898336917
101696.535044,-0.134062433,0.53692493,1.2431179,-0.0656394511,0.345000058,0.0781280249
101696.545072,-0.171142164,0.603259616,1.16333768,-0.0605064742,0.482503325,0.0582850799
101696.555099,-0.222789349,0.786608496,0.889110401,-0.0516344197,0.591127276,0.0237116553
101696.565127,-0.229246563,0.979052976,0.485619617,-0.0331984237,0.661969721,-0.011376556
101696.575154,-0.13797873,1.12442489,-0.00255085353,-0.00641873898,0.689081788,-0.0532603562
101696.585182,-0.0549023875,1.22627169,-0.429332497,0.00803769846,0.677950025,-0.0943963379
101696.595209,-0.031443186,1.27656424,-0.730561761,0.00301550911,0.628001153,-0.140624285
101696.605237,-0.0247556711,1.36842273,-1.03755733,-0.00682433834,0.550038934,-0.181393549
101696.615264,-0.00183598326,1.36781352,-1.32996967,0.00476600509,0.455238938,-0.206803039
101696.625292,0.0937584801,1.27090782,-1.59523272,0.0254132282,0.35650143,-0.217724398
101696.635319,0.141615041,1.15905576,-1.66575938,0.0469803028,0.262896121,-0.216529697
101696.645347,0.130443074,1.03489177,-1.57972827,0.0545404851,0.190820605,-0.214777872
101696.655374,0.0275087692,0.896648615,-1.37384096,0.0446875878,0.147275522,-0.213201553
101696.665402,-0.0893278042,0.745503456,-1.06270054,0.0213039704,0.123382442,-0.206789717
101696.675430,-0.150649411,0.57273033,-0.864458775,-0.00194196519,0.107392818,-0.20358488
101696.685457,-0.143610014,0.469682555,-0.744138451,-0.0252065398,0.0926050842,-0.19545877
101696.695485,-0.11474457,0.338738399,-0.653840925,-0.0464023761,0.076039955,-0.186124399
101696.705512,-0.0448737455,0.238592903,-0.585260725,-0.066936411,0.052755937,-0.172933221
101696.715540,0.0245452432,0.17567652,-0.547652002,-0.0821752846,0.0228917804,-0.166437238
101696.725567,0.0852758985,0.146647363,-0.572172696,-0.089399375,-0.0200104117,-0.159181461
101696.735595,0.134484458,0.109579981,-0.639979573,-0.0916625336,-0.0618108548,-0.155684203
101696.745622,0.123307815,0.10574475,-0.65014324,-0.0893096253,-0.0955605581,-0.154872999
101696.755650,0.093702366,0.0535845738,-0.588813449,-0.0851947814,-0.105933309,-0.149133354
101696.765677,0.0868938551,-0.0226314957,-0.484041408,-0.0848914459,-0.100215234,-0.139048234
101696.775705,0.0767155754,-0.0938761791,-0.422874699,-0.0875135958,-0.088190794,-0.127660558
101696.785732,0.0364706588,-0.110692993,-0.406157373,-0.0900316089,-0.0717050284,-0.119178385
101696.795760,0.0472977577,-0.125210918,-0.391489381,-0.096788846,-0.0654913411,-0.118807942
101696.805787,0.0600835896,-0.103157976,-0.425485758,-0.100514881,-0.07429602,-0.115578055
101696.815815,0.15199615,-0.0815397168,-0.495253122,-0.0875050724,-0.0937940851,-0.115160212
101696.825842,0.227050514,-0.0618000061,-0.582759556,-0.0534142107,-0.117383569,-0.116468877
101696.835870,0.319887787,-0.0364182619,-0.635564095,-0.00458834833,-0.149740174,-0.108215213
101696.845897,0.401030532,-0.0399299963,-0.622181466,0.0406134836,-0.180018723,-0.0975535214
101696.855925,0.406098336,-0.0569290254,-0.499891303,0.0614037178,-0.205714494,-0.0889610946
101696.865952,0.346492886,-0.0644206963,-0.352659592,0.0644128248,-0.234383956,-0.0798898339
101696.875980,0.308119024,-0.0638903934,-0.245263047,0.050345473,-0.256853312,-0.0673247725
101696.886007,0.295007613,-0.0583212104,-0.198363348,0.0268204417,-0.277783096,-0.0573248751
101696.896035,0.258299639,-0.0446981469,-0.103408352,0.00353882043,-0.293134898,-0.0460391939
101696.906062,0.230887315,-0.0533138671,-0.0430821859,-0.0125298947,-0.296167701,-0.0341234133
101696.916090,0.258930922,-0.0324777167,0.0415565837,-0.00845579058,-0.284437269,-0.0245160609
101696.926117,0.28710137,-0.0175757501,0.0799549957,0.00548346061,-0.26371336,-0.0152762234
101696.936145,0.284952083,0.00259924326,0.134922265,0.0208637491,-0.241934285,-0.0142439809
101696.946172,0.215835292,0.0323218777,0.220151402,0.0296798758,-0.211981952,-0.0193244591
101696.956200,0.192532743,0.0285181563,0.348445189,0.0382589847,-0.170643836,-0.0204586983
101696.966227,0.231524444,-0.0221736507,0.435861607,0.0391562022,-0.127978399,-0.00371753611
101696.976255,0.350520242,-0.0967987064,0.539832853,0.0142612392,-0.0900398046,0.0250123795
101696.986282,0.48329965,-0.185547706,0.629994186,-0.0428009816,-0.0637490749,0.0655124038
101696.996310,0.609873773,-0.235390929,0.697591804,-0.126761928,-0.0599197112,0.117229924
101697.006337,0.754215609,-0.214037084,0.683885935,-0.223439455,-0.077910699,0.172275066
101697.016365,0.794849817,-0.110261278,0.590966244,-0.32059744,-0.109749325,0.218658537
101697.026392,0.813609462,0.0170618652,0.49479778,-0.393210649,-0.145618647,0.258660823
101697.036420,0.838373317,0.13463521,0.367929057,-0.427720428,-0.180609122,0.284646869
101697.046447,0.79296941,0.311038564,0.226028185,-0.419448376,-0.204722181,0.293553829
101697.056475,0.696681703,0.428274366,0.131667063,-0.378472179,-0.216466188,0.283482283
101697.066502,0.550236758,0.496270775,0.126099492,-0.336030185,-0.205392495,0.257550567
101697.076530,0.355185895,0.543611714,0.212718622,-0.286928952,-0.166264802,0.228695735
101697.086557,0.160514972,0.528308529,0.285808408,-0.233556807,-0.101865567,0.187560812
101697.096585,-0.0176315183,0.522983937,0.383254636,-0.180835545,-0.0242019296,0.137950376
101697.106612,-0.167343356,0.51668944,0.399088165,-0.134037405,0.0596162714,0.0757858083
101697.116640,-0.315536022,0.512818809,0.350288771,-0.0944844186,0.130944252,0.00245274231
101697.126667,-0.3898761,0.45938748,0.279648716,-0.0533305891,0.193335712,-0.0683154389
101697.136695,-0.365177712,0.354148442,0.132319974,0.00170390226,0.246296138,-0.131686687
101697.146723,-0.304583835,0.234817787,0.00815349584,0.0575775541,0.291957617,-0.184985057
101697.156750,-0.228653857,0.153242752,-0.152567812,0.117743425,0.318809211,-0.231005818
101697.166778,-0.106092477,0.0379713457,-0.382852485,0.167267844,0.326394439,-0.260553598
101697.176805,0.0619341859,-0.064193637,-0.52327744,0.202497467,0.316952735,-0.280003995
101697.186833,0.209230779,-0.148998447,-0.652363838,0.234254062,0.297317237,-0.283609629
101697.196860,0.390737101,-0.238314506,-0.803432352,0.262088627,0.261818647,-0.269588888
101697.206888,0.529614241,-0.30503052,-0.925780382,0.284893543,0.21427536,-0.246111006
101697.216915,0.608500147,-0.373684296,-1.00459848,0.293010324,0.155254647,-0.214044139
101697.226943,0.64771572,-0.438243387,-0.981865257,0.283804297,0.0979585946,-0.179021716
101697.236970,0.605154343,-0.48537704,-0.865737124,0.258825719,0.0466469452,-0.140291899
101697.246998,0.568850273,-0.52775221,-0.723566203,0.219958216,-0.000166900922,-0.0975545496
101697.257025,0.557177371,-0.554280042,-0.628735125,0.170697987,-0.0364585929,-0.0496187136
101697.267053,0.535155509,-0.596279511,-0.472940753,0.112855189,-0.0657456443,0.00645307638
101697.277080,0.517960629,-0.598734941,-0.326010654,0.058183156,-0.0798233822,0.0606662482
101697.287108,0.513954316,-0.559761908,-0.235832371,0.0115141887,-0.0873300359,0.117912225
101697.297135,0.468515922,-0.486332259,-0.170813078,-0.0316189006,-0.0765881762,0.163090885
101697.307163,0.350709042,-0.299904555,-0.100830026,-0.0679444149,-0.0685094744,0.183442503
101697.317190,0.208204359,-0.0201867009,-0.182304194,-0.0918524116,-0.0601980127,0.173354983
101697.327218,0.0502285505,0.279889795,-0.327293095,-0.0897605047,-0.0497307256,0.151670456
101697.337245,-0.0202992762,0.447836524,-0.455215711,-0.0602880977,-0.0328926221,0.13804625
101697.347273,0.0427279656,0.514137928,-0.567644405,-0.0100174686,-0.0157605074,0.13970913
101697.357300,0.148362177,0.54191587,-0.653531713,0.037303973,-0.0133671258,0.148664549
101697.367328,0.216427413,0.560111306,-0.716392366,0.060915295,-0.0435886756,0.155316323
101697.377355,0.249173498,0.616319661,-0.768245303,0.051549755,-0.0948729068,0.156210616
101697.387383,0.244748668,0.65025934,-0.694631785,0.0194312334,-0.153572708,0.151451543
101697.397410,0.27547523,0.617618542,-0.537676552,-0.0200298894,-0.205046549,0.159404799
101697.407438,0.32019583,0.556673952,-0.393186832,-0.0662240162,-0.240930513,0.175441563
101697.417465,0.3156728,0.545593024,-0.210326173,-0.122732036,-0.272693753,0.184894457
101697.427493,0.263350492,0.572126518,-0.0545645339,-0.174368054,-0.291601151,0.188905701
101697.437520,0.21561142,0.591328172,0.0860240865,-0.210066393,-0.292393982,0.188772544
101697.447548,0.218095054,0.584495769,0.139395611,-0.229356736,-0.282068908,0.189889744
101697.457575,0.225806067,0.615403569,0.17257775,-0.241098344,-0.264509618,0.185500056
101697.467603,0.249224936,0.644104106,0.250062556,-0.228556991,-0.248165786,0.176069796
101697.477630,0.269427766,0.667650401,0.191665897,-0.18603456,-0.232899219,0.157614097
101697.487658,0.180349553,0.713520318,0.144584997,-0.123370126,-0.212008312,0.129629865
101697.497685,0.0504781413,0.734602707,0.16535832,-0.0587562472,-0.182967871,0.0927813053
101697.507713,-0.0651940644,0.723762895,0.235518482,0.00177793822,-0.144807979,0.0514394566
101697.517740,-0.211208217,0.710272422,0.279813551,0.0502405465,-0.0930734053,0.00804884266
101697.527768,-0.340355406,0.684340693,0.346632587,0.0778500661,-0.0361264981,-0.0402462557
101697.537795,-0.442854826,0.670926792,0.353598334,0.0911251307,0.0218667611,-0.0797862038
101697.547823,-0.473982955,0.606666648,0.353966583,0.0913701355,0.0823854953,-0.111584619
101697.557850,-0.458645685,0.535798081,0.371045728,0.0814810246,0.140263438,-0.129535913
101697.567878,-0.380748207,0.444552899,0.399569227,0.0508533381,0.202691138,-0.129508495
101697.577905,-0.284502001,0.356126062,0.435474069,-0.00279897032,0.258306742,-0.114144444
101697.587933,-0.133836224,0.331182029,0.42533086,-0.0812176093,0.301560193,-0.0942943096
101697.597960,0.056811436,0.393938637,0.33257542,-0.175284445,0.321078509,-0.0736745149
101697.607988,0.254126152,0.512626172,0.127825585,-0.27129966,0.309016764,-0.0509902462
101697.618015,0.440304557,0.658622241,-0.180763394,-0.352473885,0.259950161,-0.0386302471
101697.628043,0.523812862,0.867899125,-0.548251137,-0.422144026,0.194130942,-0.0374970734
101697.638071,0.485868039,1.0389504,-0.780231509,-0.471069753,0.132755727,-0.0408883393
101697.648098,0.457073321,1.12912459,-0.88703301,-0.505163848,0.0914285257,-0.044107303
101697.658126,0.408318351,1.20227831,-0.838777221,-0.535093784,0.067763947,-0.0506935641
101697.668153,0.324045492,1.25703668,-0.71939564,-0.566099107,0.0524257384,-0.0652783737
101697.678181,0.290372355,1.29053899,-0.638196781,-0.586294413,0.0351969488,-0.0803137794
101697.688208,0.296600435,1.30308312,-0.599888386,-0.607733905,0.020105347,-0.0948929861
101697.698236,0.301265505,1.28080963,-0.484929297,-0.620110929,0.00913152657,-0.115677096
101697.708263,0.240133283,1.2457047,-0.432833199,-0.615542531,0.00172660663,-0.138456181
101697.718291,0.205752874,1.19544327,-0.390839392,-0.599624813,0.00757544115,-0.162955388
101697.728318,0.142352123,1.12145683,-0.265146728,-0.571034729,0.0213378575,-0.190297276
101697.738346,0.122447984,1.05975696,-0.230073076,-0.535033047,0.0286924429,-0.225719973
101697.748373,0.118549223,0.997517657,-0.222778828,-0.493418217,0.0386966094,-0.262387961
101697.758401,0.102504681,0.865052942,-0.149630589,-0.455505192,0.0485505722,-0.295527279
101697.768428,0.112547352,0.673480788,-0.0448375051,-0.437591165,0.0756746009,-0.316073835
101697.778456,0.0788145935,0.420519295,0.176778124,-0.446046174,0.123129733,-0.322239339
101697.788483,-0.0145505034,0.134986709,0.442716879,-0.489029855,0.195930973,-0.316586494
101697.798511,-0.0890828896,-0.106582525,0.607133534,-0.542283773,0.284419835,-0.296053797
101697.808538,-0.0732797557,-0.339547012,0.530869794,-0.587228358,0.354081452,-0.260103256
101697.818566,0.0464595534,-0.462986637,0.233010883,-0.62616086,0.39318493,-0.216123804
101697.828593,0.192927879,-0.517770732,-0.136599843,-0.646940708,0.378032595,-0.167061985
101697.838621,0.393131303,-0.465978074,-0.628767859,-0.652885139,0.303594053,-0.126896188
101697.848648,0.60656421,-0.355063,-1.13963239,-0.654074788,0.181537122,-0.103194058
101697.858676,0.705363023,-0.21925175,-1.43618665,-0.640908897,0.0385927483,-0.0947824642
101697.868703,0.703220165,-0.191560537,-1.55685593,-0.652863562,-0.0722778514,-0.0943680778
101697.878731,0.690382896,-0.242394213,-1.30914725,-0.588607848,-0.165364116,-0.096852012
101697.888758,0.540426727,-0.416892629,-1.25503922,-0.557250738,-0.163581923,-0.0814525485
101697.898786,0.609399726,-0.621772885,-0.642356824,-0.518931329,-0.134608075,-0.0514573604
101697.908813,0.552905685,-0.823094572,-0.458948468,-0.505928993,-0.0878959596,-0.0115395058
101697.918841,0.610322686,-0.917895109,-0.243429986,-0.527220666,-0.0498918444,0.0301080719
101697.928868,0.685446024,-0.932175344,-0.205717803,-0.574056625,-0.0397593156,0.0681220293
101697.938896,0.758659728,-0.905717472,-0.294625336,-0.623710752,-0.0471663661,0.105879262
101697.948923,0.764339528,-0.805244296,-0.397640889,-0.652974248,-0.0586311743,0.128101766
101697.958951,0.681343265,-0.685505207,-0.57304188,-0.65050894,-0.0650427341,0.135886177
101697.968978,0.519763879,-0.575697728,-0.688435853,-0.614686251,-0.057640478,0.135844097
101697.979006,0.352179115,-0.474986579,-0.793895292,-0.559571862,-0.018334087,0.133856595
101697.989033,0.191675249,-0.392724256,-0.82343586,-0.507172048,0.0280573796,0.126248464
101697.999061,0.0466939466,-0.290702317,-0.900488704,-0.438322127,0.0623634234,0.0960964262
101698.009088,-0.165581607,-0.274860459,-1.11439449,-0.410372764,0.0846732557,0.0745224208
101698.019116,-0.0472872364,-0.150968122,-1.17059744,-0.386487424,0.0885087401,0.0590049811
101698.029143,0.00700198772,-0.163821027,-1.31491472,-0.373348981,0.0785375983,0.053017661
101698.039171,0.194565125,-0.155052615,-1.45316467,-0.360942632,0.0422280617,0.06613639
101698.049198,0.392510541,-0.0591305266,-1.60239194,-0.368164062,-0.00978267752,0.0703559071
101698.059226,0.418253469,0.103798959,-1.67686938,-0.394199669,-0.0679562315,0.0644554049
101698.069253,0.434941569,0.24698651,-1.66434775,-0.392606825,-0.105842099,0.0683646649
101698.079281,0.486624995,0.259875802,-1.5892554,-0.382738471,-0.113520786,0.0893903151
101698.089308,0.577130026,0.248307529,-1.42632869,-0.37432608,-0.0985932425,0.119570322
101698.099336,0.643852031,0.273121214,-1.32365566,-0.365092903,-0.0815042704,0.155664951
101698.109363,0.708078711,0.286064282,-1.27130121,-0.380163729,-0.0861131325,0.193655998
101698.119391,0.853856132,0.299204627,-1.27713824,-0.409829229,-0.129497632,0.231041729
101698.129418,1.00663437,0.356289473,-1.34047177,-0.463113487,-0.205811039,0.269789636
101698.139446,1.09090957,0.40204307,-1.34235277,-0.523759007,-0.30085209,0.303579867
101698.149473,1.13893623,0.555337589,-1.23014502,-0.588814974,-0.394261658,0.326584756
101698.159501,1.12404144,0.666704644,-1.0488427,-0.639858186,-0.46420905,0.345785856
101698.169528,1.15166536,0.697302758,-0.866919612,-0.644743741,-0.52919203,0.34718591
101698.179556,0.989212697,0.89276454,-0.833985311,-0.641083241,-0.564745724,0.326134145
101698.189583,0.918050664,0.951388724,-0.564383942,-0.626027346,-0.580266356,0.286411762
101698.199611,0.798143013,0.989183325,-0.339925782,-0.588173985,-0.554865658,0.248461187
101698.209638,0.760550657,0.968364263,-0.164829328,-0.53525883,-0.513565898,0.204239398
101698.219666,0.69200962,0.929815921,0.0543640429,-0.493539035,-0.43407166,0.16905798
101698.229693,0.714340694,0.801232942,0.356265507,-0.438167125,-0.357586473,0.128479123
101698.239721,0.605571692,0.860405116,0.355133288,-0.409987152,-0.262490571,0.0847902372
101698.249748,0.61030515,0.814337046,0.532559355,-0.394830287,-0.174495995,0.0337755233
101698.259776,0.49272448,0.831601192,0.468822504,-0.368289769,-0.0909947082,-0.0274662599
101698.269803,0.464991255,0.879435687,0.387149306,-0.339353204,-0.00585344899,-0.0922481865
101698.279831,0.482266799,0.856598417,0.340962724,-0.312276036,0.0638097823,-0.138725147
101698.289858,0.606955255,0.826746007,0.207156604,-0.295925021,0.106247522,-0.173157156
101698.299886,0.685253131,0.877700972,0.0657929071,-0.290789902,0.126606062,-0.22500889
101698.309913,0.674002839,0.92201986,-0.0659217942,-0.285808206,0.138406262,-0.273526609
101698.319941,0.808573222,0.867823721,-0.161406952,-0.262012333,0.134139881,-0.302860558
101698.329968,0.939163595,0.792052441,-0.312172683,-0.233098134,0.112214334,-0.328852475
101698.339996,0.973068203,0.798064249,-0.423860203,-0.210294023,0.0822993144,-0.363299906
101698.350023,0.884148395,0.819866915,-0.460887619,-0.175666273,0.0573177971,-0.396362543
101698.360051,0.854576263,0.74785148,-0.409892176,-0.132344365,0.0534572788,-0.41522783
101698.370078,0.837905699,0.597898089,-0.279137844,-0.0863427743,0.0708993897,-0.414508522
101698.380106,0.821457838,0.387734851,-0.0848331232,-0.0532601923,0.0937042981,-0.390923023
101698.390133,0.813520615,0.213505096,0.0351648369,-0.0486089811,0.115456469,-0.356446564
101698.400161,0.742840813,0.113052963,0.129125269,-0.0599415302,0.126428694,-0.316799521
101698.410188,0.683245299,0.053907239,0.159139007,-0.0882501304,0.124739982,-0.284275711
101698.420216,0.576247982,0.0946478302,0.137856565,-0.114555508,0.111444414,-0.264351249
101698.430243,0.43329614,0.170054807,0.0891769976,-0.130416498,0.0965861082,-0.255052805
101698.440271,0.295954539,0.207189775,0.0348088631,-0.126972228,0.0890315175,-0.249962196
101698.450298,0.202031808,0.192412039,0.0289443549,-0.0977911726,0.0936473086,-0.235412538
101698.460326,0.157862996,0.0989320834,0.0586094254,-0.0645210966,0.110584214,-0.211799085
101698.470353,0.0833697726,0.027152357,0.112899234,-0.0444262214,0.132783264,-0.183015108
101698.480381,-0.000768646285,-0.0477102841,0.229455821,-0.0405545197,0.147155002,-0.153673202
101698.490408,-0.055649991,-0.0834070359,0.256930981,-0.0787445083,0.177829027,-0.117272586
101698.500436,-0.0782856012,-0.127980483,0.413188002,-0.116415456,0.208575219,-0.07568492
101698.510463,-0.0942184989,-0.167629041,0.314116803,-0.154160976,0.236358121,-0.0380374119
101698.520491,-0.0440939933,-0.0883222804,0.137761873,-0.192072406,0.23942475,-0.0086323861
101698.530519,-0.0225432557,0.0504280186,-0.105625444,-0.224672168,0.229060262,0.00708638877
101698.540546,0.0620528438,0.163908998,-0.330493353,-0.240482017,0.205575436,0.012447332
101698.550573,0.145764562,0.263404268,-0.549133765,-0.239554435,0.176129669,0.00993597135
101698.560601,0.214479202,0.332623497,-0.750108758,-0.240154177,0.139901087,0.00385624077
101698.570629,0.238272165,0.402411903,-0.815244955,-0.245734841,0.109221742,-0.0145898778
101698.580656,0.243959563,0.468285328,-0.860112855,-0.250277638,0.0838838965,-0.0376272872
101698.590684,0.31097266,0.474760369,-0.905005889,-0.235481665,0.0681773722,-0.0531673655
101698.600711,0.405179468,0.434094012,-0.945903717,-0.200776413,0.0619271956,-0.0604122281
101698.610738,0.529427194,0.388329309,-0.987618122,-0.151936978,0.047791671,-0.0640391856
101698.620766,0.651244479,0.390817765,-1.06150344,-0.0996188968,0.0177994166,-0.0670821145
101698.630793,0.735785633,0.353185223,-1.08852121,-0.0547273271,-0.0204840563,-0.0654852837
101698.640821,0.831130506,0.258268513,-1.00945177,-0.0186106022,-0.0581081323,-0.0555410385
101698.650849,0.878251738,0.140345021,-0.800513834,-0.00880537555,-0.0809641778,-0.0349564031
101698.660876,0.867091462,0.0191615043,-0.55340136,-0.0309314504,-0.100792743,-0.0221889429
101698.670904,0.807109579,-0.0545073969,-0.284848623,-0.0752304718,-0.111692794,-0.00814289786
101698.680931,0.73807579,-0.161446407,-0.0740437259,-0.124721587,-0.104657523,0.012717111
101698.690959,0.765892602,-0.268351661,0.0515127451,-0.160076395,-0.0795375258,0.0485800356
101698.700986,0.779343036,-0.33483372,0.0920692119,-0.176769346,-0.0501253046,0.0837801024
101698.711014,0.759428375,-0.295797887,0.0269803614,-0.178171501,-0.0196752548,0.117206499
101698.721041,0.709024468,-0.18750074,-0.0287403568,-0.170869112,0.0175149906,0.138556272
101698.731069,0.905993731,0.126221803,-0.14104104,-0.0743718669,-0.00964978524,0.154405534
101698.741096,1.22422265,0.399704544,-0.537516393,0.0188092086,-0.0634938404,0.0566004105
101698.751124,1.95399589,1.43792604,-0.996753907,0.336304903,-0.360486388,-0.0621259734
101698.761151,2.68921103,1.60766491,-1.80378604,0.311911941,-0.435347319,-0.212229446
101698.771179,1.4425819,-0.0982033307,0.614813275,0.104282297,-0.34111321,-0.176516458
101698.781206,1.48488609,-1.14518257,1.82446642,-0.063050501,-0.0971125215,0.0644801706
101698.791234,1.419391,-1.81229901,2.07021404,-0.188618556,0.214245632,0.300633073
101698.801261,0.463609445,-1.608549,1.98844848,-0.351116627,0.481227249,0.394931078
101698.811289,-0.503073441,-0.860926801,1.57029088,-0.513527393,0.708912611,0.461142063
101698.821316,-0.952238765,-0.423664827,0.914464038,-0.534602344,0.866520882,0.454871356
101698.831344,-0.823518862,0.47348392,-0.141138655,-0.491188258,0.91758728,0.410635173
101698.841371,-0.638498395,1.04950993,-1.11884855,-0.423337311,0.885751843,0.353063524
101698.851399,-0.468097404,1.36304046,-1.71911687,-0.347883552,0.811357498,0.307556748
101698.861426,-0.380500369,1.26562229,-2.03254745,-0.28552857,0.696740627,0.242649913
101698.871454,-0.319348858,1.25269062,-2.3479841,-0.200244322,0.535581887,0.180201441
101698.881481,-0.147702836,1.1609312,-2.63891058,-0.146603733,0.346843064,0.138826311
101698.891509,0.00689560473,0.994419326,-2.69988323,-0.140652627,0.149904191,0.159882054
101698.901536,0.232250421,0.80703739,-2.52996388,-0.179164603,-0.0229568016,0.200443074
101698.911564,0.137531571,0.795339354,-2.21133282,-0.261545748,-0.147256121,0.223640263
101698.921591,-0.240054957,0.926744843,-1.83550161,-0.343167901,-0.214779496,0.213804945
101698.931619,-0.493621722,1.05121527,-1.58045834,-0.391391903,-0.252445668,0.193214983
101698.941646,-0.510369443,1.11253893,-1.53012399,-0.398194939,-0.288390875,0.170076907
101698.951674,-0.368926836,1.1083365,-1.5519968,-0.371971786,-0.332174063,0.151599497
101698.961701,-0.17776129,1.05414197,-1.56458565,-0.326896727,-0.37718603,0.129579961
101698.971729,-0.0262140532,1.03884387,-1.44972827,-0.292694271,-0.410910696,0.0984545276
101698.981756,0.00538753826,0.975286171,-1.19360071,-0.257491022,-0.418613613,0.0700825453
101698.991784,0.0605956307,0.868402252,-0.976225206,-0.218852535,-0.401946753,0.058615502
101699.001811,0.128633979,0.744917619,-0.768809951,-0.191478968,-0.365962654,0.057393644
101699.011839,0.207644972,0.662248396,-0.574125583,-0.192044348,-0.329688817,0.0627702996
101699.021866,0.311970438,0.617953035,-0.478863128,-0.216703892,-0.306434602,0.0664758235
101699.031894,0.431788073,0.623800884,-0.490585423,-0.266738325,-0.307507336,0.0666851476
101699.041921,0.60304305,0.676167615,-0.527608162,-0.324962199,-0.325730801,0.060026709
101699.051949,0.764640556,0.742200177,-0.618799715,-0.37410897,-0.358151078,0.0636432841
101699.061976,0.913191534,0.798562992,-0.716452572,-0.404504955,-0.387976348,0.0700726882
101699.072004,1.06242348,0.891578837,-0.753134828,-0.41086939,-0.403627485,0.0689054281
101699.082031,1.11639706,1.04820002,-0.764746939,-0.386869252,-0.411419094,0.0427547805
101699.092059,1.02338911,1.36416332,-0.764481274,-0.342400581,-0.392168701,-0.00689240173
101699.102086,0.934268809,1.51759009,-0.647152533,-0.250683725,-0.320389301,-0.0467295647
101699.112114,1.01540688,1.45270787,-0.515145571,-0.124289542,-0.21420455,-0.0597646683
101699.122141,1.15723118,1.25912211,-0.441333024,-0.00081181369,-0.103402942,-0.0394194536
101699.132169,1.27788117,1.05866091,-0.322508199,0.0657163486,0.00271097501,-0.00853716955
101699.142196,1.32984166,0.885879749,-0.20740298,0.0629788861,0.0654941946,0.024995489
101699.152224,1.44102474,0.88909082,-0.253393746,-0.0138029801,0.0934022591,0.0521746464
101699.162251,1.60254041,0.900343451,-0.278521466,-0.128844082,0.0713528842,0.0862460658
101699.172279,1.82986857,0.851233967,-0.445707878,-0.256794065,-0.0139577501,0.12770775
101699.182306,2.03630943,0.830581348,-0.730558546,-0.369398922,-0.1507819,0.165454328
101699.192334,2.05083421,0.895351926,-0.991346202,-0.439681321,-0.317487538,0.195799708
101699.202361,1.90193018,0.906197145,-1.17355307,-0.470879734,-0.466019481,0.229075909
101699.212389,1.63705058,0.82670889,-1.01724432,-0.472362041,-0.577094376,0.254620433
101699.222416,1.26640993,0.739788732,-0.740603263,-0.46213603,-0.662866235,0.264708489
101699.232444,0.718578478,0.682785865,-0.425499202,-0.455260009,-0.708719254,0.25505507
101699.242471,-0.0109247141,0.555269199,-0.00471007739,-0.459722936,-0.721218765,0.221099764
101699.252499,-0.741528561,0.467171229,0.326801805,-0.481089234,-0.694255054,0.166565418
101699.262526,-1.39290865,0.472499146,0.6958888,-0.514965653,-0.623106599,0.0731805936
101699.272554,-1.95872525,0.519332209,0.975702935,-0.536360145,-0.506745875,-0.0513421595
101699.282581,-2.34098211,0.547936372,1.15830231,-0.535875499,-0.343338042,-0.184136689
101699.292609,-2.37674725,0.569393002,1.18722036,-0.461526185,-0.155554563,-0.327819824
101699.302636,-2.16318692,0.642250148,0.992902784,-0.315641671,0.0420900695,-0.443108618
101699.312664,-1.68366913,0.622277035,0.667717475,-0.0888852105,0.18780227,-0.526156902
101699.322691,-1.1511767,0.495650305,0.121185416,0.131934524,0.27484262,-0.5798406
101699.332719,-0.610108166,0.338232715,-0.167584179,0.288831174,0.277588099,-0.598127246
101699.342746,-0.178139476,0.0456315781,-0.273923324,0.378155738,0.221746385,-0.601883352
101699.352774,0.0373293214,-0.216240074,-0.326681685,0.363665462,0.119979277,-0.5829826
101699.362801,0.217587689,-0.468235936,-0.104426005,0.280221969,0.0249113515,-0.552842319
101699.372829,0.289063026,-0.709384241,0.173275669,0.157261983,-0.0612504333,-0.508245826
101699.382856,0.3362544,-0.854457605,0.395229736,0.013459268,-0.106490083,-0.461503059
101699.392884,0.329330154,-0.93045948,0.653253481,-0.105272174,-0.112859033,-0.420604885
101699.402911,0.278550984,-0.968436159,0.760374716,-0.178052634,-0.0774176866,-0.387448817
101699.412939,0.245092366,-0.958065572,0.788734549,-0.187075153,-0.00309391739,-0.362929076
101699.422966,0.177296595,-0.919148689,0.748898213,-0.145819873,0.102634378,-0.353689253
101699.432994,0.169518362,-0.9041709,0.636505175,-0.05937526,0.216630459,-0.342827797
101699.443021,0.266034617,-0.924068902,0.442674794,0.0477868803,0.322532922,-0.322086304
101699.453049,0.388998149,-0.981634956,0.245889654,0.142365053,0.411468387,-0.295503169
101699.463076,0.493075194,-0.999522494,0.0957207201,0.209731311,0.464089781,-0.266889632
101699.473104,0.647148734,-0.98003775,-0.113659989,0.227427214,0.461165905,-0.238204718
101699.483131,0.757733846,-0.952558206,-0.354658657,0.201950356,0.413526207,-0.209274799
101699.493159,0.881442059,-0.924176454,-0.536367807,0.154160455,0.339735866,-0.179160297
101699.503186,0.992575452,-0.861248581,-0.67369801,0.0950492024,0.265445143,-0.147802383
101699.513214,1.03033206,-0.851655992,-0.7172861,0.0431670956,0.211139023,-0.106907681
101699.523241,1.01475572,-0.873838306,-0.710887631,0.0217385013,0.158894196,-0.0541837513
101699.533269,0.997297804,-0.891579714,-0.790264535,-0.00461826986,0.122521527,0.00112850685
101699.543297,0.946931891,-0.814270557,-0.742117174,-0.0225831568,0.101271905,0.0505732894
101699.553324,0.84764851,-0.729116531,-0.718657973,-0.0408444516,0.0982132629,0.0978087112
101699.563352,0.779625944,-0.632359746,-0.667609923,-0.049416367,0.106514066,0.143679798
101699.573379,0.752379625,-0.507134406,-0.670817487,-0.0641297996,0.122888781,0.18411696
101699.583407,0.677359163,-0.366838924,-0.690796737,-0.0729081109,0.127090722,0.208457202
101699.593434,0.553256983,-0.138140935,-0.851176976,-0.0690776855,0.121146008,0.220673114
101699.603462,0.517975242,0.103960141,-1.05145814,-0.036078725,0.0973245651,0.223591417
101699.613490,0.528812277,0.31356969,-1.27756553,0.0230668858,0.0661735684,0.229999512
101699.623518,0.549241902,0.395364469,-1.44640322,0.0969893187,0.0362098105,0.241162151
101699.633545,0.521630257,0.431671461,-1.44654204,0.150587559,0.00555656245,0.254153043
101699.643573,0.408956064,0.448575834,-1.34268448,0.178512141,-0.0307734814,0.262792587
101699.653600,0.3392869,0.405609092,-1.18153706,0.175376534,-0.0722879022,0.272946954
101699.663628,0.31545302,0.354221726,-1.00107498,0.143626064,-0.11777816,0.287580758
101699.673655,0.305814838,0.307239611,-0.832365016,0.0943354741,-0.160898462,0.303850025
101699.683683,0.331255569,0.313845877,-0.648787441,0.0423649512,-0.203064814,0.325887144
101699.693710,0.336442616,0.350363882,-0.536192451,-0.00506807771,-0.244042605,0.341010422
101699.703738,0.356789239,0.441227225,-0.441315488,-0.0446541049,-0.278564632,0.346744478
101699.713765,0.362804554,0.546138968,-0.389603713,-0.0606399961,-0.3167983,0.345010757
101699.723793,0.38777942,0.654054276,-0.396456648,-0.0602327958,-0.354256719,0.332198024
101699.733820,0.430478744,0.731286568,-0.381564199,-0.0447198823,-0.386864215,0.308216006
101699.743848,0.44274026,0.796869632,-0.289809168,-0.0169023667,-0.408224374,0.276114792
101699.753875,0.409085243,0.843512141,-0.189683198,0.0197648332,-0.410795629,0.240264386
101699.763903,0.341183673,0.787979639,-0.0101747725,0.0533619411,-0.383167207,0.211035401
101699.773930,0.269858559,0.729813573,0.238006208,0.0814186111,-0.335119247,0.181150198
101699.783958,0.192150465,0.679989804,0.441589629,0.0995467529,-0.274231404,0.158289909
101699.793985,0.158379129,0.628490503,0.546925442,0.106270164,-0.211976022,0.134205341
101699.804013,0.162098441,0.608652999,0.609869097,0.0991555303,-0.154524446,0.110043272
101699.814040,0.166119367,0.606315204,0.671427727,0.0876030028,-0.0961048156,0.0826260298
101699.824068,0.237902747,0.53817135,0.698491091,0.0820812061,-0.0356031246,0.0702947974
101699.834095,0.357729735,0.44275838,0.72266487,0.0803813115,0.0210202076,0.0716671199
101699.844123,0.515640661,0.359575655,0.691240389,0.0758842975,0.0667791739,0.0835839659
101699.854150,0.619366409,0.320252529,0.667708999,0.0530282483,0.100440726,0.0959487557
101699.864178,0.659773238,0.326230434,0.630591567,0.0311868638,0.121082358,0.101664968
101699.874205,0.650783876,0.370460037,0.548571455,0.00837262999,0.139056832,0.103289761
101699.884233,0.569905335,0.398083665,0.474591442,-0.00572481332,0.166071951,0.0991623923
101699.894260,0.497643232,0.425099389,0.443552161,-0.00983939692,0.20390214,0.0982750282
101699.904288,0.38303018,0.456888905,0.416185723,-0.010603724,0.255683064,0.0938278139
101699.914315,0.297007847,0.483001251,0.395349271,0.00196027057,0.303971767,0.092789188
101699.924343,0.269275791,0.526088698,0.262933144,0.0315011181,0.345111459,0.0869390219
101699.934370,0.280678059,0.603633417,0.0808130739,0.0639485419,0.367986679,0.0751646534
101699.944398,0.209813548,0.665868924,-0.116038701,0.109813772,0.37449652,0.0633756369
101699.954425,0.240128022,0.686885117,-0.347518137,0.170585498,0.365493894,0.0596918687
101699.964453,0.308335881,0.643766106,-0.553413342,0.223746464,0.328789413,0.0552747548
101699.974480,0.302964125,0.602699059,-0.719847475,0.253581852,0.27139616,0.0496879742
101699.984508,0.240724819,0.561633182,-0.785455381,0.248168707,0.205581442,0.0413339064
101699.994535,0.142407068,0.463664975,-0.705538964,0.224936619,0.149575159,0.0461110845
101700.004563,0.0720493372,0.345855757,-0.576210573,0.18741934,0.110855207,0.0608836338
101700.014590,-0.0169131409,0.24049101,-0.437811864,0.133654386,0.0772213489,0.0758364871
101700.024618,-0.110454179,0.22274288,-0.34085488,0.0775865912,0.0445893668,0.0816032961
101700.034645,-0.155532507,0.28907267,-0.331761765,0.031882219,0.0112516489,0.0769821778
101700.044673,-0.146667648,0.358354296,-0.349648719,0.018699307,-0.0172958393,0.0680376887
101700.054700,-0.0942179144,0.439234882,-0.417361196,0.0352444611,-0.0335467122,0.0520797595
101700.064728,-0.0434796608,0.493095652,-0.418196186,0.080255881,-0.0435506105,0.0352725461
101700.074755,0.0117190794,0.493477929,-0.44982788,0.139353022,-0.0526626185,0.0128697716
101700.084783,0.0631043987,0.486304969,-0.43368777,0.181046665,-0.0548802316,-0.00956629589
101700.094810,0.0614835195,0.460699403,-0.259955589,0.192080677,-0.050785087,-0.0254826788
101700.104838,0.0589490326,0.326384164,-0.114878425,0.175869212,-0.0452510379,-0.0229220483
101700.114865,0.136485277,0.197752815,0.009439444,0.131045818,-0.0500156991,-0.0140385423
101700.124893,0.191634332,0.148137428,0.0346489963,0.0777719468,-0.0693587735,-0.00255818758
101700.134920,0.292118906,0.213458626,-0.0172612237,0.0342558958,-0.101184078,-0.000394368544
101700.144948,0.414192796,0.327977278,-0.12976269,0.0123881483,-0.141251877,-0.00656517968
101700.154975,0.508064673,0.466696305,-0.212947754,0.0282853562,-0.173833251,-0.0183475371
101700.165003,0.560202856,0.550507976,-0.237121241,0.0894531086,-0.180221915,-0.0266765747
101700.175030,0.583891775,0.556998507,-0.167918526,0.183155626,-0.165595308,-0.0321027637
101700.185058,0.497454432,0.495586592,-0.0404947997,0.260121763,-0.123787664,-0.0302867536
101700.195085,0.320476401,0.344852425,0.259084944,0.287118763,-0.0580826811,-0.0173475202
101700.205113,0.138954297,0.200660812,0.589753653,0.259264499,0.0152245527,0.00466883276
101700.215140,-0.011470073,0.0845855781,0.793053581,0.187444374,0.0852241442,0.0317119025
101700.225168,-0.0805985543,0.0159524792,0.875834448,0.0884805247,0.134207129,0.0667268783
101700.235195,-0.0168874219,0.0562380201,0.73383976,-0.00375034148,0.149151191,0.0960330963
101700.245223,0.0667588295,0.206456346,0.415559992,-0.0670321062,0.132850513,0.119274504
101700.255250,0.193112004,0.400893461,0.135662854,-0.10133069,0.104851641,0.136460423
101700.265278,0.283208454,0.593610621,-0.0364911171,-0.121234626,0.0681911036,0.140234113
101700.275305,0.272227626,0.798544872,-0.189050161,-0.124742538,0.0282245073,0.125955313
101700.285333,0.202862998,0.979242508,-0.295334069,-0.110957488,0.00222885981,0.10285718
101700.295360,0.0655903703,1.06619511,-0.308801745,-0.0884567052,0.00261262152,0.0739363208
101700.305388,-0.0909983678,1.17681617,-0.237885212,-0.0779310912,0.0139915096,0.0252766404
101700.315415,-0.240886731,1.29316642,-0.172171507,-0.0709355026,0.0392289571,-0.0292731542
101700.325443,-0.28344577,1.34719787,-0.138523505,-0.0527421199,0.0727464408,-0.0806135759
101700.335470,-0.230696761,1.31294372,-0.154403795,-0.0148711689,0.102043875,-0.122399107
101700.345498,-0.095703769,1.22280898,-0.257994226,0.0380892493,0.120582134,-0.15800716
101700.355525,0.0486491724,1.15125561,-0.338978857,0.0852327943,0.123079918,-0.191142485
101700.365553,0.115992524,1.02661275,-0.324543797,0.114733167,0.120831408,-0.219969869
101700.375581,0.132309452,0.811380973,-0.252098446,0.123396963,0.1127607,-0.234318182
101700.385608,0.185213944,0.56239569,-0.13969021,0.109532543,0.114604674,-0.226923123
101700.395636,0.170219789,0.290932034,0.0458861374,0.0605974868,0.128696248,-0.207098544
101700.405663,0.119344757,0.0988470355,0.237018658,-0.0139816739,0.143209144,-0.182928503
101700.415691,0.117122405,0.0158273915,0.257272049,-0.091796577,0.149077684,-0.161067411
101700.425718,0.166779293,-0.00329144276,0.141845927,-0.141035497,0.143275455,-0.143450335
101700.435746,0.27921617,0.0579097527,-0.0742190824,-0.14286536,0.129208371,-0.124929368
101700.445773,0.436212904,0.0784919374,-0.326502237,-0.100161567,0.112831004,-0.100047193
101700.455801,0.572946603,0.0811725548,-0.459198058,-0.0443486348,0.0950855613,-0.0788865164
101700.465828,0.536084899,0.121088386,-0.527397442,-0.0104668336,0.0673010722,-0.0659259781
101700.475856,0.317673619,0.0730064918,-0.509751019,-0.0030890787,0.042050045,-0.0661962852
101700.485883,0.30335517,0.122392162,-0.389533571,-0.0245735981,0.0279083904,-0.0690535903
101700.495911,0.243922154,0.0255786779,-0.322820334,-0.0392393619,0.0190757494,-0.0683374703
101700.505938,0.299262348,-0.0266962837,-0.334202729,-0.0436391681,0.0165662542,-0.057634227
101700.515966,0.331926016,-0.0821793938,-0.288566767,-0.03916426,0.0308820754,-0.0439413115
101700.525993,0.325117505,-0.1457669,-0.255251357,-0.0210702084,0.0434993356,-0.0252105016
101700.536021,0.343275093,-0.172865335,-0.313517668,-0.0135132233,0.0434130505,-0.0146792978
101700.546048,0.285195244,-0.137971716,-0.296333893,-0.00993926171,0.0373362489,-0.0167027675
101700.556076,0.244124983,-0.106725806,-0.309877558,0.00858355686,0.0332685374,-0.0125141479
101700.566103,0.272554958,-0.150963299,-0.349457581,0.0372841768,0.037564747,0.000325216912
101700.576131,0.347828518,-0.203062612,-0.310085355,0.0625280142,0.0497758724,0.0210587252
101700.586158,0.317564897,-0.243509481,-0.229134334,0.069316417,0.0644581467,0.0416396335
101700.596186,0.291274856,-0.249023861,-0.189689628,0.0659704208,0.0766322538,0.0654000938
101700.606213,0.267659003,-0.27669805,-0.179743988,0.0470603742,0.0834696516,0.0939276069
101700.616240,0.245955705,-0.262137902,-0.114698977,0.0175781175,0.0887043625,0.120651096
101700.626267,0.206965757,-0.200735631,-0.101284199,-0.020721335,0.0889139548,0.139037818
101700.636295,0.142658997,-0.0748249394,-0.125079209,-0.0610280149,0.085105367,0.157314569
101700.646322,0.11926117,-0.00682838472,-0.144576521,-0.0903147906,0.0816573724,0.176825687
101700.656350,0.172868842,0.0857575445,-0.225574304,-0.0980398208,0.0761528835,0.201798677
101700.666377,0.239869079,0.191060917,-0.343090968,-0.100406043,0.0623609088,0.223902375
101700.676405,0.248280349,0.330735637,-0.442334894,-0.113204926,0.0379309319,0.235071674
101700.686432,0.217725052,0.478125462,-0.476949696,-0.132395402,0.00747076003,0.231678545
101700.696460,0.19264614,0.619456717,-0.445520831,-0.141799569,-0.0148382746,0.229235098
101700.706487,0.184416072,0.680196725,-0.436517148,-0.137060195,-0.0264384709,0.222811282
101700.716515,0.204001647,0.743542531,-0.38918578,-0.126581192,-0.0347778909,0.210656613
101700.726542,0.188458041,0.791658912,-0.331181919,-0.119102761,-0.0370708741,0.191186517
101700.736570,0.19732816,0.78885496,-0.233314835,-0.111226998,-0.0316470787,0.172226131
101700.746597,0.211515676,0.732569886,-0.0912485432,-0.109411791,-0.0197787043,0.151516333
101700.756625,0.200532509,0.668168433,0.0508273932,-0.113227561,0.00482331123,0.13093996
101700.766652,0.156582308,0.598302285,0.197870597,-0.113132223,0.0420828015,0.111373171
101700.776680,0.133914549,0.523391129,0.309581497,-0.106864206,0.0843109488,0.0903059691
101700.786707,0.0992488943,0.458691862,0.335263636,-0.0993671417,0.127202749,0.0686752424
101700.796735,0.0688736297,0.375522873,0.321596053,-0.0943651944,0.161074162,0.0473885983
101700.806762,0.092285485,0.324792803,0.29084611,-0.0895944089,0.179513618,0.0257429592
101700.816790,0.141509242,0.294116802,0.199816178,-0.0886718854,0.17256704,-0.00585491396
101700.826817,0.179952663,0.335505043,-0.0014367548,-0.0833476931,0.143860027,-0.0370740891
101700.836845,0.224274035,0.315097338,-0.177976394,-0.0658925399,0.119227387,-0.0582459494
101700.846872,0.286133402,0.218968914,-0.22599779,-0.0465121865,0.105768837,-0.0681401268
101700.856900,0.250402163,0.149736972,-0.209500244,-0.0290975086,0.10052827,-0.0728355497
101700.866927,0.203165196,0.102130295,-0.174476569,-0.0174003728,0.0961625502,-0.0818711221
101700.876955,0.14255729,0.0770221571,-0.21570056,-0.00582680851,0.0888061002,-0.0880794823
101700.886982,0.161546653,0.0399400885,-0.24450726,0.0103359167,0.0760117397,-0.0920702294
101700.897010,0.173367439,0.0238122527,-0.256801217,0.0167541355,0.0645178035,-0.0972002745
101700.907037,0.168381467,-0.000464987163,-0.21438597,0.0140411723,0.0507686995,-0.0974998847
101700.917065,0.176422735,-0.0471814379,-0.14902444,0.00606846716,0.0483598709,-0.0949658826
101700.927092,0.159119718,-0.0651046326,-0.0788601862,-0.0043503521,0.053624142,-0.0897934884
101700.937120,0.134627666,-0.0568476764,-0.0606260259,-0.0203434322,0.0668869466,-0.0846970007
101700.947147,0.0982096143,-0.00272971722,-0.0849178788,-0.043091625,0.0823090523,-0.0831494406
101700.957175,0.0927846667,0.101548696,-0.173662915,-0.0490444079,0.0953599885,-0.0788160041
101700.967202,0.181455468,0.20579496,-0.304727335,-0.0351070203,0.105559096,-0.0701711178
101700.977230,0.299645794,0.275522284,-0.47353638,-0.00540771428,0.110566638,-0.0587165952
101700.987257,0.422694082,0.365322674,-0.630985242,0.0378023386,0.100990973,-0.0420979336
101700.997285,0.547469632,0.440654978,-0.794700179,0.0824467763,0.0746110305,-0.0215748176
101701.007313,0.620474078,0.476922516,-0.900055574,0.103053249,0.0269777346,-0.00648721028
101701.017340,0.629838118,0.523557718,-0.908722572,0.10000553,-0.0350467525,0.00794898719
101701.027368,0.598301993,0.500317128,-0.815370042,0.0851442888,-0.0938690603,0.0280750282
101701.037395,0.588117284,0.473320107,-0.691992084,0.0624498948,-0.142146036,0.0509257503
101701.047423,0.548417142,0.445671637,-0.543036033,0.0374675803,-0.185025334,0.0782327354
101701.057450,0.531729042,0.471169651,-0.38545653,0.011566475,-0.223398015,0.0974908546
101701.067478,0.472410007,0.520429064,-0.294390358,-0.00573448418,-0.262799501,0.104880594
101701.077505,0.429054265,0.584826426,-0.202664845,-0.00873826351,-0.292160332,0.101119146
101701.087533,0.367915613,0.630000908,-0.0824304459,0.00171783939,-0.297408611,0.0929126143
101701.097560,0.274794846,0.6160057,0.0855535464,0.00933634397,-0.277289778,0.0803443566
101701.107588,0.1489391,0.593686608,0.314628844,0.0112740602,-0.242419124,0.059891548
101701.117615,0.00786532655,0.59226096,0.483484943,0.00390402833,-0.191877112,0.0306955781
101701.127643,-0.0916565394,0.568947304,0.577312689,0.00923088286,-0.133176252,0.00251747016
101701.137670,-0.114471013,0.540264523,0.578959872,0.0305867717,-0.0683266819,-0.0221319497
101701.147698,-0.0924111572,0.509362312,0.544687892,0.0532034002,-0.00242782524,-0.0447448492
101701.157725,-0.12302666,0.471994119,0.486591092,0.0725075901,0.0517376773,-0.0651310831
101701.167753,-0.0938888285,0.431380662,0.352872358,0.0857738629,0.0902440548,-0.0755230039
101701.177780,-0.0585498041,0.370698814,0.185657012,0.095526889,0.112143762,-0.0881250799
101701.187808,-0.0949053121,0.351780763,-0.0274652223,0.105071127,0.117535599,-0.105340816
101701.197835,-0.10669921,0.362269716,-0.237258604,0.114063025,0.110542402,-0.117428109
101701.207863,-0.0658393766,0.309668591,-0.383775445,0.130068883,0.0870855451,-0.126930803
101701.217890,0.000503273347,0.256818168,-0.515992836,0.150860444,0.0548122935,-0.13262783
101701.227918,0.109268768,0.154151574,-0.584317599,0.176155955,0.0181331113,-0.125692964
101701.237945,0.219576817,-0.0312526319,-0.574224368,0.197969899,-0.0243941098,-0.108567506
101701.247973,0.315983766,-0.177169754,-0.514962324,0.209343463,-0.0763364062,-0.0913261995
101701.258000,0.387928473,-0.315956293,-0.419937477,0.206099465,-0.134139776,-0.0712331831
101701.268028,0.448700045,-0.40308688,-0.284361716,0.189931422,-0.189087182,-0.057389006
101701.278055,0.46378714,-0.474047545,-0.126562141,0.173758566,-0.235556945,-0.0504275039
101701.288083,0.500195839,-0.544434209,0.0298547478,0.17345497,-0.260236472,-0.0447392575
101701.298110,0.581939472,-0.637408261,0.20094372,0.197505981,-0.264612854,-0.0397985615
101701.308138,0.654811816,-0.706718821,0.352948346,0.249769181,-0.247992307,-0.0422350876
101701.318165,0.676207655,-0.78944825,0.444265862,0.322509974,-0.214376569,-0.0465057343
101701.328193,0.658998746,-0.941017114,0.619803631,0.397948027,-0.148647889,-0.0367002413
101701.338220,0.596059767,-1.18018798,0.909177914,0.460410327,-0.0499945432,-0.0202754606
101701.348248,0.483050059,-1.40524148,1.22041975,0.50419265,0.0741849244,0.00351482397
101701.358275,0.305222133,-1.58587861,1.48570881,0.518709838,0.230308488,0.0279088467
101701.368303,0.115627782,-1.76883367,1.69384331,0.50756979,0.393816173,0.0498322546
101701.378330,-0.0138005618,-1.86688108,1.73653212,0.482761174,0.549714983,0.0737658143
101701.388358,-0.0415314493,-1.88979493,1.60747494,0.463236481,0.678676188,0.100303687
101701.398385,0.0420312155,-1.8685762,1.26079472,0.458640128,0.753120601,0.14125964
101701.408413,0.209110952,-1.81148214,0.715469991,0.462536067,0.779048026,0.20817928
101701.418441,0.389689053,-1.67124716,0.186531456,0.472879231,0.747641385,0.274552166
101701.428468,0.469248328,-1.36294343,-0.343165787,0.454502374,0.665491104,0.325545847
101701.438496,0.425423799,-1.02840781,-0.698961923,0.419033587,0.562725306,0.368218482
101701.448523,0.41748833,-0.774302703,-0.901255597,0.374634445,0.479758233,0.417582572
101701.458551,0.37138475,-0.567804564,-0.855301655,0.303961605,0.435007006,0.467529356
101701.468578,0.154883688,-0.326126682,-0.696307025,0.20164986,0.409317106,0.503103077
101701.478606,-0.0357744932,0.0594181114,-0.763622319,0.105699636,0.375387907,0.534854889
101701.488633,-0.0315460619,0.509674154,-1.02831487,0.0353575572,0.319623977,0.569583058
101701.498661,0.176335641,0.958279507,-1.3862866,-0.0111968936,0.217474446,0.588686705
101701.508688,0.396317532,1.47749247,-1.811597,-0.0263827704,0.0616009608,0.590137303
101701.518716,0.627960634,1.9262688,-2.15641816,-0.0225611348,-0.134944588,0.542903781
101701.528743,0.693528208,2.42401578,-2.3842946,0.0157995708,-0.335863054,0.450051546
101701.538771,0.586610971,2.70957402,-2.22517605,0.10860195,-0.471549779,0.334243476
101701.548798,0.458503646,2.64862563,-1.75237734,0.255818844,-0.524708331,0.22325784
101701.558826,0.203688927,2.45848767,-1.17656599,0.423824877,-0.483371288,0.122765318
101701.568853,-0.0986743092,2.17379687,-0.442080919,0.56968087,-0.372738779,0.0367492102
101701.578881,-0.295850494,1.8875755,0.223587806,0.653116643,-0.240839869,-0.0354807787
101701.588908,-0.409406146,1.59547062,0.700976186,0.655390978,-0.119074546,-0.0827505589
101701.598936,-0.403945542,1.32353818,1.01327103,0.582697034,-0.0241163429,-0.109955281
101701.608963,-0.260512054,1.11728437,1.07022276,0.464952886,0.026193168,-0.111792594
101701.618991,0.00562777675,0.973752386,0.929994785,0.344007015,0.0472553112,-0.0875714123
101701.629019,0.233482593,0.868605373,0.716230454,0.251018226,0.0499568209,-0.0565953851
101701.639047,0.416421578,0.867577492,0.375868033,0.208379135,0.0279937312,-0.0326735415
101701.649074,0.570512654,0.90575437,-0.0201753575,0.209795669,-0.0112221157,-0.0169337261
101701.659102,0.661211162,0.990801428,-0.275839387,0.230470315,-0.0647042468,-0.0189609248
101701.669129,0.645023997,1.08983083,-0.421080217,0.25685215,-0.099458769,-0.038613189
101701.679157,0.50367316,1.03207423,-0.277539761,0.261075109,-0.0938229859,-0.0519883819
101701.689184,0.289982479,0.791418965,0.0426063851,0.246427715,-0.0540974103,-0.0455448627
101701.699212,0.115640057,0.586937719,0.255071324,0.229826629,-0.0058670314,-0.0372733511
101701.709238,-0.113041273,0.488424737,0.259800106,0.194643885,0.0477770232,-0.0352783799
101701.719267,-0.350023983,0.389934553,0.258871885,0.141605958,0.0859750062,-0.0350482799
101701.729294,-0.418089803,0.367330214,0.0897223565,0.0933249891,0.0813333839,-0.0364720076
101701.739322,-0.378373294,0.446099215,-0.242322902,0.0703024939,0.0490204543,-0.0510818437
101701.749349,-0.324343013,0.507276737,-0.523673161,0.0837378725,0.00290701911,-0.0766276792
101701.759377,-0.247841957,0.585193798,-0.779895409,0.134990409,-0.0577755012,-0.11040695
101701.769404,-0.123860773,0.606201222,-0.975574048,0.215313211,-0.11534372,-0.136043608
101701.779432,-0.0436234531,0.495991958,-0.976761212,0.298663765,-0.140987575,-0.15046595
101701.789459,-0.0112590606,0.283567351,-0.749561645,0.363274455,-0.154198438,-0.150257692
101701.799487,-0.00173427645,0.0866919028,-0.528307835,0.380098701,-0.169827476,-0.137948826
101701.809514,-0.00531038137,-0.0884963218,-0.278771933,0.358037084,-0.174792409,-0.114817679
101701.819542,0.0151186587,-0.300373232,-0.0413391416,0.309902847,-0.158747122,-0.0824600086
101701.829570,-0.013564415,-0.446883644,0.19377076,0.246184841,-0.135892943,-0.0432127342
101701.839597,0.00891278977,-0.527479568,0.285112242,0.177336261,-0.116710991,-0.00416839588
101701.849625,0.0530494531,-0.523716416,0.226978033,0.115609787,-0.112662986,0.0356988609
101701.859652,0.144870243,-0.433113477,0.0569663343,0.0619169958,-0.132047072,0.0747162998
101701.869679,0.226109434,-0.332187882,-0.10281214,0.0100428807,-0.17184189,0.10413757
101701.879707,0.318406024,-0.192839324,-0.220303962,-0.03098711,-0.225185797,0.128025591
101701.889735,0.431850033,-0.0187874103,-0.273754982,-0.0599172972,-0.276962191,0.140408486
101701.899762,0.408433501,0.0941138695,-0.278966579,-0.0838151723,-0.31972909,0.146287948
101701.909790,0.352516968,0.155223003,-0.227034147,-0.10669066,-0.345972955,0.140625536
101701.919817,0.311816709,0.265099966,-0.215864518,-0.115101717,-0.370020241,0.11673139
101701.929845,0.251447288,0.360169529,-0.276729614,-0.110404171,-0.385285199,0.0881519467
101701.939872,0.251924843,0.355542454,-0.288001534,-0.0965994075,-0.385061502,0.0616809241
101701.949900,0.331190687,0.358115519,-0.197737326,-0.0733303055,-0.373437613,0.0401367508
101701.959926,0.422574839,0.310898425,-0.132160399,-0.039004378,-0.351955861,0.031315513
101701.969955,0.547865937,0.252994518,-0.0679471625,0.00566082727,-0.324024886,0.0317283049
101701.979982,0.622563159,0.195560274,0.00640402182,0.0500152409,-0.29919517,0.0375478417
101701.990010,0.651192456,0.0880149681,0.0554009847,0.0870907009,-0.282261461,0.0462760888
101702.000037,0.672766575,0.0198810508,0.0996107133,0.112898067,-0.270095885,0.0603226647
101702.010065,0.620219811,-0.0394783162,0.157248079,0.127501771,-0.269559264,0.0709420145
101702.020092,0.584226706,-0.0992585389,0.215119253,0.122427389,-0.271095097,0.0918869823
101702.030120,0.549441224,-0.179819392,0.273767257,0.106047086,-0.272265017,0.117407784
101702.040147,0.515092964,-0.263642753,0.386666491,0.0764063671,-0.259043753,0.143517151
101702.050175,0.44363867,-0.292014861,0.489566016,0.0327869877,-0.248054758,0.152118102
101702.060202,0.282203661,-0.228951671,0.546253534,-0.00670689298,-0.235468924,0.147551313
101702.070230,0.228557996,-0.166847389,0.524396215,-0.0201366805,-0.21203284,0.132456779
101702.080257,0.187668936,-0.0782385472,0.458185374,0.00156328757,-0.182768703,0.114507332
101702.090285,0.196526781,-0.0160664609,0.358292337,0.0576577149,-0.142817557,0.10644941
101702.100312,0.300339037,0.00365735346,0.26652883,0.124381617,-0.105263524,0.103452817
101702.110340,0.39611821,0.103526425,0.164743987,0.164363384,-0.0908062831,0.0877518952
101702.120367,0.378569109,0.221277191,0.124886024,0.169550166,-0.0855473429,0.0646063536
101702.130395,0.342261532,0.278706467,0.148617905,0.168879837,-0.0756246671,0.0591442138
101702.140422,0.381242712,0.198729844,0.151721717,0.169225782,-0.0531662367,0.0683576912
101702.150450,0.365240256,0.144145144,0.126914023,0.164966866,-0.0272925608,0.0834253132
101702.160477,0.337160994,0.138335873,0.0878679608,0.145260528,-0.0141919367,0.0985901654
101702.170505,0.309621829,0.184993287,0.0555441926,0.122229248,-0.00846720673,0.108267292
101702.180532,0.280250774,0.220670457,0.00629004005,0.11069537,-0.0100432653,0.115280181
101702.190559,0.2730179,0.275890533,-0.0793283883,0.114993177,-0.0156801119,0.124611378
101702.200587,0.255386381,0.310040347,-0.183022279,0.136578634,-0.022954803,0.131616816
101702.210614,0.194904732,0.336446708,-0.248698866,0.15420875,-0.0325286016,0.135839269
101702.220642,0.114722358,0.388837113,-0.232209212,0.157623991,-0.0394917019,0.133061856
