t,ax,ay,az,gx,gy,gz
91373.151876,0.198022609,0.114495709,-0.00102232879,0.0961533859,-0.0877838433,-0.0659486577
91373.161903,0.189323462,0.117192511,0.0151747728,0.0925839543,-0.0903841555,-0.0782005265
91373.171930,0.131291544,0.10234507,-0.0226116448,0.127111316,-0.0820689648,-0.0968282744
91373.181956,0.108304527,0.0648803954,0.00020107553,0.113248214,-0.0622135028,-0.114840835
91373.191983,0.0623900399,0.00993935634,0.185281749,0.0408850759,-0.062158376,-0.125958726
91373.202010,0.0879121287,-0.0853578411,0.252881121,-0.00518015632,-0.0547555871,-0.120793268
91373.212037,0.0148555508,-0.285899739,0.124417822,-0.00574661093,-0.0504753552,-0.103204682
91373.222064,0.0195657377,-0.28547154,0.124556939,0.0253157001,-0.054895401,-0.081237331
91373.232091,-0.0163207279,-0.316637517,0.0758265176,0.0834493116,-0.0521651283,-0.0484807119
91373.242118,0.127193059,-0.354794631,0.0937298386,0.171337366,-0.0519177206,-0.0170397013
91373.252145,0.061738846,-0.33759365,0.111098907,0.253169894,-0.0415202081,0.0012985589
91373.262172,0.0438710347,-0.298599427,0.257355051,0.277415305,-0.0255779941,0.0305651017
91373.272198,0.120872478,-0.2998259,0.437241078,0.271068186,-0.00186201208,0.0229718965
91373.282225,0.083791286,-0.254462033,0.516572389,0.233990356,0.0242263135,0.0260196179
91373.292252,0.168877872,-0.249897648,0.531345011,0.205075353,0.0499407314,0.0239945501
91373.302279,0.162596966,-0.231522472,0.529881952,0.164085835,0.0822752342,0.0141062327
91373.312306,0.132817037,-0.216898465,0.544889552,0.0796859935,0.101654261,0.00957832672
91373.322333,0.146990633,-0.235657964,0.529881952,0.0106209107,0.10575366,0.0119727748
91373.332360,0.15162527,-0.279060249,0.362393635,-0.0148351807,0.108549453,0.0162191857
91373.342387,0.150997202,-0.303266104,0.23373686,-0.0180807747,0.106574714,0.0255152155
91373.352414,0.110959169,-0.32781142,0.173047121,-0.0312788673,0.110002205,0.0474356934
91373.362440,0.120655036,-0.363121657,0.165690913,-0.0418830402,0.114996433,0.0768529698
91373.372467,0.0997183384,-0.362664561,0.0737970576,-0.0442926697,0.117782898,0.103741042
91373.382494,0.0849517811,-0.313974106,-0.0661135174,-0.050585188,0.110858947,0.133318916
91373.392521,0.11622235,-0.272329917,-0.176904965,-0.0625036359,0.100253969,0.159538791
91373.402548,0.118892227,-0.189577984,-0.265236744,-0.085510686,0.0795175359,0.178165749
91373.412575,0.155376294,-0.126589175,-0.381965181,-0.114983357,0.0211642105,0.196015313
91373.422602,0.109258795,-0.116644704,-0.509051346,-0.118377551,-0.0563550815,0.22699666
91373.432629,0.039493806,-0.174013555,-0.679231971,-0.0702537,-0.118870124,0.291909903
91373.442656,-0.0748471147,-0.23614699,-0.771566556,0.0102177085,-0.141324028,0.373091042
91373.452682,-0.164115005,-0.210386964,-0.716954092,0.116481297,-0.129633024,0.438256711
91373.462709,-0.167510274,-0.0329880774,-0.642004941,0.250685424,-0.0925461054,0.479327202
91373.472736,-0.0503675206,0.240918076,-0.627305385,0.39693132,-0.0709657148,0.479402035
91373.482763,0.0732936016,0.606467618,-0.64633508,0.554239988,-0.0825517997,0.4484846
91373.492790,0.120021999,0.967100527,-0.704958533,0.703734696,-0.101556912,0.392682314
91373.502817,0.279591287,1.2897398,-0.661927201,0.749918699,-0.108119473,0.302612066
91373.512844,0.654662032,1.61448424,-0.271063843,0.607327223,-0.122252606,0.123688921
91373.522871,0.797103733,1.86744792,0.196180744,0.300817311,-0.17010881,-0.138242289
91373.532897,0.465790041,1.91340186,0.566458994,-0.100271523,-0.253781617,-0.400846213
91373.542924,0.304676537,1.590003,0.856164994,-0.399746388,-0.276953518,-0.594370425
91373.552951,0.231028715,1.04656599,0.893778393,-0.560574412,-0.237221539,-0.691270828
91373.562978,0.297337043,0.412237716,0.952975263,-0.638390064,-0.180127352,-0.694806457
91373.573005,0.11569345,-0.150517382,0.932142903,-0.617772162,-0.114264987,-0.646086574
91373.583032,-0.121731488,-0.574743277,0.807313577,-0.513581574,-0.0462308079,-0.551067948
91373.593059,-0.264478017,-0.885900353,0.650606181,-0.371418595,0.00940582249,-0.433210284
91373.603086,-0.32980011,-1.07835484,0.504030887,-0.183904618,0.0570708141,-0.291850477
91373.613112,-0.346701085,-1.19820441,0.338147667,0.0227396246,0.107510284,-0.135327205
91373.623139,-0.255223683,-1.20753908,0.239282803,0.22334969,0.147621751,0.0160530042
91373.633166,-0.158778631,-1.08936702,0.14751462,0.349081248,0.175386801,0.142660484
91373.643193,-0.0807595353,-0.851655042,0.153331198,0.373235852,0.193277925,0.222519621
91373.653220,0.00437012311,-0.543855314,0.19426585,0.317638367,0.19048214,0.24648568
91373.663247,0.125964686,-0.207735134,0.171160284,0.241213784,0.168578714,0.231530413
91373.673274,0.173334267,0.0850887054,-0.0136368957,0.19109416,0.138531595,0.184424952
91373.683301,0.330448564,0.318164909,-0.169604872,0.150523022,0.10677927,0.124810889
91373.693327,0.391353772,0.448010163,-0.264344179,0.101450823,0.0711323321,0.058646515
91373.703354,0.356595105,0.507734199,-0.32130233,0.0524598472,0.0313894413,-0.00450529158
91373.713381,0.36023463,0.487384142,-0.36844519,0.00718477648,0.000501832284,-0.0572768897
91373.723408,0.310913732,0.397769557,-0.360517319,-0.0273769274,-0.0319386646,-0.0940117389
91373.733435,0.241224877,0.27817499,-0.347394219,-0.0256738365,-0.0570235141,-0.107780278
91373.743462,0.21092476,0.113077513,-0.332702845,0.00343877473,-0.0726890191,-0.0972450823
91373.753489,0.186861748,-0.0230303086,-0.277415258,0.0408740304,-0.0834524557,-0.0738175213
91373.763515,0.0985255119,-0.115034565,-0.206096573,0.073968865,-0.0951104388,-0.0450002514
91373.773542,0.0284675677,-0.169721849,-0.141048639,0.112138093,-0.102754511,-0.0114904968
91373.783569,0.0410437571,-0.18558928,-0.0593172814,0.153488189,-0.0984300748,0.0183430314
91373.793596,0.0455325382,-0.169103206,0.00215747029,0.175651819,-0.0854642019,0.0389646888
91373.803623,0.0456284363,-0.130588035,0.127370827,0.171555072,-0.073572129,0.052200865
91373.813650,0.029418804,-0.0638392158,0.242739081,0.155676514,-0.0548146889,0.0554147698
91373.823677,0.0203935303,0.00116034902,0.299129077,0.126130342,-0.0348068923,0.0514951274
91373.833704,0.00776953802,0.0492095097,0.382969974,0.0978334546,-0.0118624261,0.0408635214
91373.843730,0.0241586916,0.106311672,0.381032284,0.0921505317,-0.00102336006,0.0296572074
91373.853757,-0.00467920732,0.141552789,0.341745399,0.1112675,0.0022952049,0.0146233961
91373.863784,-0.00360991586,0.161530359,0.287195478,0.141108483,0.0172909312,-0.00110177137
91373.873811,-0.0101665162,0.144817782,0.264089912,0.153202966,0.023918476,-0.0106787654
91373.883838,0.0158375841,0.101757662,0.246347335,0.14029409,0.0302884914,-0.0145451417
91373.893865,0.030467692,0.0426348805,0.2732558,0.103810385,0.0435294583,-0.016149696
91373.903893,0.0249646194,0.0104934831,0.274927533,0.0628245994,0.059682332,-0.0188069977
91373.913920,0.0317690935,-0.0354805518,0.241380652,0.018214792,0.0721139684,-0.0224792324
91373.923946,0.0312445582,-0.0693581984,0.17219898,-0.0127343368,0.0618829019,-0.0182024613
91373.933973,0.0196744771,-0.0734109809,0.0509188709,0.00187816215,0.0521096326,-0.0129397893
91373.944000,0.0248539438,-0.0858553058,-0.107286655,0.0366846099,0.0411794856,-0.0052592326
91373.954027,0.0479799679,-0.0800793528,-0.157300686,0.0613542721,0.0253917351,0.00806802511
91373.964054,0.0425125693,-0.0706507955,-0.162993929,0.0658467561,0.0109438207,0.015337389
91373.974081,0.038340252,-0.0394818233,-0.154997085,0.0599776842,-0.0127495248,0.0176844336
91373.984108,0.0103767614,-0.0337631534,-0.152105455,0.0525783561,-0.0241316073,0.0136963492
91373.994134,0.0289445011,0.0133623165,-0.144495565,0.050417468,-0.0312385224,0.0141978227
91374.004161,0.0330759018,0.00696026747,-0.130555302,0.0459699892,-0.0370580591,0.0164066479
91374.014188,0.0447266286,0.0321725963,-0.118510644,0.0460429601,-0.0491714478,0.0138151264
91374.024215,0.0381703571,0.0658810238,-0.112288993,0.0543725267,-0.0687563345,0.00946218986
91374.034242,0.0764471885,0.0928965296,-0.130728321,0.0724940076,-0.0786877945,0.00264289929
91374.044269,0.129621729,0.104754068,-0.093340547,0.0793077052,-0.0858061537,-0.00220192317
91374.054296,0.105503315,0.0992770974,-0.0188444012,0.0741305202,-0.0904304683,-0.00672157388
91374.064322,0.128873651,0.0825061415,0.03806465,0.0685836896,-0.0903159529,-0.0132926581
91374.074349,0.137698014,0.0783411308,0.0891816738,0.0612149872,-0.0845952183,-0.0179593153
91374.084376,0.112466688,0.065401862,0.147432203,0.0477591008,-0.0740741342,-0.023635041
91374.094403,0.128059156,0.0330809433,0.181499307,0.0423763171,-0.0602523312,-0.0234907009
91374.104430,0.163458386,-0.0195365482,0.212764799,0.0310011599,-0.0463772602,-0.0203084908
91374.114457,0.157800306,-0.0242653303,0.240088859,0.022990372,-0.0406650454,-0.0164708756
91374.124484,0.172311756,-0.0220957311,0.228517664,0.0250684377,-0.0268546902,-0.0169118941
91374.134510,0.227027498,-0.0440270655,0.22231764,0.0173364822,-0.01294793,-0.0209015757
91374.144537,0.221643394,-0.0789646695,0.264610137,-0.00562422909,-0.000326410867,-0.0229828358
91374.154564,0.185351161,-0.103939829,0.258227742,-0.028221149,0.000795046333,-0.0150372935
91374.164591,0.203187371,-0.167577384,0.196482357,-0.0296584573,-0.000802583992,0.000979755074
91374.174618,0.22056022,-0.211052807,0.126143915,-0.0184412226,0.00168560736,0.0171992052
91374.184645,0.163018515,-0.24591815,0.0588379734,-0.0139916148,0.000474667992,0.0388304628
91374.194672,0.133758391,-0.252930074,0.0581418078,-0.022071911,0.000309285708,0.0594587773
91374.204698,0.118573864,-0.217605736,0.0606774638,-0.0296741705,0.0047272034,0.0781805366
91374.214725,0.116821759,-0.176997101,0.0244984814,-0.0310821831,0.00327498186,0.0897895172
91374.224752,0.0576812046,-0.102564522,-0.0211778126,-0.0342039429,-0.0158659555,0.0949118435
91374.234779,0.0269524505,-0.00495053508,-0.119611299,-0.00982430018,-0.0283694975,0.0882749781
91374.244806,-0.0144755385,0.0724230658,-0.174752756,0.00715308497,-0.0375685878,0.0771227255
91374.254833,-0.0606604761,0.138958024,-0.140029233,0.00588328997,-0.0427716076,0.0672951266
91374.264859,-0.0808172568,0.17048107,-0.0684042587,-0.00725914352,-0.0482800901,0.0575426333
91374.274886,-0.10397669,0.223603734,-0.00965980875,-0.0126211522,-0.0541502275,0.0487193167
91374.284913,-0.149486578,0.263002336,-0.0293716404,0.00255380617,-0.0649682507,0.036607258
91374.294940,-0.151444562,0.296463511,-0.0683048899,0.0253256988,-0.074681066,0.0268294625
91374.304967,-0.157742877,0.33487544,-0.0598082798,0.0282684918,-0.0785325319,0.0092581911
91374.314994,-0.166673695,0.352413654,0.0161322196,0.00794191379,-0.0792292133,-0.0102939392
91374.325021,-0.202282458,0.332498628,0.108341132,-0.0163293369,-0.080382891,-0.0297485963
91374.335047,-0.189288482,0.30794301,0.145536014,-0.0259990077,-0.0810350999,-0.0409876667
91374.345074,-0.124478585,0.250863205,0.136523855,-0.0233068187,-0.0760278255,-0.0506655946
91374.355101,-0.0677031064,0.213598692,0.144924019,-0.0168534461,-0.0671275407,-0.0622117296
91374.365128,-0.0219471895,0.169576888,0.189220257,-0.0242509097,-0.0555414632,-0.0739919543
91374.375155,0.00450392382,0.122938032,0.261689281,-0.0546064191,-0.0387731381,-0.0853370205
91374.385182,0.0100084852,0.0644636313,0.304769129,-0.0959181711,-0.0210798942,-0.0921139717
91374.395209,0.0632580914,-0.000231032277,0.340255453,-0.119639218,-0.00946238451,-0.0906207338
91374.405235,0.114265444,-0.0653037354,0.29891748,-0.110447578,-0.00683198031,-0.083965227
91374.415262,0.147221428,-0.127930141,0.189800687,-0.083617568,-0.00375336641,-0.0745658651
91374.425289,0.179142296,-0.140324197,0.114863227,-0.0435564332,0.0046395855,-0.0608788207
91374.435316,0.240090576,-0.160573424,0.147329911,-0.0204116963,0.018034488,-0.0505742468
91374.445343,0.315220563,-0.154771167,0.188521169,-0.0257337578,0.0351466276,-0.0437208712
91374.455370,0.362642422,-0.171317301,0.2199211,-0.0374223739,0.0457867533,-0.0389293097
91374.465396,0.357615461,-0.177703715,0.189624162,-0.0453130528,0.0490629748,-0.0330306739
91374.475423,0.290794708,-0.183735907,0.0826525642,-0.0566392094,0.0438964441,-0.0228118598
91374.485450,0.181703653,-0.182811705,0.0013911621,-0.0693179891,0.0454863496,-0.0119325807
91374.495477,0.147198284,-0.185211533,-0.045876785,-0.0907292739,0.0421965457,-0.00277743209
91374.505504,0.0634109987,-0.154346658,-0.0679500852,-0.104374774,0.032648582,0.0071721375
91374.515531,-0.0091854875,-0.120063938,-0.1446113,-0.0971605405,0.0148655912,0.0118750129
91374.525558,-0.0216118018,-0.0625575054,-0.227621007,-0.0827520415,-0.0170968696,0.016344063
91374.535584,-0.0767900472,-0.0295236892,-0.306799173,-0.0471149497,-0.0447125174,0.0248688422
91374.545611,-0.094675321,0.00354848626,-0.334991833,-0.0149066774,-0.0672055706,0.0275586359
91374.555638,-0.042073292,0.0500385809,-0.252903917,-0.0110043474,-0.0868256167,0.026319731
91374.565665,-0.00906852832,0.0772660489,-0.121928344,-0.0296544638,-0.099898003,0.0231588259
91374.575692,0.0312967998,0.119744862,-0.00443184497,-0.0375760384,-0.102295652,0.0109748654
91374.585719,0.0413880496,0.151704912,0.0836380682,-0.0437156893,-0.0997962728,-0.00131402537
91374.595745,0.0806900959,0.172603761,0.133110247,-0.0431460403,-0.0897188708,-0.0156074772
91374.605772,0.0687793665,0.16011662,0.192837279,-0.033461988,-0.0696436986,-0.0218158364
91374.615799,0.0897639032,0.127943585,0.254264684,-0.0297884196,-0.0494574718,-0.0275434963
91374.625826,0.124260138,0.136871938,0.298180398,-0.037323039,-0.0300992206,-0.0302953422
91374.635853,0.0983585761,0.106473877,0.314946824,-0.0504039526,-0.0162979215,-0.0351401642
91374.645880,0.0396254239,0.0662671736,0.312509368,-0.0596224852,-0.00531025045,-0.0385687202
91374.655906,0.0445963624,0.0292612389,0.292872355,-0.0559084378,0.00932461862,-0.0332519822
91374.665933,0.0757386293,0.00136507781,0.251166133,-0.0457994603,0.0208264496,-0.0252003185
91374.675960,0.0649288833,-0.0268930484,0.205852243,-0.0251961816,0.0292433705,-0.0179892778
91374.685987,0.101014086,-0.0393720062,0.16707623,-0.00938579254,0.0444111377,-0.00977901649
91374.696014,0.102586122,-0.0220114869,0.149548756,0.00386023824,0.0497220159,-0.00213334803
91374.706041,0.0591493318,-0.023479952,0.112398883,0.0265485048,0.0511814281,-0.00187049434
91374.716067,0.0840911639,0.00299625921,0.0266997909,0.0466684215,0.0428550541,-0.00450862106
91374.726094,0.0885379964,0.0144723236,0.000120411509,0.053016331,0.0339225456,-0.00891748536
91374.736121,0.124857027,0.0207893978,0.00487082091,0.0356551856,0.0287629366,-0.0128182163
91374.746148,0.156836831,0.0225520235,0.0556423922,0.0106627503,0.0241205133,-0.0189506784
91374.756175,0.128335315,0.00803388805,0.0674327833,-0.0099684922,0.0207665283,-0.0270530805
91374.766202,0.157224113,0.00818009159,0.0589034399,-0.0238997545,0.0194677059,-0.0288427249
91374.776228,0.162753343,-0.00981083459,0.085929394,-0.0292071681,0.0227889344,-0.0269129984
91374.786255,0.173963761,-0.0276557764,0.116852355,-0.0270710476,0.0305421948,-0.0157088116
91374.796282,0.161486776,-0.0694727647,0.107170335,-0.0226725694,0.0388651043,-0.00413551275
91374.806309,0.142380125,-0.055145914,0.116893857,-0.0200504214,0.050859984,0.00827029068
91374.816336,0.113567452,-0.0592011807,0.0881429784,-0.0224488638,0.0572864562,0.0187154748
91374.826363,0.0649272941,-0.029940161,0.0426209981,-0.0183039214,0.050735347,0.0262498222
91374.836389,0.0776463352,0.0155848149,-0.0743774879,0.00237525953,0.0386781506,0.0287843533
91374.846416,0.023122389,0.0681085637,-0.152414667,0.0315738916,0.0276515987,0.0217914246
91374.856443,0.000809307089,0.111389852,-0.213710555,0.0416867137,0.00255263783,0.0119212186
91374.866470,0.0391889048,0.106778048,-0.21029344,0.0277309492,-0.0237183813,-0.000160744414
91374.876497,0.0592713599,0.101018315,-0.161500476,0.00978923403,-0.0361175276,-0.0151639292
91374.886524,0.0638134968,0.0872447874,-0.0997469069,-0.0203902405,-0.0437892936,-0.0248951204
91374.896550,0.0836479685,0.0260238644,-0.0193757316,-0.0621161163,-0.047632236,-0.0310230553
91374.906576,0.0905466511,-0.0246674813,0.0631254415,-0.0839103535,-0.0505981967,-0.0276459008
91374.916603,0.0604655198,-0.0690091658,0.0796504598,-0.0675548166,-0.0464764237,-0.0200939737
91374.926630,0.0814570983,-0.105747901,0.104286888,-0.0336964577,-0.0429986008,-0.0072367629
91374.936657,0.0847380561,-0.108794721,0.131745973,0.000477224763,-0.0486836508,0.00441350089
91374.946684,0.0645604427,-0.0949632528,0.178327692,0.0343587585,-0.0427498631,0.0118482476
91374.956710,0.0507752611,-0.0793711314,0.243687176,0.0438143127,-0.0306889378,0.0174973458
91374.966737,0.0556116866,-0.043892041,0.356205301,0.0236211587,-0.00997966528,0.0167567208
91374.976764,0.0209566532,-0.026194764,0.448470328,-0.00947847031,0.0117400112,0.00916378107
91374.986791,0.00359501968,-0.00368175725,0.460300467,-0.0269245729,0.0296239369,0.00390803302
91374.996818,0.0364944141,-0.00209741067,0.39180853,-0.0210613571,0.0469336845,0.00389684783
91375.006844,0.0684891787,-0.00582899841,0.308725757,-0.0213780068,0.0644138753,0.00418979535
91375.016871,0.0877698799,0.00335004108,0.295053206,-0.0542954765,0.0778298154,0.00378100015
91375.026898,0.0881572991,0.0030118221,0.271969852,-0.0887165666,0.0867759064,-0.00059697032
91375.036925,0.0806828168,0.0135508248,0.170864516,-0.108062297,0.0895551816,-0.00603807438
91375.046952,0.0851947595,0.0318958982,0.0683417148,-0.110910282,0.0848344639,-0.00582875032
91375.056979,0.111366818,0.0162762312,-0.0101554833,-0.098147884,0.0799824446,0.000790270045
91375.067005,0.139611976,0.0140126702,-0.103131873,-0.0844816044,0.0695122331,0.0134868901
91375.077032,0.149399941,0.0287789352,-0.184776137,-0.0522634834,0.0534608252,0.0250924155
91375.087059,0.140504011,0.0942065162,-0.273760243,-0.0119874338,0.037155088,0.035060361
91375.097086,0.166876762,0.179050088,-0.343778951,0.032837294,0.0144697512,0.0402806886
91375.107113,0.205259227,0.320580446,-0.406560109,0.0837468207,-0.00266928831,0.0282847434
91375.117140,0.16551172,0.475820034,-0.446315781,0.108848445,-0.0279669221,0.00258737151
91375.127166,0.0804733753,0.571603956,-0.398346407,0.119815342,-0.0585064553,-0.0280096866
91375.137193,0.0708743386,0.635021878,-0.348202612,0.131447762,-0.077113159,-0.0561651587
91375.147220,0.101917291,0.640261239,-0.297258022,0.14600113,-0.0957201347,-0.0973229781
91375.157247,0.00159022833,0.611523294,-0.261640181,0.140312359,-0.12204282,-0.125256881
91375.167274,0.115365834,0.494348721,-0.125763976,0.116226733,-0.124894805,-0.157046497
91375.177300,0.0839118253,0.380161054,0.0926321065,0.087927714,-0.118607871,-0.187048867
91375.187327,-0.0212574811,0.244372747,0.220927647,0.0559444763,-0.0965787396,-0.204651296
91375.197354,0.0171896563,0.0483776619,0.368070511,0.0517907441,-0.0758806542,-0.200799301
91375.207381,0.0737376282,-0.121222168,0.390737101,0.0737434551,-0.0536001138,-0.186446458
91375.217408,0.0357945405,-0.235749442,0.395007034,0.100509286,-0.0323920287,-0.173627079
91375.227435,-0.0251303222,-0.351647273,0.437848396,0.0997060761,-0.0100414511,-0.153638989
91375.237461,-0.0768614958,-0.453205467,0.517967058,0.0607363023,0.0203252435,-0.128990635
91375.247488,-0.0686743078,-0.514907013,0.597989859,-0.00549837574,0.0499206856,-0.0998356715
91375.257515,-0.075803292,-0.546637711,0.608286796,-0.0580675788,0.0684696063,-0.0664433613
91375.267542,-0.0513529058,-0.505503517,0.496303508,-0.0641361177,0.0803022906,-0.0397933759
91375.277569,-0.0734424629,-0.421039593,0.31295828,-0.0367574953,0.0833319053,-0.0158094801
91375.287596,-0.0752374474,-0.333450668,0.203043615,-0.00151455356,0.0782388747,0.00795071106
91375.297622,-0.0290604008,-0.25370537,0.147850136,0.0305736065,0.0797025487,0.0252759047
91375.307649,-0.0136533902,-0.12127536,0.139271108,0.0371436253,0.0790649876,0.0315103643
91375.317676,0.00513515267,-0.00405190574,0.15674539,0.0284350887,0.0824772939,0.0274162889
91375.327703,0.0141106141,0.0842304811,0.138873633,0.00863102544,0.0988866314,0.0159577709
91375.337730,0.0557409024,0.166354126,0.108785369,-0.0131975748,0.099900499,0.000252578408
91375.347756,0.0364628043,0.224497687,-0.0185270058,-0.0293472502,0.0937171653,-0.00274427701
91375.357783,0.210952416,0.250289351,-0.0535889668,-0.0295749512,0.0916974247,-0.0274525546
91375.367810,0.151834548,0.309972616,-0.0993979473,-0.0328248069,0.0760175362,-0.0563406572
91375.377837,0.0647642765,0.303380232,-0.132603467,-0.0333752818,0.0628521964,-0.0766339451
91375.387864,0.160907916,0.234323135,-0.132343355,-0.0484780669,0.0438518748,-0.0899108723
91375.397890,0.167189353,0.159741138,-0.0806283649,-0.0775667056,0.0249463599,-0.0996199548
91375.407917,0.115845663,0.0564009555,-0.0505932922,-0.105804734,0.0158820245,-0.105075441
91375.417944,0.147583521,-0.0353466232,-0.00996609822,-0.129464522,0.0101530338,-0.105545759
91375.427971,0.164699052,-0.131045058,0.0190483993,-0.14919962,0.00596760958,-0.101186164
91375.437998,0.164218813,-0.203685932,0.0288987622,-0.160535634,-0.00252148299,-0.0963021889
91375.448025,0.153879918,-0.22798721,0.0380272406,-0.156334221,-0.0110297501,-0.0973027423
91375.458051,0.161722813,-0.268797871,0.0285351896,-0.146097824,-0.0208437648,-0.0952268094
91375.468078,0.133942862,-0.318794805,0.0806301185,-0.14362216,-0.0269242935,-0.0838284791
91375.478105,0.193682168,-0.392660032,0.159787826,-0.146997184,-0.0254947096,-0.0640217513
91375.488132,0.185459589,-0.443091631,0.240194073,-0.165187642,-0.0130066145,-0.0470560826
91375.498159,0.132616399,-0.417847373,0.322547362,-0.192617401,-0.00191588025,-0.0329722203
91375.508185,0.0898793372,-0.404711339,0.358733943,-0.23159489,0.00814847182,-0.014192407
91375.518212,0.0612688538,-0.411970663,0.365995459,-0.271572679,0.0243961513,0.0100109326
91375.528239,0.037217075,-0.363190338,0.371148019,-0.296000779,0.0469238311,0.038369339
91375.538266,0.0563221364,-0.316016791,0.293819865,-0.299458385,0.0621528514,0.0638129115
91375.548293,0.00785480515,-0.231910448,0.163081607,-0.287717551,0.0654112324,0.0800906867
91375.558319,-0.0320300095,-0.136607807,0.0527688826,-0.259057164,0.0604140721,0.0924746469
91375.568346,0.0425137566,-0.0504076334,-0.00324000483,-0.212720007,0.0589796938,0.104173653
91375.578373,0.0623788426,0.041942149,-0.0898866072,-0.153302208,0.0592257716,0.115038283
91375.588400,0.0901936455,0.152367979,-0.162575996,-0.093797341,0.0512535982,0.116129644
91375.598427,0.100992742,0.279744724,-0.195034496,-0.0488647595,0.0440478846,0.110877089
91375.608453,0.0290784844,0.397020127,-0.199323133,0.0115903299,0.0200559981,0.0889661983
91375.618480,-0.0644355194,0.441404262,-0.39587914,0.050646916,-0.000513992156,0.0869861394
91375.628507,0.342399844,0.487611229,-0.25288229,0.0629240945,-0.0111786202,0.0535237864
91375.638534,0.0487037886,0.600849194,-0.177079737,0.0570238568,-0.00993998442,0.00773472898
91375.648561,-0.0411593281,0.610953458,-0.117947165,0.032562457,-0.0117477383,-0.0221941397
91375.658588,0.135796034,0.519635284,-0.0231347919,-0.00246050837,-0.0129610738,-0.0437617525
91375.668614,0.147641991,0.422547951,0.0387912107,-0.0221260637,-0.00536531489,-0.0568366572
91375.678641,0.148866948,0.375001114,0.0360959803,-0.0187241416,-0.00153462356,-0.0709367618
91375.688668,0.123098447,0.299157134,-0.0293646262,0.00234705419,-0.0112740705,-0.0778308883
91375.698695,0.135391892,0.187213593,-0.111747141,0.0426555946,-0.0245661736,-0.0821089894
91375.708722,0.133086629,0.0913029037,-0.142438048,0.0752407014,-0.0316344686,-0.0759086162
91375.718748,0.16112324,-0.00628653292,-0.077038816,0.0832323134,-0.0311303344,-0.0598795861
91375.728775,0.160456702,-0.0837235545,0.0244096341,0.0791555494,-0.0308424439,-0.0481294505
91375.738802,0.115866979,-0.127721248,0.088332948,0.0707982853,-0.0278533138,-0.0392121226
91375.748829,0.0860521253,-0.157045542,0.0924415523,0.0631845742,-0.0253781714,-0.0322681963
91375.758856,0.0849609873,-0.166107166,0.12456746,0.0550499447,-0.0201224238,-0.0256451815
91375.768882,0.0806360551,-0.187494383,0.173027247,0.0496884696,-0.00979095604,-0.0136324605
91375.778909,0.0822332063,-0.201318472,0.237965291,0.0415743515,0.0020156363,-0.00294040143
91375.788936,0.110048813,-0.178504071,0.284071209,0.0339957923,0.0124001,0.00342268962
91375.798963,0.068980652,-0.1530035,0.307458514,0.0266734324,0.0231574066,0.00370818051
91375.808990,0.0493896703,-0.136155387,0.345657604,0.0257559735,0.0354731977,0.00314412266
91375.819016,0.069431428,-0.127858537,0.322289588,0.0331193469,0.0475138798,0.00928563811
91375.829043,0.068176149,-0.152842756,0.293008548,0.0380187631,0.0638225451,0.0188146941
91375.839070,0.0725112739,-0.146580043,0.268875978,0.04201537,0.0751305968,0.0305339359
91375.849097,0.0949097873,-0.122269704,0.223015559,0.0351928845,0.0848436728,0.0386701599
91375.859124,0.101847825,-0.101567035,0.188922151,0.00821825862,0.0923005268,0.0457419194
91375.869150,0.0979660879,-0.0412670262,0.158771343,-0.0250795092,0.092807062,0.0454779975
91375.879177,0.0809335584,0.0174406719,0.0887152253,-0.0468825437,0.0927902833,0.041187115
91375.889204,0.0772756204,0.0904717136,-0.0167331081,-0.042878747,0.0838537812,0.0310942642
91375.899231,0.073857446,0.130235496,-0.154134915,-0.0190647598,0.0710394457,0.0257618167
91375.909258,0.0878820259,0.148489895,-0.233769593,0.00850641262,0.0553142801,0.0229543131
91375.919284,0.104130894,0.155631364,-0.278196179,0.0210696105,0.0359853245,0.0170295797
91375.929311,0.08193879,0.143547909,-0.273633986,0.0123200594,0.0184116531,0.0119093852
91375.939338,0.0737318834,0.158445983,-0.212181446,-0.0129006086,0.00705833174,0.00510634016
91375.949365,0.0917340616,0.193286264,-0.187606977,-0.0348178931,-0.0121518485,-0.00205063913
91375.959392,0.0683371848,0.20039522,-0.209136671,-0.0280856863,-0.0295553394,-0.0150404731
91375.969418,0.0628880525,0.219125128,-0.251401696,0.000441562443,-0.0416934937,-0.0237141214
91375.979445,0.0746381481,0.188536001,-0.281459565,0.0400185324,-0.058422938,-0.0251418427
91375.989472,0.0534555132,0.168208887,-0.246878665,0.0590351,-0.0775404423,-0.0281307064
91375.999499,0.0191627464,0.114020785,-0.134038468,0.0536243543,-0.0876348838,-0.0272617191
91376.009526,-0.00308784648,0.0874836377,-0.00601940642,0.0450002402,-0.0877350196,-0.0253812596
91376.019552,0.0151392996,0.0673500734,0.0582955371,0.0385271609,-0.0837029964,-0.0265197605
91376.029579,0.038734439,0.0709928139,0.110032154,0.0384171717,-0.0725336969,-0.0290196724
91376.039606,0.0504384487,0.0553344953,0.157381934,0.040337313,-0.0642054603,-0.0316530056
91376.049633,0.105707788,0.0395974125,0.187331082,0.0399117395,-0.0518302843,-0.0376488455
91376.059660,0.143172463,0.0314494696,0.226594587,0.0235407576,-0.041704677,-0.0418308079
91376.069686,0.130901704,0.024402766,0.252177356,0.00624565594,-0.0314613618,-0.0500661023
91376.079713,0.121308476,0.00855652368,0.283100318,-0.0125344237,-0.0226846505,-0.0510136522
91376.089740,0.140191949,-0.0393292631,0.27866029,-0.025039563,-0.0162174292,-0.0526688062
91376.099767,0.129912511,-0.082778821,0.27022973,-0.0328128003,-0.00507183373,-0.0508232377
91376.109794,0.0795123117,-0.150950805,0.234529471,-0.0214610733,0.00419410225,-0.0369068906
91376.119820,0.0589060337,-0.212053363,0.141680507,-0.0035923277,0.0105329575,-0.0116012665
91376.129847,0.0642134194,-0.253412232,0.0697819768,0.0145991929,0.0125409812,0.0170831084
91376.139874,0.0767147169,-0.235496782,0.0372621014,0.0276492164,0.0132672256,0.0368679985
91376.149901,0.0667453855,-0.179785489,0.0165220957,0.025969293,0.015171119,0.0478064008
91376.159928,0.0803365972,-0.104076899,0.000933481458,0.0143315447,0.0061632432,0.0504317433
91376.169954,0.114566546,-0.029695977,-0.0389314959,0.00308714667,-0.0044976566,0.0469230302
91376.179981,0.129477955,0.0610720891,-0.0664589698,0.0070717684,-0.0218710545,0.0367894359
91376.190008,0.100264775,0.126658002,-0.107467272,0.019908471,-0.042761419,0.0290630721
91376.200035,0.0940285293,0.156240144,-0.132539754,0.0357273817,-0.0537687987,0.0212192647
91376.210062,0.100949396,0.160223661,-0.0716074386,0.0332706124,-0.0544785298,0.0103530334
91376.220088,0.107130825,0.163021548,0.0130354227,0.0172714088,-0.0495980196,-6.63176179e-05
91376.230115,0.0735661532,0.16504772,0.0720364777,0.003852539,-0.0437430628,-0.00876499992
91376.240142,0.0652011335,0.156073628,0.103095048,0.00409275666,-0.0428740717,-0.0114441412
91376.250169,0.0717701732,0.124894573,0.0782984607,0.010872365,-0.0496725887,-0.0113698384
91376.260196,0.0714637741,0.102545963,0.0289431859,0.0438628048,-0.040876437,-0.0118143195
91376.270222,0.0708068994,0.0805214705,0.0618546909,0.0565548986,-0.0357804783,-0.0123064732
91376.280249,0.0411107214,0.0592972615,0.132912094,0.050842151,-0.0344305187,-0.0121426871
91376.290276,0.0270443665,0.0407671139,0.213122526,0.0443208665,-0.0261110738,-0.0145504521
91376.300303,0.0392661895,0.0505458728,0.243383809,0.0308679137,-0.00750543084,-0.0183252171
91376.310329,0.037117688,0.058427566,0.328990547,0.000106270425,0.0121409744,-0.0258262753
91376.320356,0.0409758612,0.0542706655,0.425596233,-0.0394142419,0.0382721797,-0.0342282802
91376.330383,0.0552183764,0.0533414949,0.50163201,-0.0732736737,0.0629122779,-0.0428494662
91376.340410,0.0453066205,0.0526176376,0.472163923,-0.0890576914,0.074103944,-0.0535298064
91376.350437,0.0031755065,0.065454542,0.321053909,-0.0829531997,0.0724469274,-0.0622418076
91376.360463,-0.00158966208,0.0467440694,0.180634215,-0.0668466687,0.0569934025,-0.0643169433
91376.370490,0.0201400305,-0.00107113636,0.0609270546,-0.0515089892,0.0412248261,-0.0643699393
91376.380517,0.0507986055,-0.0440082147,-0.0102080903,-0.0453403071,0.0343283042,-0.0536411293
91376.390544,0.0936834787,-0.0842518892,-0.0348223071,-0.037653625,0.0297476649,-0.042865444
91376.400571,0.0766309293,-0.0714614543,-0.12956103,-0.0244808309,0.0211552419,-0.0365140736
91376.410597,0.0716924683,-0.0745968297,-0.206337981,-0.0239652433,0.00864690728,-0.0328245312
91376.420624,0.0709766116,-0.0808100051,-0.22281273,-0.0115876701,-0.0120597025,-0.0290178061
91376.430651,0.084277462,-0.10490334,-0.272657834,-0.011615633,-0.0308791976,-0.0174343884
91376.440678,0.122521469,-0.152601057,-0.252563141,-0.00866298657,-0.0574101396,-0.00167859532
91376.450705,0.124941116,-0.163686222,-0.271525615,0.00900655426,-0.0815873817,0.0120699732
91376.460731,0.118332822,-0.130680828,-0.284587341,0.0323725976,-0.108455211,0.0190474559
91376.470758,0.158591858,-0.0878230257,-0.232504103,0.0465038605,-0.123941496,0.0264832675
91376.480785,0.138981094,-0.0572971006,-0.156647775,0.0433685221,-0.133917436,0.0309877396
91376.490812,0.139176507,-0.0327082375,-0.0213473239,0.0316751152,-0.132010072,0.0316444747
91376.500839,0.141701459,-0.018137422,0.0897872384,0.0159784444,-0.115925111,0.030985076
91376.510865,0.148055888,0.00164177586,0.155939919,0.00218646554,-0.104153141,0.0282918215
91376.520892,0.124450154,0.0238995657,0.195679808,-0.0132063394,-0.0928983539,0.0245082676
91376.530919,0.101857287,0.0491534686,0.230849322,-0.0252017491,-0.0819232017,0.018848516
91376.540946,0.079275215,0.0449206534,0.248699451,-0.0301935785,-0.070202902,0.0133898361
91376.550972,0.037367699,0.059069371,0.28795068,-0.0322335623,-0.0497098751,0.0119330864
91376.560999,0.0279743957,0.0484161673,0.320429055,-0.0341987088,-0.0300536174,0.0133978259
91376.571026,0.0321837022,0.0433414944,0.34974575,-0.0363121927,-0.00874939375,0.0163613912
91376.581053,0.0458483627,0.0466807949,0.352377852,-0.0289197881,0.0132067716,0.0150529798
91376.591080,0.0299555595,0.0733657535,0.316753581,-0.0201260298,0.0269092675,0.0120364176
91376.601106,0.0158282683,0.102022816,0.245730664,-0.0102126803,0.0337317549,0.00395452278
91376.611133,0.00447131846,0.130010309,0.166855281,-0.00424160622,0.0344987474,-0.00609917659
91376.621160,0.0555233872,0.134862059,0.123272744,-0.000215439417,0.0283729415,-0.014051375
91376.631187,0.0779395825,0.131717624,0.04212357,0.00223999494,0.021442065,-0.0221993178
91376.641214,0.0778934966,0.128675114,-0.0177753107,-0.000707325235,0.0160523597,-0.0304790847
91376.651240,0.0904670009,0.0967656261,-0.0232709855,-0.0176191963,0.00800987892,-0.0394352935
91376.661267,0.0825903492,0.0480969453,-0.00332417599,-0.0401434153,0.00384629332,-0.0408768617
91376.671294,0.090020554,-0.0114501262,0.00597790537,-0.0514301993,0.00300860591,-0.0344013125
91376.681321,0.124597892,-0.0681497724,-0.0201367791,-0.0520403311,-0.00137229403,-0.0217917766
91376.691348,0.120936465,-0.0873779123,-0.0612473726,-0.037269108,-0.0161645561,-0.00916519761
91376.701374,0.134729209,-0.0662180737,-0.090803722,-0.00986544788,-0.0359627604,-0.00711722672
91376.711401,0.102708734,-0.0273729409,-0.160938165,0.0216328241,-0.059872888,-0.00885493867
91376.721428,0.0915910182,-0.013238471,-0.190927061,0.0326492563,-0.0834969878,-0.0134875067
91376.731455,0.0944859724,-0.0202838594,-0.147764796,0.029231621,-0.0921037942,-0.0142310616
91376.741481,0.0887427983,-0.0701071901,-0.11363164,0.00693190843,-0.0983566344,-0.00775079243
91376.751508,0.104199064,-0.0955442676,-0.0842711054,-0.0150950961,-0.107027881,-0.00189023931
91376.761535,0.102714059,-0.0875557531,-0.0661801529,-0.0155560896,-0.116581708,-0.011967374
91376.771562,0.0209851396,-0.113990098,-0.0785053814,-0.0218539331,-0.115809925,0.000179302879
91376.781589,0.113090026,-0.16212796,0.00571019434,-0.057666257,-0.145003751,0.0103773456
91376.791615,0.151897037,-0.15806451,-0.0200233819,-0.0208943952,-0.151322633,0.0189553872
91376.801642,0.117000048,-0.111171899,-0.131539052,0.0177254342,-0.156899825,0.0193367526
91376.811669,0.153880904,-0.0905613646,-0.0113332949,-0.0107647963,-0.15996033,0.0200329013
91376.821696,0.120914408,-0.101601449,0.199038471,-0.0807694495,-0.156441763,0.0271006655
91376.831723,0.289486859,-0.121085244,0.284354702,-0.0763011947,-0.136048868,0.0448162779
91376.841749,0.273819517,-0.115074971,0.170183548,-0.0503233895,-0.115940422,0.0604823232
91376.851776,0.224662888,-0.0996009956,0.143265146,-0.0418111309,-0.101993181,0.0774099082
91376.861803,0.175104802,-0.0865853006,0.159871998,-0.0475153551,-0.0852504149,0.0906713903
91376.871830,0.129122109,-0.0197416423,0.185491007,-0.0516717508,-0.0633198172,0.0988398343
91376.881856,0.0968496876,0.0231828688,0.179689043,-0.0522651002,-0.0522493236,0.111378267
91376.891883,0.113200802,0.0942704483,0.131773446,-0.0304072071,-0.0427013598,0.117239609
91376.901910,0.0710651758,0.191146695,0.020495091,0.0131157693,-0.0445788875,0.116292596
91376.911937,0.0288446597,0.276972117,-0.120437228,0.0621267185,-0.057086423,0.103279859
91376.921964,0.0489567679,0.323090529,-0.162169169,0.113043964,-0.0708331242,0.0856691748
91376.931990,0.0271993927,0.361337696,-0.151173727,0.1171178,-0.0750265419,0.0731073022
91376.942017,0.0815530603,0.364746481,-0.0435948116,0.0930135325,-0.0852221847,0.0466485359
91376.952044,0.0277122467,0.376536726,0.0309036723,0.073339425,-0.0842341557,0.0209839158
91376.962071,0.0337786935,0.352617287,0.0693996994,0.0721609816,-0.0801344812,0.00140915066
91376.972098,0.0594837148,0.304076178,0.0639946255,0.0871487185,-0.0834730193,-0.0131439585
91376.982124,0.0259028501,0.236178115,0.0563379733,0.107738413,-0.0903466418,-0.0263756104
91376.992151,0.00366438599,0.172171507,0.0858101515,0.114741996,-0.0901746005,-0.0332937017
91377.002178,0.036986061,0.0970975614,0.197605808,0.100442417,-0.0751072317,-0.0364958867
91377.012205,0.0477688641,0.026444574,0.329174671,0.0732771084,-0.0496237129,-0.0354993306
91377.022231,0.00100720428,-0.019987653,0.419072969,0.0458580032,-0.0248706955,-0.033728864
91377.032258,0.0135393353,-0.0894970964,0.431499904,0.0276710093,0.000847450749,-0.0287982859
91377.042285,0.0416417687,-0.112802423,0.409655152,0.0143637266,0.0240025707,-0.0259550959
91377.052312,0.031591408,-0.146204341,0.396748324,0.00711007416,0.0414795652,-0.0247526802
91377.062339,0.0353422393,-0.173906295,0.417871776,0.00205246476,0.0601153001,-0.0210365038
91377.072365,0.054510082,-0.199204768,0.439060695,-0.00686299941,0.0857072175,-0.0108211506
91377.082392,0.0836341957,-0.239602391,0.464397965,-0.0187612046,0.112306863,0.00313301478
91377.092419,0.0790265192,-0.289625336,0.440273578,-0.0249352101,0.131094679,0.0221509151
91377.102446,0.0911118381,-0.294009688,0.354057768,-0.0202978477,0.14648135,0.0444967002
91377.112472,0.1042383,-0.265764275,0.223878313,0.00513693783,0.149965838,0.0578207597
91377.122499,0.0488119754,-0.213856247,0.0685609105,0.00497128908,0.146114901,0.0739243627
91377.132526,0.120641647,-0.171768991,-0.00558919831,-0.0133882761,0.129337251,0.0880052894
91377.142553,0.0901894352,-0.0913613559,-0.107626262,-0.0229045507,0.108135827,0.0879834592
91377.152580,0.0637611182,-0.00324950332,-0.225348386,-0.0232491624,0.0825202093,0.0846057683
91377.162606,0.0913077534,0.049215501,-0.287583016,-0.0248987246,0.0638181567,0.084779948
91377.172633,0.144792447,0.106370271,-0.304243059,-0.0410433412,0.0342469513,0.0748034716
91377.182660,0.129817389,0.203858512,-0.279519537,-0.0465275869,0.00905797631,0.0513103977
91377.192687,0.0489848797,0.290515782,-0.323025501,-0.0423874371,-0.0290111117,0.0300256144
91377.202714,0.0780651086,0.307520035,-0.364116805,-0.011579724,-0.0595517121,0.0148871429
91377.212740,0.0957496996,0.2992972,-0.370607921,0.0260613952,-0.0747245401,0.00467152288
91377.222767,0.0787090325,0.28866482,-0.290804316,0.0382091366,-0.0827228129,-0.00580908079
91377.232794,0.0644700291,0.243281371,-0.126494044,0.0385420322,-0.0867385939,-0.012996953
91377.242821,0.0417916483,0.198965041,-0.0440472315,0.0370013937,-0.0916651711,-0.0244682543
91377.252847,0.0202370931,0.183020818,0.00558919831,0.0484002568,-0.0982221439,-0.0303330645
91377.262874,0.0591738589,0.11498795,0.047170332,0.0653209165,-0.0909165591,-0.029802829
91377.272901,0.12558651,0.0454863244,0.150602649,0.0706019625,-0.070355624,-0.0226913914
91377.282928,0.139458575,0.0167702253,0.276397021,0.0478497818,-0.0452787653,-0.0233577155
91377.292955,0.115786215,-0.00957892553,0.421292398,0.0126643628,-0.0209087115,-0.0197691042
91377.302981,0.0925903862,-0.0331363267,0.482195488,-0.0113397725,0.000922019244,-0.0206815042
91377.313008,0.0898053586,-0.0611960078,0.477698761,-0.0214837529,0.0216541961,-0.0186359305
91377.323035,0.0664502751,-0.0691388565,0.425476406,-0.0128473882,0.0445243567,-0.0162313618
91377.333062,0.0719098785,-0.0722494628,0.39118426,-0.0119632185,0.0734470859,-0.0114635043
91377.343089,0.0412509473,-0.0972770097,0.407404158,-0.0347513556,0.100123435,-0.00511879008
91377.353115,0.0223991026,-0.0998660032,0.380150825,-0.0660498887,0.117586851,-0.00341463275
91377.363142,0.0289674664,-0.0758486564,0.301757672,-0.084462449,0.123304926,-0.0048045367
91377.373169,0.0210288097,-0.054509735,0.164867906,-0.0752841309,0.111197397,-0.00619736966
91377.383196,0.025136583,-0.0506567859,-0.0196358438,-0.0425203294,0.090543516,-0.00134588964
91377.393222,0.0533481119,-0.0568631662,-0.157120653,-0.01186122,0.0626378506,0.00802737195
91377.403249,0.0389124807,-0.0373969798,-0.21762919,-0.0125986487,0.0417834334,0.009117404
91377.413276,0.0446250405,-0.0278466228,-0.169243637,-0.00428212993,0.0364065096,0.0179881267
91377.423303,0.152534905,-0.0320355259,-0.161284787,-0.00713144615,0.0262702517,0.0230353512
91377.433330,0.0718915619,0.0176508075,-0.145050276,-0.0125065036,0.0181215126,0.022379946
91377.443356,0.110972303,0.0334197468,-0.162934892,-0.00723743998,-0.00131903077,0.0172360502
91377.453383,0.128516344,0.0774215317,-0.199765616,0.0147341713,-0.0258928165,0.00715305656
91377.463410,0.1080099,0.114577323,-0.253555074,0.0466952994,-0.0561258197,-0.00251688156
91377.473437,0.117887854,0.124626497,-0.294675605,0.0675350651,-0.0847891569,-0.0133540835
91377.483463,0.0994789767,0.138285896,-0.251201789,0.0716685578,-0.108641759,-0.028731972
91377.493490,0.0350194599,0.157803667,-0.172857151,0.0623669401,-0.130693257,-0.0444451571
91377.503517,0.0108743151,0.13223646,-0.117792851,0.0534562692,-0.136316791,-0.0471117795
91377.513544,0.0969303882,0.0942334042,-0.067744918,0.0329683013,-0.151154056,-0.0520391613
91377.523571,0.0564085452,0.0757954649,-0.0387666608,0.0454223081,-0.132081836,-0.0341112912
91377.533597,0.191553522,-0.00439480089,0.0183721075,0.0512551665,-0.12565589,-0.0185288712
91377.543624,0.112404454,-0.00530979685,0.0812058726,0.054200355,-0.12075834,6.55855983e-05
91377.553651,0.181572519,-0.0329958953,0.131757079,0.0822879151,-0.0978506282,0.0118434159
91377.563678,0.159538309,-0.0236122001,0.198024326,0.0886206478,-0.0678567812,0.0183476545
91377.573704,0.119712896,-0.00808970989,0.345942266,0.0655547455,-0.0452353545,0.025455365
91377.583731,0.152024864,-0.0251649825,0.450587466,0.0269207973,-0.0196189415,0.02706418
91377.593758,0.137492919,0.0262476632,0.493431167,-8.55209655e-05,0.00255906442,0.0128335785
91377.603785,0.022165956,0.0774031923,0.431105936,-0.011396233,0.0180938151,0.00477298908
91377.613812,0.0965003445,0.0703841804,0.343988209,-0.0103972815,0.0269813165,0.00562014105
91377.623838,0.123547944,0.0505063445,0.256502234,0.00601551495,0.0321326703,0.00608113408
91377.633865,0.0628496841,0.0744249803,0.192096689,0.0161810666,0.0383146629,0.00173805095
91377.643892,0.0488163,0.0785728207,0.139331898,0.0132262893,0.0479907282,-0.00579842832
91377.653919,0.067830587,0.0825048994,0.124512515,-0.00234361528,0.0560752861,-0.00971114449
91377.663945,0.0511616575,0.0596852379,0.0788520029,-0.0150881726,0.0567229651,-0.0134680662
91377.673972,0.0700471899,0.0245161632,-0.00147591777,-0.0161283631,0.0498119555,-0.0107572675
91377.683999,0.0875477889,-0.00985080128,-0.106545481,-0.00661022495,0.0331392363,-0.0041864505
91377.694026,0.132563391,-0.0299850231,-0.150340199,-0.00214543566,0.0185954496,0.00383099588
91377.704053,0.165476466,-0.0175421595,-0.151682261,0.00153691717,0.000607661204,0.00402593939
91377.714079,0.11373921,0.007498466,-0.113832131,-0.000159782736,-0.0093778614,-0.00403624866
91377.724106,0.104714484,-0.00336757674,-0.059027943,-0.00996341091,-0.0166418981,-0.0076757241
91377.734133,0.102273393,-0.0359871861,0.0130693249,-0.022829676,-0.018902123,-0.0101572573
91377.744160,0.0555412471,-0.0690192488,0.0668552757,-0.0337856524,-0.018975094,-0.0104832295
91377.754187,0.0127835531,-0.0815360544,0.136585814,-0.0421921872,-0.0176123548,-0.00712072104
91377.764213,0.000805672093,-0.0990899043,0.168465638,-0.0375148803,-0.0137686152,-0.00296352711
91377.774240,-0.0196275555,-0.101748602,0.192788763,-0.0234275553,-0.00687422371,-0.00128360465
91377.784267,-0.0222957975,-0.0802343972,0.199344176,-0.00904302299,0.000263580761,0.00390476547
91377.794294,0.0218724621,-0.0711821259,0.201312261,0.00366984284,0.00975615159,0.00946118496
91377.804320,0.0318933135,-0.0435190429,0.212823836,-0.000535554776,0.0212016199,0.0127951959
91377.814347,0.0564393604,-0.0085642686,0.232363233,-0.0186748784,0.0397068597,0.012121683
91377.824374,0.0752589103,0.00353467693,0.265417946,-0.0485925637,0.0541007109,0.0122606996
91377.834401,0.0972494823,0.0294660407,0.256935364,-0.066802986,0.0595889539,0.0126465913
91377.844428,0.0735396808,0.0620958792,0.168890001,-0.0632436723,0.0601860359,0.00747180358
91377.854454,0.102752171,0.0893389832,0.0613029022,-0.0482870974,0.0629141778,0.00350369327
91377.864481,0.108271282,0.0977677889,0.0143681326,-0.0386776142,0.0637296364,0.00412767194
91377.874508,0.116762732,0.105923331,-0.00177285489,-0.0393572524,0.0614595599,0.00459345896
91377.884535,0.100483039,0.117345692,-0.0429302102,-0.0312055834,0.0542959198,-0.000212481245
91377.894561,0.0786994062,0.140440298,-0.126107091,-0.00920627452,0.0448789857,-0.006512722
91377.904589,0.0978571385,0.128102283,-0.197205411,0.0157283694,0.0265737493,-0.00775854848
91377.914616,0.123260697,0.120279115,-0.260540111,0.0351966098,0.00718167424,-0.00558700692
91377.924643,0.130724448,0.124594859,-0.24917759,0.044562947,-0.00581614953,-0.0098206345
91377.934670,0.12269162,0.106755544,-0.193238261,0.0388097204,-0.0217668861,-0.0149810407
91377.944696,0.108625922,0.111179424,-0.139799516,0.0321214572,-0.0378044434,-0.0210304111
91377.954723,0.122106294,0.0695152156,-0.110872112,0.0343276188,-0.0539738275,-0.0260896198
91377.964750,0.114194827,0.0262158798,-0.0790191762,0.0441757217,-0.062855199,-0.0281881914
91377.974777,0.106509295,-0.0130805039,-0.0301812033,0.0500818156,-0.0612522438,-0.0229710564
91377.984803,0.117458158,-0.0722639298,0.0433393755,0.0458511189,-0.0594516806,-0.0170591064
91377.994830,0.100350855,-0.089375662,0.100466453,0.0304095764,-0.0549357608,-0.00977429561
91378.004857,0.0828344602,-0.094918683,0.149651048,0.0124550788,-0.0497785471,-0.00308470055
91378.014884,0.0468983329,-0.100315866,0.193432322,-0.000200795417,-0.0456597023,0.0031718635
91378.024911,0.0578547802,-0.0998451797,0.200274735,0.00464003254,-0.0366536938,0.0107400343
91378.034937,0.0668849767,-0.0922849735,0.20228023,0.0135009019,-0.0286631417,0.0166682303
91378.044964,0.0676107428,-0.0684872608,0.239252993,0.0164410304,-0.0185021162,0.0193178095
91378.054991,0.0617706156,-0.0401296197,0.291940042,0.0154580595,-0.0012392411,0.0181036741
91378.065018,0.0684088572,-0.00319821152,0.323573198,0.009015074,0.0153573118,0.0161696877
91378.075044,0.061029104,0.0229972831,0.319073548,-0.0028410533,0.0244658571,0.0116553633
91378.085071,0.0391922703,0.0424012909,0.27606209,-0.0113610383,0.0344524421,0.00707366085
91378.095098,0.0190609392,0.0648599371,0.266308173,-0.0135347098,0.0475986041,0.00183495646
91378.105125,0.024225359,0.0757100516,0.267940743,-0.013371991,0.0614534318,0.00206505368
91378.115152,0.042948787,0.064469988,0.214941558,-0.00891306065,0.0705654398,0.0022743782
91378.125178,0.0336697167,0.0827254834,0.163251703,-0.00382642285,0.0815190226,0.00145758688
91378.135205,0.0520800236,0.0946864817,0.109427758,0.000597087666,0.0819778815,0.00192044396
91378.145232,0.078420644,0.0860907951,0.0365858096,-0.0017654025,0.0822183639,0.00335375732
91378.155259,0.117361565,0.0596328501,-0.0289385097,0.00222401274,0.0763482302,0.0011784872
91378.165285,0.116944765,0.100367669,-0.0904670374,0.00840334594,0.0637458861,-0.00317791104
91378.175312,0.115529354,0.115379653,-0.163112002,0.00990084093,0.0454265289,-0.00890157744
91378.185339,0.146478866,0.120547191,-0.179947986,0.00893224962,0.0303221475,-0.0180735048
91378.195366,0.159554036,0.11707272,-0.168620537,0.00255104899,0.0156385414,-0.0266709886
91378.205393,0.135275636,0.087785324,-0.136451959,-0.00220802007,0.000824708841,-0.0314513594
91378.215419,0.140354976,0.0486358745,-0.119086398,0.00414202176,-0.0153473355,-0.0266989507
91378.225446,0.159198866,0.000851940654,-0.142271459,0.0313107893,-0.0269621816,-0.0179744344
91378.235473,0.153959248,-0.0259785639,-0.17807284,0.051077839,-0.0376217514,-0.00995778665
91378.245500,0.115609434,-0.039570013,-0.146930683,0.0545500666,-0.0480072796,-0.00363810547
91378.255526,0.0941546399,-0.0398262528,-0.0855570535,0.0483086817,-0.0546172448,-0.00277870335
91378.265553,0.0700752058,-0.0312816388,-0.0273678994,0.0280470867,-0.057677485,-0.00505304337
91378.275580,0.0284254981,-0.0448513875,0.0227437467,0.0122324387,-0.0634653345,-0.00568288099
91378.285607,0.0468222766,-0.0491357868,0.0751823745,0.00748961512,-0.0622677058,-0.00731779449
91378.295634,0.0567758807,-0.0557538167,0.110105219,0.0109988628,-0.057499852,-0.00120264478
91378.305660,0.051856855,-0.0533686021,0.15021102,0.0187654383,-0.0546065941,0.00708857458
91378.315687,0.0792710868,-0.0598879209,0.180970315,0.0268707685,-0.048620075,0.0150658069
91378.325714,0.0683658674,-0.0379513989,0.224869663,0.024554085,-0.0381120406,0.0179731809
91378.335741,0.0381080416,-0.00794160665,0.271818461,0.0157896224,-0.0216901861,0.018269591
91378.345767,0.0604075197,0.0132215929,0.314077055,0.00338541716,-0.00385073666,0.0135209076
91378.355794,0.0628515336,0.0468647001,0.34569326,-0.0128279068,0.0120858848,0.0115014324
91378.365821,0.0835927494,0.0618742724,0.305858678,-0.0126614599,0.023061838,0.00553035922
91378.375848,0.0766549313,0.0897362389,0.234269944,-0.00312840845,0.0335541591,0.000765697099
91378.385875,0.061286152,0.109105614,0.175911863,0.0072725676,0.0375286601,-0.00450816005
91378.395901,0.0586607035,0.109773795,0.13769173,0.010766102,0.0386109687,-0.0130664948
91378.405928,0.0365308782,0.106040308,0.128518828,-3.43478459e-05,0.0459642224,-0.0219044611
91378.415955,0.0544812989,0.0821245218,0.137751936,-0.0219329894,0.053807497,-0.0250097066
91378.425982,0.0723893051,0.0265428467,0.131617963,-0.0441892929,0.0575782694,-0.0209196247
91378.436008,0.120731572,0.0157258308,0.0694634123,-0.044831913,0.0603969581,-0.0137631781
91378.446035,0.127207563,0.00841711521,-0.0471089572,-0.0226744134,0.0488265865,-0.00935005397
91378.456062,0.131601761,0.0435052336,-0.151355514,0.0122438902,0.0339453779,-0.0113255866
91378.466089,0.151728356,0.0724497347,-0.208542797,0.0313683152,0.0185789391,-0.0123064294
91378.476116,0.123605757,0.0622282734,-0.182612237,0.0303659011,0.000639352831,-0.0186492801
91378.486142,0.108680475,0.0514304006,-0.116944125,0.0128399059,-0.00867025927,-0.0199955069
91378.496169,0.116117794,0.019739085,-0.0463566775,-0.000259651279,-0.0171798579,-0.0204104278
91378.506196,0.0904149784,-0.0333824835,-0.0517588288,0.00733009167,-0.030942807,-0.0129282773
91378.516223,0.10774218,-0.0691635526,-0.129126146,0.0319291763,-0.0452066995,-0.00355368387
91378.526249,0.118113151,-0.100603451,-0.145983757,0.0615179613,-0.0528659523,0.00772240665
91378.536276,0.0852423341,-0.0897922069,-0.0854658681,0.0613531135,-0.0553802401,0.0122939888
91378.546303,0.0695988935,-0.0835779355,0.054288055,0.0413639583,-0.0518241227,0.0142090684
91378.556330,0.0675755528,-0.055051879,0.173593649,0.0167262554,-0.0405538902,0.0207204968
91378.566357,0.0885522533,-0.0463417722,0.216718505,0.0107570477,-0.032747101,0.0257637259
91378.576383,0.085711486,-0.0466453583,0.201488203,0.0152553925,-0.0300852694,0.0298095997
91378.586410,0.0857854189,-0.024338907,0.189321964,0.029146973,-0.0268511269,0.031683933
91378.596437,0.077123663,0.00141008599,0.188713477,0.0386214331,-0.0157180484,0.0296274386
91378.606464,0.058138287,0.0353556833,0.188847917,0.0294734761,-0.00424568355,0.0212584548
91378.616490,0.0287891141,0.0396484851,0.266533798,-0.0010098638,0.00500187697,0.0131248953
91378.626517,0.00846771289,0.0521068385,0.256911399,-0.0207180548,0.0107433852,0.00814957824
91378.636544,0.0234135175,0.0438935023,0.192580089,-0.0148963844,0.0207054727,0.00624168944
91378.646571,0.0372286649,0.0254946529,0.125767483,0.000751018291,0.0240517352,0.0088068461
91378.656598,0.0614615451,0.0159621238,0.0724129098,0.018423222,0.0252403039,0.0169659723
91378.666624,0.0987161482,0.00369169412,0.0243447522,0.0238329004,0.0255708024,0.0221183896
91378.676651,0.0970044946,0.0408976084,0.0537222378,-0.000186574267,0.0307986625,0.0208823308
91378.686678,0.110637408,0.0857665315,0.0972878233,-0.0365195461,0.0370259322,0.00875722338
91378.696705,0.113274387,0.131903648,0.0986345618,-0.0651631728,0.0385676362,-0.00341528654
91378.706731,0.086240524,0.129875649,0.0431038132,-0.0658800974,0.0282092709,-0.0116471183
91378.716758,0.112753067,0.111850017,-0.0662847823,-0.0350588039,0.00966461562,-0.012910787
91378.726785,0.106937193,0.0930499666,-0.122001409,0.0123097766,-0.00443469081,-0.0121512543
91378.736812,0.115539209,0.0669529639,-0.131354928,0.0380313881,-0.00758414483,-0.00445951242
91378.746839,0.108605281,0.0629136254,-0.042030631,0.0321130417,-0.00691782264,-0.0036555035
91378.756865,0.0875658452,0.0621622955,0.0508510663,0.0129273636,-0.00270443503,-0.00784359127
91378.766892,0.0453276176,0.0677993516,0.0623380905,-0.00208354392,-0.00413561799,-0.0136327706
91378.776919,0.0331305523,0.0548792259,0.0622305385,-0.00352884131,-0.00872957148,-0.0132428836
91378.786946,0.0567283152,0.0426150068,0.0182078569,0.012639476,-0.0147224832,-0.00923722237
91378.796972,0.076466222,0.00292618965,0.0124760352,0.0338877738,-0.0204557348,-0.00619642623
91378.806999,0.0775050636,-0.0158073716,0.0241080208,0.0450261794,-0.0201952793,-0.00132310763
91378.817026,0.0877339226,-0.0302699044,0.05351181,0.0423965752,-0.018767558,0.000552291051
91378.827053,0.092794567,-0.0250593302,0.0972024831,0.0264136102,-0.0128401592,0.000417268835
91378.837079,0.0832407394,-0.0035942251,0.16083529,-0.00171522878,-0.000584825175,-0.000102580525
91378.847106,0.0905844715,-0.00456840389,0.22129122,-0.0301252995,0.00834182464,-0.00231060758
91378.857133,0.0718075186,0.0211083275,0.200064892,-0.039363537,0.00986382179,-0.00766595826
91378.867160,0.0653057903,0.0184619047,0.113709381,-0.0227504726,0.00749760214,-0.00965826958
91378.877187,0.0669097595,0.0159942725,0.0394382764,-0.00209685974,0.00165835535,-0.00718206167
91378.887213,0.0846334541,0.00820573748,0.0382166257,0.00633497443,0.000833574391,-0.00233351067
91378.897240,0.0811611475,0.00763699768,0.0598743307,0.00271707028,0.0031358772,0.00143805798
91378.907266,0.0894984572,0.00538834197,0.0762134711,-0.0106631834,0.0105636995,0.000876131002
91378.917293,0.0784503176,0.0272873815,0.100622521,-0.0288866628,0.0132718682,0.00134538021
91378.927319,0.0788796307,0.0532146536,0.0863917508,-0.0347639918,0.00966648012,-0.00381316338
91378.937346,0.0569688916,0.0701340781,0.0330658188,-0.0222322214,-0.00261788233,-0.0104702674
91378.947373,0.0549338604,0.0694117552,-0.0260918881,-0.00214985665,-0.00857111253,-0.013170179
91378.957400,0.0827568101,0.0491889783,-0.0333265155,0.0124977957,-0.0137096811,-0.0139930956
91378.967427,0.0719161347,0.0305075857,-0.0213145907,0.00992678013,-0.0169110689,-0.0133435503
91378.977453,0.0730024549,0.0293854498,0.0362584773,-0.00290512899,-0.0195087157,-0.0173681211
91378.987480,0.0791445196,0.0288170753,0.0765928258,-0.016125327,-0.0178333204,-0.0174232479
91378.997507,0.0824064623,0.013169132,0.0979962638,-0.0198734608,-0.0164556671,-0.015393652
91379.007534,0.0741039499,-0.0108325789,0.0831856482,-0.0158419665,-0.0115906037,-0.0129597895
91379.017560,0.0754070958,-0.0411387237,0.0965951649,-0.00700799515,-0.0120766312,-0.0068973694
91379.027587,0.0798229486,-0.0380361545,0.101870475,-0.0030627884,-0.00685923314,-0.0013806317
91379.037614,0.0939515459,-0.0387633728,0.114324883,-0.00596350338,-0.00554176699,0.00203141011
91379.047641,0.0553215126,-0.0410384051,0.122470195,-0.0081643397,-5.72530553e-05,0.00346046267
91379.057668,0.0761324007,-0.0267241947,0.121042208,-0.00918086804,0.00263467012,0.00749062421
91379.067694,0.0969779354,-0.0300103767,0.11963468,-0.011644558,0.002131599,0.012567142
91379.077721,0.098985074,-0.0319487244,0.11226795,-0.0164193399,0.00792184379,0.0124635454
91379.087748,0.103294078,-0.0218796772,0.133830378,-0.0231904276,0.012310734,0.0151115265
91379.097775,0.11589416,-0.032326837,0.140195237,-0.0305359587,0.0194072574,0.0157352388
91379.107801,0.118227133,-0.0216563168,0.109612467,-0.0264360216,0.0232470036,0.0227092579
91379.117828,0.117828964,-0.0305159151,0.0637105479,-0.0192731842,0.0258094966,0.0263290275
91379.127855,0.097619439,0.0182939277,0.0366319868,-0.0209565684,0.0253772661,0.0250214152
91379.137882,0.0746984543,0.017381416,0.0446340915,-0.0338981971,0.0234227721,0.0223089848
91379.147909,0.0706033898,0.0101131055,0.0446329225,-0.0364098251,0.0182045754,0.0225521326
91379.157935,0.0935785844,-0.00332315307,-0.000620762247,-0.0211416576,0.0107021835,0.0255710911
91379.167962,0.0939519934,0.0184426155,-0.0840244371,-0.00234959368,-0.00055180199,0.0273551419
91379.177989,0.0934664475,-0.000222264449,-0.0827314747,0.0120016495,-0.00763794081,0.0287551656
91379.188016,0.129165428,0.000381473598,-0.0765869806,0.0184643418,-0.0136441682,0.0325256698
91379.198042,0.112257064,-0.0013571137,-0.0342103126,0.00915259961,-0.0160980057,0.0316260532
91379.208069,0.0899767331,0.0412632999,0.00813420662,-0.0111015392,-0.0129224509,0.0266097244
91379.218096,0.0927529198,0.0563493715,0.0616015929,-0.0383933485,-0.00774739729,0.0191909559
91379.228123,0.0650622639,0.0716266548,0.0794856246,-0.0514162034,-0.0196045898,0.013139721
91379.238150,0.0285960872,0.0594224222,-0.0116378308,-0.0231616646,-0.029516343,0.00973060913
91379.248176,0.0253791938,0.0733680916,-0.0907861863,0.0156906582,-0.0366197936,0.00569458865
91379.258203,0.0112163586,0.0814154967,-0.0631985067,0.0380170047,-0.0377787985,0.00505995704
91379.268230,0.0411087349,0.0818618523,0.00383972429,0.0305087529,-0.0363444202,0.00364928087
91379.278257,0.0316870001,0.0985590123,0.106606856,0.0116543733,-0.0312077142,-0.00212631654
91379.288283,0.0288977439,0.10709727,0.140409757,-0.00920483656,-0.0270997901,-0.00709417649
91379.298310,0.0648958578,0.117944973,0.155193484,-0.0205538981,-0.0215987638,-0.0136615317
91379.308337,0.0863474915,0.100964466,0.158029585,-0.0141836163,-0.0217167418,-0.0180288497
91379.318364,0.0830901337,0.104247725,0.134427175,0.00292559573,-0.0181166809,-0.0257924963
91379.328390,0.0728200475,0.108966571,0.12728198,0.0224798545,-0.00971360877,-0.0282252934
91379.338417,0.0836513112,0.0859670956,0.156570618,0.0223727971,0.00318567827,-0.0274311397
91379.348444,0.105828985,0.0697345574,0.222014858,0.00369791221,0.0178618263,-0.0266558956
91379.358471,0.0980654566,0.0491938737,0.236323369,-0.0211507119,0.0297629591,-0.0273286086
91379.368498,0.0822511438,0.0487138351,0.188383222,-0.0298600476,0.0362778492,-0.0295416955
91379.378524,0.0730863932,0.0308246157,0.101666477,-0.0187240392,0.0344615765,-0.0304564927
91379.388551,0.0822733191,0.00874656636,0.0118044196,0.00628011348,0.0251442399,-0.0232294705
91379.398578,0.0906117522,-0.00145648242,-0.0664531246,0.0321551226,0.0181979164,-0.0166693069
91379.408605,0.10068458,-0.0245874749,-0.0768967772,0.0353447907,0.0132521614,-0.0131765716
91379.418631,0.114675998,-0.0223631499,-0.0411877504,0.0150581589,0.00596788246,-0.0119467229
91379.428658,0.105343375,-0.0197841663,-0.029866146,-0.000510947313,-0.00118030794,-0.011840729
91379.438685,0.12710392,-0.00351465706,-0.0473608861,-0.000535714673,-0.014491586,-0.0124388747
91379.448712,0.129511419,-0.00748487586,-0.0551660069,0.00577304745,-0.0196029916,-0.00895705819
91379.458739,0.0993870241,-0.0253815479,-0.0337064548,0.0156781413,-0.0228810757,-0.0069591552
91379.468765,0.0910239224,-0.0444132153,-0.0202718037,0.026396567,-0.0274619795,-0.00163469743
91379.478792,0.0905939517,-0.0387099621,0.00656067369,0.0307151489,-0.0326386318,0.000152284279
91379.488819,0.0868796165,-0.0465291115,0.0221603939,0.0277718231,-0.0309145004,0.00324101793
91379.498846,0.0583738265,-0.051116147,0.0887286693,0.0103883063,-0.0298159476,0.00854257308
91379.508872,0.0799533518,-0.0903206147,0.120111065,-0.0045309891,-0.0296092872,0.0124219991
91379.518899,0.0451558549,-0.0648790802,0.131978028,-0.0126483031,-0.0279631875,0.0120435646
91379.528926,0.0399629533,-0.0403796489,0.139723528,-0.0186199099,-0.0222469773,0.0122989612
91379.538953,0.0369646483,-0.0264183436,0.172041743,-0.01967692,-0.0170018822,0.0123080164
91379.548980,0.052376326,-0.0329915845,0.189227856,-0.0147210415,-0.00894288905,0.0137791466
91379.559006,0.0648378851,-0.0365005425,0.205503868,-0.0163381137,0.0026471871,0.0137810111
91379.569033,0.040188597,-0.0149731127,0.236335059,-0.0202428401,0.0147089101,0.0152438851
91379.579060,0.0345742825,-0.00824095493,0.258818109,-0.022855401,0.0276284367,0.0158971585
91379.589087,0.0654133789,-0.00597074497,0.236724351,-0.0249169543,0.0350187086,0.0196175948
91379.599113,0.0799197965,0.000275455941,0.183661454,-0.022164844,0.0389205068,0.0246930476
91379.609140,0.0766335414,0.0192442872,0.129339497,-0.00888099615,0.0388962701,0.0247412492
91379.619167,0.0765166325,0.0383124142,0.0433364529,0.00103608298,0.0404209308,0.0244989023
91379.629194,0.0903823182,0.0603426058,0.0243599498,-0.00302736834,0.0379447229,0.0207483731
91379.639221,0.0680316351,0.0897393076,-0.00446165558,-0.00829217117,0.0342341401,0.014257716
91379.649247,0.0723040517,0.116340899,-0.0425181223,-0.014465645,0.0287091471,0.00770154642
91379.659274,0.0908605211,0.123082263,-0.0735118109,-0.0145047931,0.0162721854,0.000424725004
91379.669301,0.0930752837,0.124904437,-0.105285252,-0.00914012175,0.00477185706,-0.00675489102
91379.679328,0.0951766764,0.12862996,-0.132943074,0.0030674492,-0.00901499577,-0.0112741981
91379.689354,0.0916986798,0.0921149507,-0.116423316,0.0188181829,-0.0190396681,-0.0118465126
91379.699381,0.107009025,0.0763856128,-0.11107611,0.0261360183,-0.022322813,-0.0115437098
91379.709408,0.0966116868,0.0709404991,-0.0695166038,0.0184922125,-0.0299173482,-0.0126742218
91379.719435,0.0914046744,0.0683572777,-0.0350584539,0.0074115973,-0.0312843509,-0.0156108905
91379.729461,0.0842373127,0.0479055144,0.0121849433,0.00171056867,-0.0301035047,-0.0180500802
91379.739488,0.0764134141,0.0334453927,0.0419692562,-0.00355343567,-0.0294488985,-0.0188125428
91379.749515,0.0903378763,0.0125271078,0.065942837,-0.00457289349,-0.0320087299,-0.0173973385
91379.759542,0.0792112099,0.00994878176,0.0916781667,0.00283468887,-0.0346295461,-0.0207055174
91379.769569,0.0844446901,0.00346212315,0.114510176,0.00801240653,-0.031439878,-0.0203968566
91379.779595,0.0906937223,-0.0196092481,0.149862645,0.0162860509,-0.026936207,-0.0136928819
91379.789622,0.0926356136,-0.0296799027,0.181116446,0.0248228125,-0.0194761604,-0.0062312372
91379.799649,0.0761128374,-0.0555361554,0.171742468,0.0330740847,-0.00859075412,-0.0014881473
91379.809676,0.0592932429,-0.0504703964,0.181670572,0.0277379081,0.00432717428,0.00237982813
91379.819702,0.0474251516,-0.0534174097,0.208473239,0.00639666663,0.0224156305,0.00262510544
91379.829729,0.0445746758,-0.0516529573,0.225029237,-0.0245948043,0.0324975587,0.00296598999
91379.839756,0.0462658848,-0.0339670054,0.19870997,-0.0450335033,0.0351071917,0.00121149933
91379.849783,0.0621986775,-0.0276481046,0.123680156,-0.0432409272,0.0299806055,-0.00421975087
91379.859810,0.0498073614,0.00274053088,0.0298410115,-0.0217819735,0.0145324077,-0.00227457844
91379.869836,0.0655906214,-0.00908551599,-0.058079264,0.00312017975,0.00430240715,0.00322564831
91379.879863,0.0892398337,-0.00244403215,-0.0556242721,0.0149643226,0.00225896388,0.0114998231
91379.889890,0.0772687706,0.000349763286,-0.0132335756,0.00756819174,0.00202540448,0.0125789363
91379.899917,0.0659041489,0.0189892165,0.0349567471,-0.00891890656,0.00486140465,0.0105373571
91379.909944,0.0883832899,0.0529535916,0.0603588994,-0.0190072265,0.0038994709,0.00597988907
91379.919971,0.0868420701,0.0628438481,0.0314636443,-0.0140955588,0.00162060396,0.00269647781
91379.929998,0.0888495375,0.0752601159,-0.0129418992,0.0057564429,-0.00439308025,-0.0021712482
91379.940025,0.0781008558,0.0854117268,-0.011856442,0.0200355146,-0.00724639092,-0.00279948767
91379.950051,0.0975828973,0.0661221391,0.0438081621,0.0149467457,0.000334829849,-0.00441176537
91379.960078,0.108959081,0.0614116233,0.146282448,-0.00848268066,0.0128090763,-0.00733005628
91379.970105,0.0895144585,0.0415635249,0.205115745,-0.0306580234,0.0158552006,-0.00544773508
91379.980132,0.0982960322,0.0474169271,0.1703402,-0.0231740084,0.0167484228,-0.00397021323
91379.990159,0.0832038232,0.0515981584,0.0788309601,0.00964785367,0.0128956297,-0.00547436625
91380.000185,0.101059652,0.0430997946,0.0150543613,0.0343105905,0.0126245199,-0.00244075991
91380.010212,0.0979910488,0.0141902187,0.0312526319,0.0316990912,0.0124428915,-8.25310126e-05
91380.020239,0.0726375899,0.0221976572,0.0943517699,0.0221713688,0.0166307129,-0.00108307973
91380.030266,0.0781502844,0.0403600674,0.0995937622,0.0155062759,0.0202960204,-0.00457341876
91380.040292,0.0733647991,0.0220890822,0.0661468351,0.00527627487,0.0189806856,-0.00339470431
91380.050319,0.075845099,-0.00756093677,0.071230422,-0.00223437184,0.0127097405,-0.00344024412
91380.060346,0.0882818662,-0.0162911365,0.0333925665,-0.00149561092,0.00963325705,-0.00286020711
91380.070373,0.0854354182,0.00599587941,0.0247293676,-0.000128077692,0.00610350352,-0.00306660216
91380.080400,0.0774000871,0.00209288063,0.0331494054,-0.00884460378,0.00527259707,0.000195236877
91380.090426,0.072712806,-0.000605856939,0.0449099858,-0.0113285342,0.00419215206,0.00337505154
91380.100453,0.0823486585,0.000160378193,0.0360059639,-0.00561578758,0.00484276284,0.00199846365
91380.110480,0.0386285857,0.0264569951,-0.000801379511,0.00592209166,-0.0042452747,0.00184479915
91380.120507,0.0393830391,0.039835459,-0.0479074141,0.0234512854,-0.0168002155,0.000526534393
91380.130533,0.0622436582,0.0307211553,-0.0484375754,0.0259048548,-0.0240466762,-0.000988538377
91380.140560,0.0676314933,0.0409381596,-0.0197685303,0.0207516383,-0.0262424536,-0.00407487527
91380.150587,0.0645793529,0.0373546751,0.0420475821,0.0103179049,-0.0230708942,-0.0045177592
91380.160614,0.0906756204,0.0291950418,0.0848164643,-0.0041372003,-0.0211520866,-0.00554600544
91380.170640,0.0911878259,0.0249201409,0.107012514,-0.00832155906,-0.0181254037,-0.0100723132
91380.180667,0.0659219586,0.0233699158,0.0968839187,-0.00271613756,-0.0176337846,-0.00878680684
91380.190694,0.0861377212,4.98304911e-05,0.0808621737,0.00603474304,-0.0188393984,-0.00540033076
91380.200721,0.0798726695,0.00176671741,0.0764472799,0.0113757132,-0.0133085437,-0.00204607937
91380.210748,0.0949840399,0.0173207718,0.109276952,0.00987874996,-0.00516113546,-0.00138481613
91380.220774,0.0760397768,0.00867467017,0.12870003,-0.00167004799,-0.00295284227,-0.00347433239
91380.230801,0.0559941968,0.0347727688,0.135315064,-0.00287885685,-0.00508417003,-0.00522669218
91380.240828,0.0434400548,0.042689168,0.116910223,0.00471301656,-0.00153657352,-0.00629781559
91380.250855,0.0586202938,0.0374091817,0.0993441713,0.00896927994,0.000533501676,-0.00470497925
91380.260881,0.0693508005,0.0211483673,0.0844523071,0.00900390185,0.00365659059,-0.00586318783
91380.270908,0.0828060195,0.0309749109,0.101481768,-0.00157151103,0.00773815159,-0.00498807337
91380.280935,0.0774152207,0.0160984635,0.103201431,-0.0153696146,0.0135576911,-0.00321680494
91380.290962,0.0754886229,0.0212108381,0.119093997,-0.0248280969,0.0138618238,-0.00872129202
91380.300989,0.0583915814,0.0303929463,0.102526893,-0.0200700928,0.0153377475,-0.00779291429
91380.311015,0.0845548816,0.0102296445,0.0579401478,-0.00989548769,0.0102684209,-0.0063465517
91380.321042,0.0823444481,0.00634008974,0.0246241536,0.00150284206,0.00470054988,-0.00419525057
91380.331069,0.0646476826,0.0140904847,-0.0231803846,0.0168730114,0.00515195541,-0.00475158449
91380.341096,0.0615885371,0.012228271,0.00127893389,0.0132580353,-0.000558660715,-0.00179334544
91380.351122,0.0819927943,-0.00494980443,0.0172135851,0.00802625529,0.000997158,0.000604831614
91380.361149,0.0780472441,-0.00920899624,0.0607020137,0.00525630126,-0.00033016142,0.00318729877
91380.371176,0.0997970023,0.00251490543,0.0608230098,0.00212335866,0.000469585822,0.00393218454
91380.381203,0.105579056,0.000681260262,0.0552642066,0.00258568348,-0.000157588627,0.00493726181
91380.391229,0.114815388,0.00660283233,0.0417529831,0.00706378883,0.000170246523,0.006441948
91380.401256,0.113599637,0.031844095,0.0309200389,0.00474657211,-0.00224763737,0.00570957828
91380.411283,0.0932865335,0.0309840441,0.0398942035,-0.00283731148,-0.00195575505,0.00349462731
91380.421310,0.0879810475,0.0290635243,0.0417377855,-0.00948615931,-0.00210995204,-0.00031901896
91380.431337,0.0602791441,0.0261208219,0.0430418539,-0.0165456664,-0.00537365582,-0.00257711392
91380.441363,0.0395033912,0.0203274794,0.0320879137,-0.0128603848,-0.00880460627,-0.00443280395
91380.451390,0.0426999908,0.00315502996,0.00818915167,0.00171696034,-0.0156113794,-0.0013017254
91380.461417,0.0614615954,-0.0111653179,-0.00623392595,0.0100073805,-0.0182098262,0.0014514504
91380.471444,0.0441582815,-0.0133772218,0.00758767865,0.0125853205,-0.0175056867,0.00485630147
91380.481470,0.0522520374,-0.012467998,0.0588327127,0.0082076164,-0.0174178034,0.00919325929
91380.491497,0.0483325305,-0.00766936558,0.0885655877,0.00477373647,-0.0154627757,0.0102068586
91380.501524,0.0719182444,0.0209874776,0.117122989,0.00198886916,-0.00947279297,0.00753410999
91380.511551,0.0662409203,0.0315038302,0.139711838,-0.00121464743,-0.00477391202,0.00502860826
91380.521577,0.0654581131,0.0418198378,0.161134565,-0.00315236347,-0.000639088103,0.00218381966
91380.531604,0.0943137303,0.0512854391,0.148850253,0.00743929483,0.00567872915,0.00161017478
91380.541631,0.1152837,0.0470011129,0.105043844,0.0172956549,0.0117709767,0.00305307517
91380.551658,0.0900917561,0.0385202848,0.0917518165,0.0125427097,0.00945748854,0.00286292564
91380.561685,0.0956279821,0.0411332438,0.0832955383,0.00674793776,0.00861406513,0.00354789058
91380.571711,0.0762718228,0.0435837787,0.0682563746,0.0114180567,0.0108079771,0.000242374837
91380.581738,0.0851953989,0.0351047042,0.0350982014,0.00972295459,0.00718288217,0.00282750558
91380.591765,0.0813536653,0.0218808463,0.0268131881,0.00613301387,0.00683081243,0.00227410067
91380.601792,0.0905837408,0.0414363914,0.0414472782,0.00358356955,0.00891739968,0.00420143036
91380.611818,0.0726012857,0.0281562002,0.0601782821,-0.00668424787,0.0107882703,0.0018077814
91380.621845,0.0742878962,0.0557752979,0.0739057787,-0.0173291676,0.0108852088,-0.00266260095
91380.631872,0.0924122075,0.0626898996,0.0683849694,-0.0189166777,0.0107272835,-0.00520911533
91380.641899,0.0956227305,0.0555075869,0.0541366639,-0.0059747817,0.00566035323,-0.0066773165
91380.651925,0.081213517,0.0591165712,-0.0186140996,0.0155712562,-0.0105745429,-0.00587490574
91380.661952,0.0746299419,0.0398803942,-0.0765980865,0.0358775929,-0.0190774854,-0.00802514143
91380.671979,0.0665128372,0.0346304377,-0.0344336,0.0392488874,-0.0160715748,-0.007714618
91380.682006,0.0700484183,-0.00614814737,0.0434381597,0.0154084023,-0.0152259236,-0.0043077413
91380.692033,0.0458229542,-0.0126009768,0.0821773479,-0.00982664619,-0.0114570176,-0.000685842708
91380.702059,0.0415818461,-0.000637055795,0.0662637395,-0.0112048322,-0.0107044084,-0.00280012656
91380.712086,0.0492310228,0.00486322212,0.0344265857,0.00516934786,-0.0172310174,-0.00178226642
91380.722113,0.0447590239,0.0218177179,-0.00161328042,0.0250751451,-0.026325712,-0.00145949144
91380.732140,0.0463297027,0.0251477391,0.00724573334,0.0358023606,-0.0265347697,-0.00355380122
91380.742166,0.0723702671,0.0241009335,0.0572568417,0.0243795272,-0.0252311528,-0.00816666149
91380.752193,0.0589214915,-0.00379471611,0.140361241,-0.00170480344,-0.0163851958,-0.0104889385
91380.762220,0.0696158858,-0.00966375427,0.185500944,-0.0202268232,-0.00890863873,-0.0108833537
91380.772247,0.0608111184,-0.0304359087,0.169213826,-0.0198395997,-0.00300547597,-0.00892726146
91380.782273,0.074065545,-0.044293023,0.144344758,-0.0068588187,-0.003012134,-0.00117985904
91380.792300,0.0763437145,-0.0470148492,0.0937812765,0.00366306398,-0.000867490191,0.00538403401
91380.802327,0.0728536713,-0.0296497998,0.092981066,0.00733929174,-0.000801177579,0.00834440347
91380.812354,0.0539646546,-0.0141370272,0.110130938,0.00449556811,0.0048939921,0.00920700189
91380.822380,0.0767326544,0.0214138133,0.130641811,-0.0050521302,0.0142398234,0.00671375031
91380.832407,0.0734345536,0.0268363498,0.132108961,-0.0210465435,0.0189232584,0.00401250599
91380.842434,0.0706739389,0.0433120491,0.127981652,-0.026105484,0.0211288892,0.00039247144
91380.852461,0.0828797515,0.0492662083,0.0659089347,-0.0143369753,0.0153679382,-0.0039727157
91380.862488,0.0853718879,0.0527814499,0.00236439104,0.00114025152,0.0148904333,-0.00257562194
91380.872514,0.0672533762,0.0436526792,0.00275660523,0.011900221,0.00729749538,-0.000485572964
91380.882541,0.0645728638,0.0337480289,-0.00721533821,0.0110251065,0.00243616104,0.00226760283
91380.892568,0.0779048765,0.0311097163,-0.0171463651,0.000749565894,0.000872352859,0.000162374228
91380.902595,0.0558222469,0.0245861597,0.0155190562,-0.00940613262,-0.00608169287,-0.000546293333
91380.912621,0.0750092556,0.0327041459,-0.00370177713,-0.00800104905,-0.00730861165,-0.000462137163
91380.922648,0.0953744274,0.0500590392,-0.028357495,1.40007469e-05,-0.00948494673,-0.00311464537
91380.932675,0.0806807984,0.0519525978,-0.0441220503,0.0107982047,-0.0204220153,-0.00175137352
91380.942702,0.0743248672,0.0405535442,-0.0420253703,0.0223773625,-0.0256721713,-0.00281290989
91380.952728,0.0738938508,0.0341205885,-0.00513268671,0.0266448129,-0.0285846051,-0.00310532469
91380.962755,0.0551797888,0.0509508004,0.0368412457,0.0242303908,-0.0280309338,-0.00247202441
91380.972782,0.0835851598,0.0269894215,0.0842734434,0.0100815482,-0.0235379152,-0.0032299608
91380.982809,0.0579913757,0.0101032417,0.124774965,0.000440905453,-0.0118013648,-0.00242488645
91380.992836,0.0886018372,0.0252314719,0.143648592,-0.00579834823,-0.00839917641,-0.00399375521
91381.002862,0.0877819174,0.0272168736,0.13230653,-0.00117456797,-0.0106239812,-0.00535516348
91381.012889,0.0917401443,0.0325231633,0.0945358943,0.0155817755,-0.0078148786,-0.00661883317
91381.022916,0.0961013261,0.0314692703,0.0828197375,0.0284701437,-0.00364063983,-0.00545902643
91381.032943,0.0868723282,0.00449950338,0.105499187,0.0188119225,0.00151523994,-0.00621642917
91381.042969,0.0613741545,-0.0059776131,0.147459675,0.00151948573,0.00670600682,-0.00467525795
91381.052996,0.041348156,-0.0141544898,0.146165544,-0.00983863045,0.00911350455,0.00106225628
91381.063023,0.0345087111,-0.0297842398,0.0901268456,-0.00520659378,0.00877741352,0.00331369275
91381.073050,0.0384445161,-0.0381060049,0.0400122769,0.00299088238,0.00995160174,0.00240049465
91381.083076,0.030279444,-0.0183637781,0.0178191498,0.00863891374,0.00301380083,0.00178264128
91381.093103,0.0301057588,-0.0122064976,-0.00229834007,0.00929192081,-0.00530777872,0.00125320489
91381.103130,0.0508672731,-0.00988192707,-0.00641454322,0.0094234813,-0.0135249626,0.00415605027
91381.113157,0.0749998347,0.00448218692,-0.0232990425,0.0191685203,-0.0194499623,0.00571879325
91381.123184,0.0804742247,-0.00900982041,-0.00644786097,0.0271223169,-0.0270823147,0.0125159789
91381.133210,0.108445762,-0.0103428226,-0.00328618206,0.0331682265,-0.0299739763,0.0168516058
91381.143237,0.097241025,0.0236140998,0.0326473011,0.0273585394,-0.027778998,0.01519938
91381.153264,0.0796973038,0.0463005634,0.0794645819,0.00656617619,-0.0211032517,0.00726049719
91381.163291,0.0896023103,0.0797345579,0.142495331,-0.0155037064,-0.0137073891,-6.66575506e-05
91381.173317,0.0736183994,0.0963891209,0.177506438,-0.0174760427,-0.00653576199,-0.00735226832
91381.183344,0.0872267586,0.0637816404,0.15487492,-0.00915792678,-0.00107335253,-0.00744601153
91381.193371,0.0935454859,0.0529498652,0.152364983,0.000783654279,0.0066482164,-0.00321877562
91381.203398,0.0961284424,0.0280686681,0.161914317,0.00783304125,0.0133276908,-0.00133085996
91381.213424,0.0828783358,0.0391764837,0.157358553,0.0086551588,0.0223115999,-0.00191409234
91381.223451,0.0642801325,0.027342765,0.169744572,0.00300925784,0.0257747732,-0.00436473358
91381.233478,0.0565845228,0.0351589917,0.136118781,-0.00797122158,0.0296619236,-0.00735253468
91381.243505,0.0718491567,0.0158734956,0.138335873,-0.0139122019,0.0294179786,-0.0101901311
91381.253531,0.061429264,0.0206880563,0.0802601162,-0.0106631452,0.0290065203,-0.00869130529
91381.263558,0.0716615389,0.00724091104,0.0169897132,0.00896435231,0.021655662,-0.00519590639
91381.273585,0.0682127729,0.0174705556,-0.0527285506,0.0257846117,0.0116802594,-0.00647582114
91381.283612,0.0450108022,0.022807898,-0.0526806198,0.0331202894,0.00158954214,-0.0036352938
91381.293638,0.0608253159,0.00882255421,-0.0514268204,0.0229294356,-0.0051301457,-0.00444675889
91381.303665,0.0727386072,-0.022916546,0.0134106857,4.32955567e-05,-0.00614134781,-0.00434689038
91381.313692,0.0368055442,-0.0322840208,0.0404284565,-0.0196316056,-0.00779170915,-0.00274313428
91381.323719,0.0557393178,-0.0447384287,0.0440507387,-0.0219909009,-0.00921623409,0.00117757125
91381.333745,0.086398628,-0.0346335796,0.00917874723,-0.0125691695,-0.0128754172,0.0041432674
91381.343772,0.0624750787,-0.0236123463,0.0188169287,-0.00489873253,-0.0135499965,0.00667087361
91381.353799,0.0539705272,-0.00990428503,0.070028645,-0.00508994749,-0.0126085691,0.00830392353
91381.363826,0.0443745044,0.00393726638,0.100754038,-0.00746735139,-0.0148104699,0.0069550327
91381.373853,0.0390427697,0.0226714121,0.1039239,-0.00211972394,-0.013493537,0.00539974682
91381.383879,0.0467944159,0.0248376503,0.107950087,0.0015844669,-0.0125606321,-0.000365996733
91381.393906,0.0649160284,0.0246130477,0.120355395,-0.000422757643,-0.0108708562,0.00188464019
91381.403933,0.0759729084,0.0174869222,0.140111651,-0.00235248404,-0.00262517645,-7.19837844e-05
91381.413960,0.0925919389,0.0170423933,0.159468677,-0.0112325288,0.00856249686,0.00159994839
91381.423986,0.0865586866,0.0251112065,0.141350837,-0.0197794121,0.0125612328,-0.00229412597
91381.434013,0.072554259,0.0310901348,0.116115273,-0.0254740492,0.0106080705,0.000231349841
91381.444040,0.0610875607,0.0263039234,0.0586900894,-0.0157476515,0.00330887898,-0.00192794111
91381.454067,0.0617501391,0.0292496215,-0.0100730657,-0.00115006696,0.00130538293,-0.00358016603
91381.464093,0.0845748923,0.0336762788,-0.0211795662,0.00759069389,0.00026728271,0.000606056303
91381.474120,0.0600585876,0.0281133109,0.0229155962,0.00167128595,0.00319809141,-9.5685944e-05
91381.484147,0.0625375632,0.0252728999,0.0654658671,-0.0128557254,0.00407347269,-0.00251090713
91381.494174,0.0663648298,0.038051206,0.100212771,-0.0264029596,0.0105087347,-0.00688168686
91381.504200,0.0615173122,0.0409395478,0.114700146,-0.0339261219,0.00734756235,-0.00729181431
91381.514227,0.0680476957,0.0340204892,0.0530126283,-0.024959527,0.00454458594,-0.00843457691
91381.524254,0.0862692021,0.0213482007,0.0220388133,-0.0107715353,-0.000196107314,-0.00488325115
91381.534281,0.0662555882,0.0129062433,0.000656418082,0.00488705281,-0.0053466605,-0.00356152374
91381.544307,0.0669952504,0.0268042742,0.00643967766,0.00636643916,-0.00660686847,0.000340007246
91381.554334,0.0676345758,0.0277537569,0.0500882652,0.00276904088,-0.00442866888,-0.00198546518
91381.564361,0.0485810664,0.0258365982,0.0795627815,-0.00271201087,-0.00232264143,-0.00304380525
91381.574388,0.0528972446,0.038311099,0.0664157152,-0.00208536908,-0.00275007891,-0.00471467245
91381.584415,0.0533959559,0.0374376772,0.0608767858,0.00363563374,-0.00242304266,-0.00631017238
91381.594441,0.0702700251,0.0428557567,0.0514081157,0.00666657742,-0.00275114411,-0.00983806141
91381.604468,0.0718435489,0.0192765821,0.0611047493,-4.93824773e-05,0.00150911463,-0.00761485472
91381.614495,0.0889680401,0.00521130491,0.110676297,-0.00823620614,0.00635020901,-0.0067117773
91381.624522,0.109216801,0.00261821967,0.125590958,-0.0139084728,0.0129995896,-0.00561135914
91381.634548,0.106566432,-0.00285034793,0.10824001,-0.0210297666,0.0159495734,-0.00529018231
91381.644575,0.0932098242,0.0117127958,0.0991325744,-0.0159575082,0.0154329194,-0.00241636485
91381.654602,0.0820756046,0.0182826026,0.0258820448,0.00119404739,0.00959074311,-0.00151355285
91381.664629,0.0957995575,0.00535137097,-0.00933656814,0.0120664025,0.00444684736,-0.00118971244
91381.674655,0.079965097,0.000512844893,0.00256663562,0.00314428005,0.00467641186,-0.00131141953
91381.684682,0.0497705182,-0.0054944327,0.048385553,-0.00914216228,0.00457822438,-0.00121089444
91381.694709,0.0454582628,-0.018474545,0.0393716409,-0.0173470955,0.00266367756,-0.00419070479
91381.704736,0.0285148318,0.00405621659,0.00345510889,-0.0174080823,-1.4130841e-05,-0.0070296349
91381.714762,0.0343789792,-0.0262231133,0.0116647188,-0.0127259782,-0.0115083344,-0.00208441075
91381.724789,0.0393031971,-0.041935427,0.000348375046,-0.0012794456,-0.0153238457,0.00520918798
91381.734816,0.0559587784,-0.0382925405,-0.00719780255,0.0145799443,-0.020364143,0.0110769309
91381.744843,0.0794548277,-0.0266756793,0.00386719682,0.0181373954,-0.0196799785,0.0155076319
91381.754869,0.0810881919,-0.0181825763,0.0658697717,0.00237148209,-0.0181049835,0.0139137302
91381.764896,0.0595923446,0.0110565238,0.11766601,-0.0106124943,-0.0182432029,0.0089815557
91381.774923,0.0476295744,0.0441050992,0.148583126,-0.0146277416,-0.0140013192,0.0048030559
91381.784950,0.0843124785,0.0599930617,0.122175596,-0.00532505335,-0.0112276375,0.00272978516
91381.794976,0.0781348311,0.061746189,0.135505034,0.0011387046,-0.00579878315,-0.000124590471
91381.805003,0.0615867972,0.0844638515,0.128909289,0.000311793119,0.000174687244,-0.00202422403
91381.815030,0.0647972289,0.0783824857,0.147051679,-0.00994350761,0.00888588745,-0.00500936061
91381.825057,0.0764849267,0.0575701454,0.175632461,-0.024831377,0.0178255867,-0.00454490539
91381.835083,0.0740722122,0.0417275564,0.169572723,-0.0255003627,0.0241942685,-0.00358776562
91381.845110,0.0874993102,0.0452479856,0.120066057,-0.0134373093,0.030251896,-0.00164179411
91381.855137,0.0760759395,0.0534206976,0.0776414581,0.00109582767,0.0313919969,-0.00290413201
91381.865164,0.0790641296,0.0569135082,0.0532511132,0.00205563102,0.0301195364,-0.00691059139
91381.875190,0.0616596158,0.0612407237,0.0619581513,-0.00633545686,0.0265130829,-0.00755853858
91381.885217,0.0886135915,0.0449923303,0.0379489146,-0.00743294554,0.0220906381,-0.0082823867
91381.895244,0.0846348789,0.0377940163,-0.00614566315,-0.000678636483,0.0153411226,-0.0106752357
91381.905271,0.0901598163,0.039506081,-0.0454874935,-0.0014363057,0.00907497108,-0.0141794225
91381.915296,0.0649044841,0.0283341871,-0.0523228924,-0.00684199017,0.00105273153,-0.0142457364
91381.925323,0.0841116496,0.0168814306,-0.0354950918,-0.0107499128,-0.00789549015,-0.0166159496
91381.935350,0.0685555083,0.0129580466,-0.0366185428,-0.00897757895,-0.0129022328,-0.0196282491
91381.945377,0.0403414175,-0.00480922691,-0.0220376443,-0.0108231502,-0.018036807,-0.0164428428
91381.955403,0.0540537074,-0.0397412049,0.0274275206,-0.0109728193,-0.0163443685,-0.0113894967
91381.965430,0.0526811998,-0.0545575927,0.0556388851,-0.00785265956,-0.0180716943,-0.00592895038
91381.975457,0.0490650962,-0.05947028,0.0622363837,0.00211821543,-0.0226659141,-0.00190411508
91381.985484,0.0256374132,-0.0686607176,0.0468804091,0.0189533867,-0.0213758778,0.00282858824
91381.995510,0.0476539142,-0.0562723607,0.0713888274,0.0215339903,-0.018543873,0.00777327968
91382.005537,0.0999700116,-0.0692206165,0.150731829,0.00193419098,-0.0149502028,0.0107014254
91382.015564,0.0661420494,-0.0480604127,0.173378545,-0.0133153358,-0.00540942885,0.00563715817
91382.025591,0.0577773447,-0.0195019153,0.176359022,-0.0235631801,0.000713178422,0.00734504312
91382.035618,0.0854608083,-0.00949935749,0.170600897,-0.0308165662,0.00826883316,0.00523795001
91382.045644,0.0726749765,0.0124859721,0.184921099,-0.0284242481,0.0150574967,0.00426403247
91382.055671,0.0706665273,0.0279818666,0.140677468,-0.0194576513,0.0166306254,0.00378599484
91382.065698,0.0801415313,0.0178696379,0.102210667,-0.0147118978,0.0191012397,0.00454765884
91382.075725,0.0803615672,0.0193602418,0.0917184988,-0.0162583962,0.018891383,0.00520572625
91382.085751,0.0912748101,0.0371523574,0.0731722037,-0.0226001814,0.0216749199,0.00148821948
91382.095778,0.0526383196,0.0468967027,0.0584124415,-0.0275267623,0.0195808746,-0.00271105301
91382.105805,0.0502430037,0.0445726436,0.0350146148,-0.0315305591,0.0138553455,-0.00307537336
91382.115832,0.0586336921,0.0415224623,0.00787117177,-0.0279230401,0.00797881465,-0.00241411012
91382.125858,0.0465693293,0.0254857389,-0.0244511352,-0.00898610149,0.00187831139,0.00577937067
91382.135885,0.0469554243,0.0244829185,-0.0446551343,0.00868477114,-0.000143560464,0.0107938368
91382.145912,0.0609032308,0.0302099179,-0.0387695834,0.0155413449,0.000855923863,0.0113027673
91382.155938,0.0793981838,0.0641612873,0.00153729257,0.00635397295,0.00047535816,0.0108620133
91382.165965,0.0923289953,0.0888613558,-0.00176876324,-0.00322541734,-0.00480675511,0.00579721387
91382.175992,0.0696185253,0.114411319,-0.00935176571,-0.00849528052,-0.0102483928,-0.00511801802
91382.186019,0.0685727106,0.124958578,-0.0110866267,-0.00721829478,-0.0198421646,-0.014029487
91382.196046,0.075403205,0.100893885,-0.0152530987,0.00108437613,-0.0275988877,-0.0192783102
91382.206072,0.0749719192,0.065651599,0.0262917946,0.0103873303,-0.0283762645,-0.0186122544
91382.216099,0.067011722,0.0408442708,0.072418755,0.0131703336,-0.0200054161,-0.0196072124
91382.226126,0.0701568014,-0.000909077669,0.144167063,0.00542239938,-0.0052531017,-0.0164489709
91382.236153,0.0582745537,-0.0143992584,0.197336344,-0.00242034369,0.00207112427,-0.0106464745
91382.246179,0.0587847911,-0.0366147434,0.198716984,0.00341863697,0.00917057879,-0.00513266493
91382.256206,0.0714234558,-0.042309521,0.163821612,0.00896094088,0.0130127212,0.000402715057
91382.266233,0.0846260837,-0.0427042194,0.128760235,0.00712549081,0.0134151252,0.00571172684
91382.276260,0.0920484979,-0.0189178318,0.133196172,0.00893377699,0.0137908971,0.00770909758
91382.286286,0.0863457014,-0.0102680038,0.100824765,0.00540695293,0.0233931914,0.00802095328
91382.296313,0.0963810837,-0.00315115751,0.108323597,-0.00779593457,0.0259676687,0.0058251773
91382.306340,0.0548356744,-0.0101476653,0.0903472104,-0.0201375559,0.0252720509,0.00749924034
91382.316366,0.0578185946,-0.00381970442,0.0349941565,-0.0175889116,0.0187089574,0.00480012689
91382.326393,0.0403433081,0.0180730515,-0.0292640884,-0.00441265432,0.00686481409,0.00276733562
91382.336420,0.0213653208,0.022969153,-0.0669803633,0.00623253267,-0.00386399659,0.000328945927
91382.346447,0.0321981508,0.0174230632,-0.0453325952,0.00332223042,-0.00938606076,0.000118022785
91382.356474,0.0247490632,0.0224925484,-0.0308557415,0.00207560486,-0.00706032291,-0.000360812992
91382.366500,0.0565473691,0.0115770405,0.0199041394,-0.0102934474,-0.012090235,0.0024373699
91382.376527,0.0575183742,0.00488192682,0.0220861596,-0.00873576477,-0.0170695465,0.00456656748
91382.386554,0.0750631001,0.00812543879,0.00469955599,0.0128012188,-0.0229711123,0.00696607539
91382.396580,0.0980144023,0.0305786051,-0.0145218618,0.0368780605,-0.028380258,0.00866623782
91382.406607,0.090901118,0.0444272438,-0.00529343023,0.0458095036,-0.0306095909,0.00684277108
91382.416634,0.100645536,0.0700789869,0.038038931,0.0388804935,-0.0273064729,0.00265388517
91382.426661,0.078959281,0.0915855931,0.0916658918,0.0176332593,-0.0219939984,-0.00120423641
91382.436687,0.0736552517,0.0647342649,0.154285722,-1.79061899e-05,-0.014464709,-0.00744482223
91382.446714,0.0798831543,0.0670823624,0.167926709,-0.00449201651,-0.00421606656,-0.00700646546
91382.456741,0.089249661,0.0338677097,0.17318916,3.40254628e-05,0.00478142314,-0.0060597118
91382.466768,0.10210748,0.0311332433,0.175256029,0.00733614666,0.0111197466,-0.00151662529
91382.476794,0.0758990349,0.0253638661,0.162140527,0.0195776317,0.0120830117,0.00246320292
91382.486821,0.0639093493,0.0239398246,0.121093646,0.0314153843,0.0155480504,0.00253271125
91382.496848,0.048605968,0.0147033559,0.119967857,0.0261577703,0.0180586129,0.000754252076
91382.506875,0.0576872142,0.0296834098,0.119841016,0.00941447727,0.0229298007,-0.0025821561
91382.516901,0.0515216545,0.0328751185,0.10981062,-0.00361184194,0.0246523339,-0.00510416925
91382.526928,0.0625259092,0.0517681812,0.0750029263,-0.00481132977,0.0231854636,-0.00837319996
91382.536955,0.0657210155,0.0390214392,0.0207084415,0.00145588722,0.0143224644,-0.00984246563
91382.546982,0.0520387646,0.0321793913,-0.0266261411,0.0124619324,0.00210601185,-0.0114241177
91382.557008,0.0723119565,0.00677745825,-0.0364922861,0.0227752905,-0.00466986932,-0.0114856353
91382.567035,0.0652997898,-0.0181930977,-0.0429921695,0.0277223773,-0.00531222392,-0.0104717715
91382.577062,0.0712997015,-0.033679786,-0.00636427433,0.0158555992,-0.00581236556,-0.00408843998
91382.587089,0.0539866472,-0.0479059528,0.0365045611,0.00360745518,-0.00823797286,0.000923096668
91382.597115,0.0310443001,-0.0497903783,0.0452992774,0.00552066974,-0.010300857,0.00380703388
91382.607142,0.0492730262,-0.0372889164,0.0124655138,0.00974470936,-0.0142553849,0.00685635302
91382.617169,0.0415052417,-0.0408565457,0.0318213717,0.0136265326,-0.0181952659,0.00847156066
91382.627196,0.0641890247,-0.0318472368,0.0578828646,0.0127508854,-0.0202038214,0.012648995
91382.637222,0.0670815039,-0.0118443132,0.106134562,0.00618832465,-0.0190610588,0.00968915783
91382.647249,0.0555797753,0.0190001763,0.133483757,-0.000876242993,-0.0102433329,0.00719777029
91382.657276,0.065998773,0.0333865021,0.162733817,-0.0147124305,-0.000959020341,0.00257585431
91382.667303,0.0742443813,0.0258227888,0.180387547,-0.0188033115,0.00492203794,0.00249995431
91382.677329,0.059438661,0.0334038916,0.141602766,-0.0103866579,0.00874260906,0.00333325751
91382.687356,0.0693987861,0.0624546295,0.101267833,-0.0073228348,0.0159396436,0.000317404978
91382.697383,0.0692858181,0.0455822591,0.0968722283,-0.0136632891,0.0170006491,0.000837520696
91382.707410,0.0597882142,0.0507515515,0.0928203225,-0.0166271199,0.0139662419,-0.00353166088
91382.717436,0.0765560968,0.0535838523,0.0600070172,-0.00690205535,0.0115174651,-0.00561957993
91382.727463,0.0749577491,0.0672933017,0.0282943666,0.00563344359,0.0112913623,-0.00559001882
91382.737490,0.0671698763,0.0547580106,0.0117611649,0.01340508,0.00818185601,-0.00346774515
91382.747516,0.0685418405,0.0397656817,0.022416999,0.0145563651,0.00700553739,-0.00470185466
91382.757543,0.0491447008,0.057092518,0.0293166954,0.0175814498,0.00273675658,-0.00654156599
91382.767570,0.0486264354,0.0358043769,0.0205038588,0.0154746221,0.000639783684,-0.00892935693
91382.777597,0.066470779,0.0208427354,0.0301297653,0.0103935776,-0.00329716736,-0.00670641568
91382.787623,0.0937926199,0.0154155227,0.0264653976,0.00863455981,-0.00273976778,-0.00382061396
91382.797650,0.0976768957,0.00964767992,0.0211573543,0.00979916006,-0.00910578761,-0.00441742875
91382.807677,0.0737237138,0.00107581254,0.00205108731,0.0150533104,-0.0158646256,-0.00541424938
91382.817704,0.0604578662,0.0104084352,0.00836041659,0.0143997706,-0.0172409452,-0.00506510958
91382.827730,0.04720823,-0.0094003541,0.0537467878,0.0108215474,-0.0137178507,-0.00350929052
91382.837757,0.0800306,-0.0193454826,0.0860194103,0.00289944257,-0.00521277916,0.0030356939
91382.847784,0.0923586781,-0.0211946176,0.112794605,0.0019369761,-0.00245800521,0.00332864141
91382.857811,0.0629682736,0.013754823,0.0939063642,0.00889475085,-0.00541757606,0.0038551488
91382.867837,0.0894927307,0.017599881,0.059240709,0.0176443011,-0.00709616672,0.00367991254
91382.877864,0.10359191,0.0213341722,0.0292693491,0.0298953746,-0.0128978631,0.00608261675
91382.887891,0.0947376639,0.0242412187,0.024501404,0.0343463123,-0.0114949094,0.00726798922
91382.897918,0.109228309,0.0238489315,0.0407230555,0.0211881697,-0.00688684173,0.00384715898
91382.907944,0.093643786,0.0242273363,0.103498953,-0.00514623336,0.00295566861,0.000773871318
91382.917971,0.0569555024,0.0306654066,0.153310739,-0.0245625414,0.0114317117,-0.00315242726
91382.927998,0.0526228983,0.0339544382,0.126152099,-0.0244131368,0.0154847763,-0.00607631169
91382.938025,0.060280304,0.022970249,0.0919014541,-0.0122723198,0.0135276187,-0.000296719372
91382.948051,0.0492336668,0.00863010038,0.0343207873,0.00572479004,0.0102916118,0.00424077408
91382.958078,0.0470496784,-0.0077145199,0.000706102443,0.0172309782,0.0048284037,0.00508606154
91382.968105,0.0375168845,0.00764700762,0.00863923353,0.017884519,-0.000955183525,0.00386979617
91382.978131,0.0152002269,0.0169372524,0.0225748199,0.0138743296,-0.0050098463,0.00242476491
91382.988158,0.0375076965,0.0104692985,0.000177110133,0.0107030366,-0.00654249545,0.000287045725
91382.998185,0.053081684,0.0216946761,-0.00379413159,0.00974669587,-0.0106413662,-0.00362673588
91383.008212,0.0356700191,0.0219928553,0.0055488663,0.011587739,-0.0218628608,-0.00477535743
91383.018238,0.0715707096,0.0156941205,0.00630816023,0.0197985321,-0.024418164,-0.00637139007
91383.028265,0.0742921751,0.0185598121,0.0361789824,0.0240356214,-0.0210474022,-0.0044786809
91383.038292,0.0862293176,0.0044439738,0.0977928502,0.0178459026,-0.0156422518,-0.00187224522
91383.048319,0.0830422577,0.00298924494,0.165166012,0.00680736499,-0.00741121825,0.000355488621
91383.058345,0.0604435865,0.0157378135,0.194790751,-0.0063776793,0.00221983716,0.00110809784
91383.068372,0.0600258817,0.0259520412,0.202051097,-0.00815613754,0.00732325297,0.00204260135
91383.078399,0.0764966035,0.0247273948,0.160946933,-0.000938705227,0.0101904124,-0.000300448388
91383.088426,0.0632011142,0.0384322412,0.131427993,0.0104372539,0.0121859182,-0.000224547461
91383.098452,0.064102794,0.040834407,0.116940618,0.0198283587,0.018333558,-0.00153935049
91383.108479,0.0708011044,0.0331807504,0.0964332523,0.0174142048,0.0223338939,-0.00123042334
91383.118506,0.0708181149,0.0364078957,0.106971013,0.00447017467,0.0262098573,-0.00100378878
91383.128532,0.0811483063,0.0298749138,0.116855278,-0.00367963058,0.0271616727,-0.00229249243
91383.138559,0.0666646439,0.0302243117,0.0697778851,-0.00606981758,0.0232098065,-0.00695781782
91383.148586,0.0694934604,0.012544132,0.0300368263,-0.00727409916,0.0144536002,-0.00514127593
91383.158613,0.0692457601,-0.000267784091,0.011670564,-0.00178212835,0.010321972,-0.00429945067
91383.168639,0.0798088561,0.000351516851,-0.000910100582,0.00602785777,0.00792113226,-0.00189035479
91383.178666,0.0689842003,-0.000825417973,-0.0156254392,0.00712241698,0.00425688922,-0.00244935229
91383.188693,0.0569776777,-0.000363937942,0.0160328509,0.00844920427,0.000859228196,-0.0016466761
91383.198720,0.04615046,-0.0057275108,0.00145019881,0.00811897218,-0.0033099507,-1.97505578e-05
91383.208746,0.0317282706,-0.00425919181,0.0266477684,0.0139672738,-0.0118887909,0.00381759787
91383.218773,0.050204713,-0.00649403819,0.00450198759,0.0198390111,-0.0115431128,0.00369642396
91383.228800,0.0685778662,0.00202427237,0.0401192444,0.0108606964,-0.00614754856,0.00292783603
91383.238827,0.0414678917,0.00468918073,0.0785626646,-0.00967307482,-0.00923788082,0.00268282508
91383.248853,0.0588136792,-0.00285385506,0.0884083513,-0.0167645384,-0.0116728088,0.00105776405
91383.258880,0.0705331057,0.0306332579,0.059468088,-0.00193845597,-0.0130203683,-0.00227678008
91383.268907,0.0584437956,0.0406534974,0.0106160866,0.0146509074,-0.0142110679,-0.00359877292
91383.278933,0.0785212549,0.0322674349,0.0350210445,0.0137243932,-0.0137122571,-0.00316760689
91383.288960,0.0598274776,0.00370922978,0.095838209,0.0037412676,-0.00974894129,-0.00133535266
91383.298987,0.0597830494,0.00940671077,0.137896313,-0.00714653358,-0.000268886797,-0.00286107697
91383.309014,0.0415722243,0.0159090053,0.168210787,-0.0125167985,0.00791074615,-0.00244296063
91383.319040,0.0440888833,0.0144576375,0.186748899,-0.0158936866,0.0175511241,-0.00226932298
91383.329067,0.0538513806,0.0250374837,0.200209853,-0.0150515949,0.0217690356,0.000414344482
91383.339094,0.0595338559,0.0309934695,0.15080957,-0.0115748383,0.0255075842,0.00148999505
91383.349121,0.0655423071,0.0384709658,0.107913847,0.00188664231,0.0288538449,-0.000981152058
91383.359147,0.0707511323,0.0411995139,0.0697381376,0.00209809723,0.030553475,-0.00448880158
91383.369174,0.0788255076,0.0566047345,0.0756114136,-0.00962620322,0.0318200737,-0.0114335269
91383.379201,0.0627405886,0.0519643613,0.0856675282,-0.0305631757,0.0346323699,-0.0135736428
91383.389227,0.070545376,0.0384540877,0.0761152714,-0.039418187,0.0333535224,-0.0131275635
91383.399254,0.0603529263,0.0427958432,0.0162643216,-0.0277468823,0.0233187303,-0.0111573562
91383.409281,0.0601746197,0.0334171164,-0.0575415039,0.00182592217,0.0111251818,-0.0132487379
91383.419308,0.067701362,0.0216745831,-0.102704003,0.0260540303,-0.000799654867,-0.00706168078
91383.429334,0.0893166892,-0.000221826057,-0.066771689,0.0368763171,-0.00305934716,-0.000408039428
91383.439361,0.108353626,0.00451667371,-0.046116439,0.0293654054,-0.0031701345,0.00296725053
91383.449388,0.0763139358,0.0157591485,-0.00245733002,0.0148072345,-0.00712093432,0.00253501954
91383.459415,0.0817259235,0.0156600721,-0.0136152684,0.00521186506,-0.0143458238,-0.00131564494
91383.469441,0.083834778,0.0208073718,0.0153793554,0.00148503762,-0.01962208,-0.00276147481
91383.479468,0.066083483,0.00478000082,0.0201508076,0.00183604215,-0.0250301585,-0.000789936632
91383.489495,0.075691315,0.0111728437,0.0316308175,0.0066811312,-0.0237126946,-0.0014184434
91383.499521,0.0815839304,0.0156772424,0.0851549025,0.00325071346,-0.0176113918,-0.00189514924
91383.509548,0.073107267,0.0124989777,0.121378893,-0.00440640748,-0.0166537203,0.00137734367
91383.519575,0.0693788484,0.00326820802,0.139925188,0.0072379983,-0.0119465822,0.00176217034
91383.529602,0.0796756308,-0.00913227774,0.115250766,0.0249227211,-0.000209231977,0.00239706784
91383.539628,0.0603288787,0.00570559123,0.128207862,0.0224118922,0.00291492231,0.00596623635
91383.549655,0.0766533604,0.00254427766,0.159653386,0.00877437554,0.00635759067,0.00610951427
91383.559682,0.0467950598,0.00244205939,0.143152918,0.0008376232,0.011072984,0.00215764949
91383.569709,0.0300801175,0.0221357709,0.115206342,-0.00932100508,0.0146259069,-0.00211246312
91383.579735,0.0432394542,0.0020347207,0.0892956555,-0.0180306062,0.0119169392,0.000876402948
91383.589762,0.0299944371,-0.0127854665,0.0485918892,-0.0132406456,0.00381400529,0.00387645373
91383.599789,0.0394824033,0.0131258774,-0.0140559979,0.00279318239,-0.00351820979,0.00176696386
91383.609815,0.0377333859,0.00695719873,-0.0243342308,0.0206560697,-0.00805170834,0.00323383324
91383.619842,0.0405901407,0.00358903747,-0.0378846172,0.0306919254,-0.015162616,0.00422825757
91383.629869,0.0560796009,-0.00843581991,-0.00238368027,0.0282474104,-0.010224049,0.00382851716
91383.639896,0.0644140474,-0.00628872488,0.0839285755,0.0105770696,-0.00443247287,0.00512973778
91383.649922,0.0604780368,0.00104622112,0.154393858,-0.00635477575,-0.000711237895,0.00384609401
91383.659949,0.064604702,0.000455561748,0.155370594,-0.00983100012,0.00541776093,0.00436274707
91383.669976,0.0747457275,0.0076991762,0.145707279,-0.00441972306,0.0142442761,0.00625518942
91383.680002,0.0863337918,0.0201842715,0.15608488,-0.00594092067,0.0200630166,0.00899185333
91383.690029,0.079374328,0.0420818497,0.143594816,-0.0101091135,0.0187537223,0.00726253353
91383.700056,0.0662580769,0.0644657502,0.101772275,-0.00556842331,0.0148700355,0.00652643573
91383.710083,0.0852234102,0.0757724493,0.0351525619,0.0139400298,0.00758282794,0.00235539302
91383.720109,0.0786966206,0.082285996,-0.0249187527,0.0346253328,0.00406133011,0.00193727668
91383.730136,0.100986742,0.0730205203,-0.0548521187,0.0335888304,-0.00274304673,0.000327928923
91383.740163,0.0947614923,0.074027067,-0.020535423,0.0229979735,-0.00437583076,-0.0018279003
91383.750190,0.0736968121,0.0712642512,0.00567278494,0.0060493499,-0.00737881102,-0.00443140697
91383.760216,0.0684015644,0.0624571868,-0.0109539402,-0.00139045645,-0.0118942009,-0.00578109641
91383.770243,0.0833994188,0.0451705365,-0.0280085354,0.000135801092,-0.0105908494,-0.00808100309
91383.780270,0.0986224329,0.0478648901,-0.0223258136,0.00140026992,-0.0192525145,-0.0109327147
91383.790296,0.0518138195,0.0454669621,-0.0181821379,0.00922037568,-0.0312013198,-0.0172262974
91383.800323,0.048670617,0.0449878003,-0.0235603238,0.0212296359,-0.0363172516,-0.0195083618
91383.810350,0.0574308192,0.0219147486,0.0314601371,0.0200344082,-0.0317275599,-0.0177413523
91383.820377,0.0524561497,-0.0149011435,0.10525135,0.00844219979,-0.0242949445,-0.0125103714
91383.830403,0.0604984448,-0.0313131299,0.159992994,-0.0034599991,-0.0157749597,-0.00705435406
91383.840430,0.0332029759,-0.0512350241,0.18263971,-0.00623314828,-0.00574363023,-0.00256160088
91383.850457,0.0172185992,-0.0502551462,0.178944362,-0.00338196848,-0.000579760876,0.000596907921
91383.860483,0.0196989585,-0.0522663399,0.174012751,0.00471404102,0.00169031764,0.00115057919
91383.870510,0.0364075807,-0.0302161284,0.162992175,0.0184218641,0.00500115938,0.00425422704
91383.880537,0.0570838369,-0.0219653097,0.129137252,0.0217675939,0.00863450952,0.00252769981
91383.890564,0.073100513,-0.0061547963,0.143812259,0.0100310417,0.0132641494,0.00215139519
91383.900590,0.0795831485,-0.000123261053,0.157730309,-0.00969472528,0.0162855051,-0.00188063085
91383.910618,0.0707364645,0.0152684424,0.137984575,-0.0230430197,0.0160807073,-0.00601865072
91383.920645,0.0746121414,0.0244365952,0.0732440999,-0.0209913217,0.0119093992,-0.00770789292
91383.930671,0.0752938081,-0.000521539656,0.0448258147,-0.0147792324,0.0127709322,-0.00520265754
91383.940698,0.061733325,-0.00536437658,0.0259381589,-0.012095565,0.0149805564,-0.000809507445
91383.950725,0.0603450261,-0.0117248515,0.0482031822,-0.0131142242,0.0147531228,0.00352132507
91383.960752,0.0488238942,-0.00112893096,0.032577743,-0.00455189496,0.0125770541,0.00840236619
91383.970778,0.0608920838,0.00444726173,0.0285246682,0.00664350111,0.0181891322,0.00942475442
91383.980805,0.0749544338,0.0318041283,0.0398515334,0.00272838841,0.019004859,0.0101837553
91383.990832,0.0555089751,0.0442362513,0.0855202286,-0.00819163769,0.015017841,0.00349442707
91384.000859,0.0602393646,0.0655593176,0.0685650022,-0.0124263298,0.0122705242,-0.00223802682
91384.010885,0.0651722088,0.0622248394,0.0439876103,-0.0122628119,0.00947873201,-0.00883121509
91384.020912,0.0726354117,0.0497265923,0.0274801276,-0.0119488249,0.00502006803,-0.0106789162
91384.030939,0.0642873888,0.0258848212,0.0338496626,-0.00691385288,-0.000275095343,-0.00933801476
91384.040965,0.057016795,0.0329802594,-0.00506254409,0.00952291116,-0.00532178534,-0.00470837485
91384.050992,0.0766464192,0.00932407399,-0.0391892701,0.0252033379,-0.00965235196,0.00131809199
91384.061019,0.0869543531,-0.00905636296,-0.0249053087,0.0279802158,-0.0137802511,0.00520044798
91384.071045,0.0589494664,0.00296637552,-0.00835340233,0.0200434625,-0.0147246085,0.0063810274
91384.081072,0.0594620601,0.0283246156,0.0159346512,0.00683631469,-0.0131056728,0.0036899033
91384.091099,0.0692516464,0.0547876751,0.0352361486,-0.000919343322,-0.0145461764,-0.00199488085
91384.101126,0.056428976,0.0688252606,0.0371942969,-0.000604557688,-0.0161523297,-0.00799285155
91384.111152,0.0615372955,0.0501893875,0.0466378325,-0.00216011005,-0.0167808346,-0.0108933011
91384.121179,0.0838883166,0.0360571826,0.0786497583,0.00482695922,-0.0099242609,-0.0119577656
91384.131206,0.0578220744,0.0314472777,0.099975455,0.0110907136,-0.0128960824,-0.00968502369
91384.141232,0.0598488903,0.0237234785,0.107750181,0.0244248956,-0.016408259,-0.00876197312
91384.151259,0.0840771446,0.00475486638,0.0865238527,0.0369883552,-0.0147871934,-0.00398905575
91384.161286,0.0702384427,-0.00124656599,0.107909171,0.0299506895,-0.00634337403,-0.00532329921
91384.171313,0.0700634697,-0.0160999248,0.164164142,0.0048469333,0.0060645598,-0.00246892311
91384.181339,0.0745864818,-0.0129012018,0.197451494,-0.0187832937,0.0203529522,-0.00146251451
91384.191366,0.051134669,-0.0273559167,0.151117613,-0.0237239916,0.0195614602,-0.000640130602
91384.201393,0.0392228344,-0.0186463213,0.031871056,-0.00958473701,0.0126590794,0.00272077881
91384.211419,0.0579725933,-0.00559913518,-0.0499947417,0.0129866181,-0.0002535237,0.00222330028
91384.221446,0.0408557374,-0.000825125713,-0.100163086,0.0262510255,-0.0157717634,-0.00273870118
91384.231473,0.0261070354,0.000820449537,-0.0821159732,0.0171012022,-0.0243149176,-0.00543169025
91384.241500,0.0437939783,-0.00781432701,-0.0139613053,-0.000951567548,-0.0259434413,-0.00315655116
91384.251526,0.0611132523,-0.0387611809,0.0508610032,-0.00592635293,-0.0270084385,0.00130850449
91384.261553,0.0653362037,-0.0408829223,0.0510159015,0.00218110881,-0.0277916752,0.00775148999
91384.271580,0.0701002855,-0.0397679468,0.0453945545,0.0127440039,-0.0240613855,0.0131161623
91384.281606,0.0861889947,-0.0321923239,0.0877653772,0.0119839385,-0.0186823327,0.0197737981
91384.291633,0.0767152832,-0.00328464769,0.14442776,-0.00225411961,-0.0118744932,0.0163966436
91384.301660,0.0534767752,0.0384708927,0.18189912,-0.0120465634,-0.00846910942,0.0115755228
91384.311687,0.0482179368,0.0793234198,0.177039405,-0.00483392365,-0.00255582645,0.00558634009
91384.321713,0.0724729922,0.0710372375,0.172691147,0.00713964831,0.00199285266,0.00355301658
91384.331740,0.0838204207,0.0711235276,0.131427409,0.0187885817,0.0106412023,0.00212396448
91384.341767,0.0763179635,0.0716117495,0.143375036,0.0178173278,0.0184147023,-0.00232271571
91384.351793,0.0595482543,0.0886463978,0.1666355,0.00246153958,0.0256209504,-0.00740802195
91384.361820,0.0627403283,0.0707883043,0.171522688,-0.0217029173,0.0306575205,-0.0116962427
91384.371847,0.0628313996,0.0458627565,0.149341836,-0.0338964686,0.0308604538,-0.0145700602
91384.381874,0.0583494958,0.0545178452,0.0794318486,-0.0206570942,0.026041463,-0.0152358515
91384.391900,0.0611100009,0.037383755,-0.0048678983,0.00253584189,0.018046122,-0.0125900013
91384.401927,0.0742096022,0.00959689958,-0.0411871659,0.0207654461,0.0133158145,-0.0104967551
91384.411954,0.0606347024,-0.00656659197,-0.0312117153,0.0233391244,0.00821026787,-0.00755103398
91384.421980,0.0587326133,-0.0154033208,0.0117108961,0.0172609929,0.00867152773,-0.00646446366
91384.432007,0.0742794252,-0.0198425454,0.0204430686,0.00474280305,0.0108300196,-0.00706287567
91384.442034,0.0602298662,-0.0196955381,0.0363473247,-0.0134495161,0.00340672489,-0.00251259934
91384.452061,0.0487824525,-0.0297903773,0.0189952078,-0.0191124603,-0.00721902121,-0.00286892988
91384.462087,0.0614146555,-0.00902969415,-0.0412140539,-0.00211483636,-0.0217516255,-0.00326494221
91384.472114,0.0562633417,-0.00520180643,-0.0878483793,0.0215777103,-0.0331166685,-0.00232351478
91384.482141,0.0660643079,-0.0183418585,-0.0554442393,0.0232842639,-0.0387828052,-0.00261113606
91384.492167,0.0428521308,-0.0272367473,0.0296919584,0.00690395851,-0.0385412574,-0.00232697651
91384.502194,0.037717033,-0.0326692937,0.100161917,-0.00853651669,-0.0323792323,-0.00329929683
91384.512221,0.062094523,-0.0432370842,0.150423786,-0.0226102564,-0.0251828413,0.000959896948
91384.522247,0.0515032375,-0.0342590472,0.163637488,-0.0221780259,-0.0168721806,0.00262277434
91384.532274,0.0624356782,-0.0329130394,0.160665194,-0.0170253422,-0.0092467526,0.00813471898
91384.542301,0.0703910075,-0.0170541568,0.175000009,-0.0115834391,-0.00331749069,0.00944712479
91384.552328,0.066599319,0.0227204389,0.166255561,-0.0086845886,0.00483071711,0.00776267517
91384.562354,0.0639759756,0.0449229184,0.181175482,-0.0155813769,0.00933758449,0.00612296723
91384.572381,0.0400762958,0.0453240465,0.171007724,-0.019424051,0.0120718516,0.00243528793
91384.582408,0.0439402777,0.054318231,0.1612994,-0.0196299125,0.020388905,-0.00337040331
91384.592434,0.0577324279,0.0569180382,0.120328507,-0.0196128692,0.0271956772,-0.00589720998
91384.602461,0.0504765339,0.0565772619,0.122763041,-0.0221077185,0.0319851041,-0.00997610856
91384.612488,0.0564073579,0.0343448257,0.0887158098,-0.0247698147,0.0304958671,-0.0101862317
91384.622515,0.0618716329,0.0335008492,0.0440296959,-0.0199058168,0.0266822204,-0.00670015346
91384.632541,0.0608316315,0.0334470732,-0.0040080666,-0.0113197863,0.0235282388,-0.00252990983
91384.642568,0.0785006139,0.0308458046,-0.0525759904,-0.004543107,0.018140398,-0.00405110698
91384.652595,0.0616851521,0.0408206707,-0.0571796848,-0.00325173978,0.00958951935,-0.0105750533
91384.662621,0.0665709606,0.063037544,-0.0387391882,-0.00705100503,0.00465894304,-0.0147863096
91384.672648,0.077500497,0.0307997735,-0.0187380182,-0.0149558,-0.00483149756,-0.0140406238
91384.682675,0.0900534882,0.0165931882,-0.0358165788,-0.0117935631,-0.0129922219,-0.0119745443
91384.692701,0.0838449432,-0.00553359566,-0.0577794043,0.00391206425,-0.019263383,-0.00786911976
91384.702728,0.0869634497,-0.0133240303,-0.0415530766,0.0142067801,-0.0231654495,-0.00265012216
91384.712755,0.0829917331,-0.0305970906,-0.0167108963,0.0160182621,-0.0274981447,0.00344239129
91384.722782,0.0762093247,-0.0427937243,0.0307657251,0.00892333407,-0.0268256962,0.00670343172
91384.732808,0.0505910728,-0.0190537331,0.0892027165,0.00637708604,-0.023549743,0.00738573354
91384.742835,0.0524816404,-0.0122660457,0.0888648629,0.00260471832,-0.0173802637,0.00941346493
91384.752862,0.0643574995,0.00262859494,0.102469025,-0.000764979399,-0.0118656559,0.00967871584
91384.762888,0.062012562,0.0122102969,0.124324883,-0.00222013053,-0.00877319276,0.00702780485
91384.772915,0.0566266449,0.0339138139,0.13093115,-0.0030563632,-0.00927866157,0.00323839299
91384.782942,0.0726925944,0.043745326,0.111519178,-0.00659197569,-0.0031762938,0.00107750436
91384.792969,0.0767416232,0.0299842194,0.15768647,-0.0132914232,0.00331888953,0.000167235732
91384.802995,0.0783649318,0.0311070129,0.182219438,-0.0177245215,0.00901725516,-0.00268927123
91384.813022,0.0481018224,0.0300413564,0.160374686,-0.0138030164,0.0118969316,-0.00461526867
91384.823049,0.045259982,0.0119702046,0.120666945,-0.00789106544,0.0216891095,-0.00392923877
91384.833075,0.0488258304,-0.00409326066,0.117781161,-0.01623182,0.0271861404,-0.00213959441
91384.843102,0.02083597,-0.0384206969,0.110973234,-0.0349035114,0.0259312578,-0.0041553406
91384.853129,0.00474107303,-0.0328897316,0.0613560937,-0.0459841229,0.0164722428,-0.00337396935
91384.863155,0.0351016492,-0.032857729,-0.00230944599,-0.0401217081,0.00585794728,-0.00170416757
91384.873182,0.0536842439,-0.029991599,-0.0668441697,-0.020674238,-0.00237228558,0.00324984454
91384.883209,0.068208284,-0.044668286,-0.082727383,-0.0101286536,-0.0125104068,0.0108489087
91384.893236,0.0638247945,-0.0296488499,-0.0476700982,-0.0021120063,-0.017770417,0.0152013125
91384.903262,0.068390358,-0.00783434689,-0.0225350724,0.000527186319,-0.0166138075,0.016828239
91384.913288,0.0662067486,0.0120049836,0.0385036259,0.000421192497,-0.0162042119,0.0178562179
91384.923315,0.0804357467,0.0388211674,0.076652447,0.00107659644,-0.0141258808,0.019452516
91384.933341,0.0656205325,0.0645660687,0.0932306569,0.00507400092,-0.0120502133,0.0151192872
91384.943368,0.0514414882,0.100151469,0.106018242,0.0143295517,-0.0134206759,0.0107434476
91384.953395,0.0504295575,0.104934027,0.0890858122,0.0237057433,-0.0117055997,0.00469753891
91384.963421,0.0934499987,0.104245534,0.131530285,0.0195315033,0.000249063887,-0.00150176696
91384.973448,0.0637237453,0.101235319,0.183953715,0.00158366235,0.0152045777,-0.00825314689
91384.983475,0.0662013144,0.10174093,0.224478033,-0.0283539966,0.0289688595,-0.0130076883
91384.993502,0.0662716671,0.0902663272,0.24261867,-0.04299739,0.0400374867,-0.0156985447
91385.003528,0.0410754355,0.0689553897,0.180426125,-0.0328952186,0.0413269922,-0.0207582861
91385.013555,0.0540196133,0.0513387768,0.091430914,-0.00711315684,0.0378896482,-0.0181220211
91385.023582,0.0810431289,0.0374533862,0.0291629661,0.0117870318,0.0351860076,-0.0156293027
91385.033608,0.0714567416,0.0104227559,0.0332265623,0.0189863555,0.0323015377,-0.0110047245
91385.043635,0.0601412654,-0.00648176323,0.0300847571,0.0185509287,0.0277368799,-0.00932879839
91385.053662,0.0590383229,-0.00125540689,0.0149713592,0.0169290621,0.0246851631,-0.0111647816
91385.063688,0.0531420405,-0.00385791754,0.0129436527,0.00241616648,0.0270340741,-0.00943266135
91385.073715,0.0554273704,-0.0215540255,0.0302227043,-0.0166198425,0.0196414031,-0.0117219137
91385.083742,0.0546170906,-0.0338094768,-0.00224281049,-0.0165167786,0.00903935917,-0.0108017912
91385.093768,0.0613663502,-0.0260006296,-0.0780342568,0.000417996722,-0.00840541068,-0.00815194752
91385.103795,0.0684120355,-0.0315877821,-0.126766431,0.0222844128,-0.0210248008,-0.00340060145
91385.113822,0.0688563498,-0.0353297451,-0.11696283,0.0268165804,-0.028429985,-0.00404215697
91385.123849,0.0682507851,-0.0309711115,-0.0316676424,0.0047608139,-0.0264440663,-0.00260511506
91385.133875,0.0395265027,-0.0253152047,0.0616068536,-0.0168238413,-0.0273844264,-0.00382271223
91385.143902,0.0444036118,-0.0331932445,0.080470544,-0.0200236291,-0.0301844776,0.000565377995
91385.153929,0.0543137192,-0.0463680026,0.0682978757,-0.00266221538,-0.0308422782,0.00501312362
91385.163955,0.0709927956,-0.052854442,0.0659860916,0.0157657936,-0.0279527456,0.0128460135
91385.173982,0.0878823273,-0.0217235368,0.110402741,0.0212303344,-0.0232559964,0.0180431716
91385.184009,0.0653047674,0.0185768363,0.158881817,0.011890362,-0.0139650255,0.0140966335
91385.194035,0.0427509994,0.0554710543,0.211518598,-0.00262945844,-0.00127266627,0.00499341637
91385.204062,0.0360957748,0.0776164698,0.231772866,-0.0100367749,0.00728273857,-0.00381685328
91385.214089,0.0526327986,0.0779998431,0.201660052,-0.016127957,0.0195889398,-0.00794395339
91385.224116,0.0739097242,0.0408778808,0.199715932,-0.0175223872,0.0307265446,-0.0092707416
91385.234142,0.067684388,0.0313601839,0.182666598,-0.0191786066,0.0410601422,-0.00918658543
91385.244169,0.0631750436,0.0168687172,0.158150581,-0.0202683732,0.0420015678,-0.00521954056
91385.254196,0.0566787907,0.000731017688,0.111200029,-0.0199740939,0.0427304767,-0.00264239963
91385.264222,0.0498516435,0.0179968445,0.0603279197,-0.0158845447,0.0403410904,0.000198394991
91385.274249,0.0569295277,0.0346200625,0.0260422038,-0.0131545374,0.040097408,-0.000562470406
91385.284276,0.0615186182,0.0557540359,0.00262450328,-0.00368673354,0.0345505774,0.000152587891
91385.294302,0.0745576256,0.0427040002,-0.0325502705,0.0065278206,0.0297997668,-0.000535572879
91385.304329,0.0812675031,0.0612879239,-0.0478933856,0.0131961098,0.0231554434,0.00196247268
91385.314356,0.0638264522,0.0667887863,-0.0330430224,0.0135609629,0.0204731077,0.00184422825
91385.324382,0.0963363861,0.0600408464,-0.000537760139,0.0129018305,0.0213879049,6.86990097e-05
91385.334409,0.106417188,0.0529229772,0.0262993934,0.0100570424,0.0192805454,-0.00284985919
91385.344436,0.100704007,0.0853662802,0.0111222825,0.00707563292,0.0134716583,-0.0101320064
91385.354463,0.0813236994,0.0807188928,-0.0145434891,0.0125478962,0.00411650632,-0.0173363909
91385.364489,0.0832533249,0.0682589319,-0.0481885691,0.0174648911,-0.00607567746,-0.0223990604
91385.374516,0.0736759931,0.0342735871,-0.0414320806,0.0136927897,-0.0102696232,-0.0274657235
91385.384543,0.0609452479,0.00232961199,0.0105716629,0.00316078635,-0.01199908,-0.0238363668
91385.394569,0.0460299846,-0.0448912811,0.0149064772,-0.00121745048,-0.0137357274,-0.0170186758
91385.404596,0.0483122092,-0.077636928,0.024632337,0.00450222008,-0.0150835542,-0.0060762791
91385.414623,0.0641325544,-0.102332905,0.0263642753,0.0115188509,-0.0175357908,0.00608770922
91385.424649,0.0637667716,-0.102916988,0.0368324778,0.0253433213,-0.0129612805,0.0149491113
91385.434676,0.0592344528,-0.0716935095,0.0489969629,0.0339040495,-0.00582214445,0.0226368569
91385.444703,0.0874655814,-0.0345571533,0.074647537,0.0218215566,-0.00205989671,0.0260531604
91385.454729,0.0634334799,0.00659998279,0.113148825,0.00428863522,-0.00518271932,0.0171329044
91385.464756,0.0368196184,0.0422292954,0.108384971,-0.00879547466,-0.00353795104,0.00702727214
91385.474783,0.0475944894,0.0563072128,0.121507488,-0.0150626916,-0.00330066355,-0.00375613291
91385.484810,0.0453234072,0.0490904133,0.121790981,-0.0161894746,-0.00230783713,-0.00999165792
91385.494836,0.0192571536,0.0289443549,0.124922265,-0.0161806867,0.00220595463,-0.0128303217
91385.504863,0.00863139272,0.00472885515,0.12324118,-0.00979336165,0.00109168806,-0.00985850114
91385.514890,0.0298882779,-0.015617475,0.102330494,0.00259513082,0.00679617887,-0.00160296727
91385.524916,0.0475787575,-0.00292304784,0.0998731636,0.00915076863,0.0116841448,0.0034740828
91385.534943,0.0279324539,-0.00280219794,0.0882879398,0.00530702807,0.00703905942,0.00905526988
91385.544970,0.0470898187,0.0159190153,0.0701280137,0.0102546485,0.00661108922,0.00968404207
91385.554996,0.0756000839,0.045656055,0.0649386284,0.0150027983,0.0116508557,0.00543709891
91385.565023,0.0959950436,0.0724430127,0.0596083733,0.00644526258,0.0123739038,0.0045473366
91385.575050,0.0974691804,0.0846609084,0.0789022718,-0.00375517667,0.0127611272,0.000618108548
91385.585076,0.120629536,0.073872534,0.0544014523,-0.00333706033,0.0109246112,-0.00628134236
91385.595103,0.116925366,0.0656925886,0.0157891053,0.00435281731,0.0108287372,-0.00975224096
91385.605130,0.100624722,0.0547637828,0.00194295076,0.00943439547,0.00567498803,-0.00930962246
91385.615156,0.116164885,0.0347585942,0.0145662855,0.0135263419,0.0035247521,-0.00606749114
91385.625183,0.0923492983,0.018658304,0.00158639241,0.00854702946,-0.00154191186,-0.00338808447
91385.635210,0.0707405698,0.0166837891,0.0262532162,-0.00161692465,0.000277826039,-0.00289273635
91385.645237,0.0465379524,0.0372680928,0.0601291823,-0.00888202805,-0.000955217518,-0.00600597169
91385.655263,0.0503017984,0.00573262537,0.0314607217,0.000685378094,-0.0026290142,-0.00357317366
91385.665290,0.0614290037,-0.00035429333,-0.0109428343,0.0162129384,-0.00665917573,-0.00080108922
91385.675317,0.0676125375,0.0144888363,-0.0130868606,0.0329919159,-0.0114291636,0.00116245914
91385.685343,0.0580086647,0.0270722044,-0.00156827223,0.0387142524,-0.0142310755,-0.00031532906
91385.695370,0.0684439925,0.015943346,0.0283475581,0.0350843333,-0.0142876143,-0.00303340983
91385.705397,0.0571938047,0.0272391585,0.0641793344,0.0200987253,-0.0194251183,-0.00543158688
91385.715423,0.0614393653,0.00651332742,0.0754670367,0.00455784844,-0.0197143368,-0.00468323845
91385.725450,0.0472315652,0.00172813897,0.0705032768,0.00601965794,-0.0196943637,-0.00646276213
91385.735477,0.0417844742,-0.0205549314,0.0536766451,0.0119736865,-0.0205084924,-0.0048470227
91385.745503,0.0413363058,-0.0270912013,0.0319920521,0.0203954019,-0.0245431811,0.000593548641
91385.755530,0.0378884509,-0.0360895505,0.0474924035,0.0279364083,-0.0203961059,0.00467990339
91385.765557,0.0382619786,-0.0310628815,0.0913993498,0.0258916337,-0.014762722,0.00862564333
91385.775583,0.0371483457,0.00647467591,0.120541858,0.017597219,-0.0154381003,0.00494888239
91385.785610,0.0501642622,-0.00349931336,0.135229724,0.0123627745,-0.0129648214,0.00292115193
91385.795637,0.0586641969,0.0104836193,0.106834235,0.0138144642,-0.009869962,-0.000183560885
91385.805663,0.0631332595,0.0204193954,0.111658294,0.0112927165,-0.00790321827,-0.00247228239
91385.815690,0.0583892296,0.0148836078,0.118037766,0.000295725768,-0.00280406303,-0.00609950721
91385.825717,0.0567929368,0.0231727858,0.126017659,-0.0103553208,0.00242452091,-0.00384514127
91385.835743,0.0658575196,-0.00299457871,0.126722592,-0.0124099497,0.00528395735,0.000472375192
91385.845770,0.0623555805,-0.00334770299,0.0869645822,0.00128722063,-0.00148792891,0.00429347856
91385.855797,0.0605621532,0.00370301924,0.0198036016,0.0255283788,-0.00277210516,0.00764240371
91385.865824,0.0964239274,0.0153681034,-0.0181885676,0.0337455608,-0.00113878842,0.00876439363
91385.875850,0.101800077,0.0311761326,0.0132815064,0.0205416102,0.000354445947,0.00291103171
91385.885877,0.0660253733,0.0671742785,0.0501660067,-0.00473258877,0.00028120901,-0.00409414712
91385.895904,0.0478723336,0.0544169421,0.0562912115,-0.0227478072,0.00184768043,-0.00784361176
91385.905930,0.0676358179,0.0317626272,0.0262871184,-0.0251446515,-0.00131775299,-0.00764307566
91385.915958,0.0667866811,0.02210786,0.0147843122,-0.0108362874,-0.010060112,-0.00582413655
91385.925985,0.0556310306,0.0180205176,-0.00648760845,0.0178736541,-0.0185119193,-0.00491466653
91385.936011,0.0581517676,0.0220144826,-0.0124286889,0.0362806246,-0.0204696096,-0.00251835492
91385.946038,0.0668915708,0.00780775114,0.0572726238,0.0350611657,-0.0137754884,0.000837228261
91385.956065,0.0878196921,-0.0026612551,0.131273095,0.0147886481,-0.00656311493,9.50051472e-05
91385.966091,0.0618059198,0.0159774675,0.169245975,-0.00425721426,0.00393719645,-0.00179477409
91385.976118,0.0483185476,0.019040143,0.150481653,-0.013584936,0.0089338189,-0.00684838835
91385.986145,0.0535120109,0.0119436088,0.11992168,-0.00960750505,0.00513482001,-0.00708567537
91385.996171,0.0337219377,0.00670592738,0.0514016859,0.00663325004,0.00408526836,-0.00674985163
91386.006198,0.0690619965,-0.0065396309,0.0346907896,0.0154421879,0.00848694053,-0.00139157102
91386.016225,0.0611678411,-0.0096897655,0.0684007515,0.00952491071,0.00529807154,-0.00112365745
91386.026251,0.0617858269,-0.0223306359,0.0834662187,0.00210081646,0.00288871001,0.00324765546
91386.036278,0.0711889666,0.00698525578,0.0639876113,0.00362893799,0.00295608817,0.00312328571
91386.046305,0.0709482532,0.00365318875,0.0595697948,0.0132591948,0.00324424193,0.00780032948
91386.056331,0.0956046012,0.00230981131,0.0254372236,0.0219589435,0.00421389891,0.0076961997
91386.066358,0.100874203,0.00428651821,0.0207668937,0.0178709924,0.00241733063,0.00685677119
