t,ax,ay,az,gx,gy,gz
94279.136171,0.0734995794,-0.74867344,0.0118149965,-0.00240349485,-0.00324685756,-0.0193994816
94279.146199,0.0811088123,-0.719874485,0.128996438,-0.00151160215,0.00123817217,-0.0142678374
94279.156228,0.0543040998,-0.733208672,0.0821224584,-0.00630156388,0.00453117094,-0.0115506144
94279.166256,0.0801587451,-0.697681577,-0.00113274789,-0.00526080066,0.00551547505,-0.00784695499
94279.176284,0.106261885,-0.645779175,-0.102051621,-0.0105394518,0.00595116824,-0.0072807686
94279.186313,0.13836222,-0.665139636,0.0648831543,-0.019353715,0.0069535824,-0.00284687128
94279.196341,0.0978174436,-0.366013116,0.00164840726,-0.006228327,0.00738075305,-0.000463342071
94279.206370,0.0970778773,-0.365906806,0.00155897541,0.00268660514,0.00662308395,-0.00148706116
94279.216398,0.090373192,-0.420706866,-0.0849818284,0.00158245832,0.000817392657,0.000594998002
94279.226427,0.0613597905,-0.507765301,-0.0988607162,0.00540755671,-0.00645063981,0.000593667142
94279.236455,0.0910936883,-0.478253046,-0.0601881635,0.00524750054,-0.00327695092,0.001930041
94279.246484,0.194210364,-0.558191566,0.173247667,0.00987767224,0.00401265337,-0.0033563336
94279.256512,0.225232402,-0.526370011,0.225669929,0.00659932085,0.0140836628,0.0135597989
94279.266541,0.260678978,-0.402267575,-0.0643230713,-0.0170181237,0.00876692845,0.0105935701
94279.276569,0.0277117879,-0.208824714,-0.357179644,-0.00444773743,-0.00797956088,0.0128764317
94279.286598,0.0290187788,-0.209391809,-0.357022408,-0.0126300335,-0.0169440277,0.00548669253
94279.296626,0.0625874326,-0.289659104,0.0665063716,-0.00451644668,-0.0158036605,0.0047244958
94279.306654,0.0488383087,-0.390561976,0.305958102,0.000501747642,-0.0110227552,-0.000670536198
94279.316683,0.0277911367,-0.37603679,0.351076762,-0.00470925979,-0.00481226319,-0.00293901633
94279.326711,0.069775006,-0.504515395,0.101827276,-0.0191483863,-0.00458429684,-0.0017941238
94279.336740,-0.00583238901,-0.499575564,-0.0271293589,-0.0385599036,-0.00064867747,-0.000970674455
94279.346768,-0.0833991014,-0.193520926,0.00801151255,0.0164825793,0.00352236558,-0.00989146508
94279.356797,-0.0149842482,0.19396543,-0.439006863,0.0454950545,0.00405952497,-0.0230682555
94279.366825,0.113468602,-0.241781209,-0.279802974,-0.00222559571,-0.0039882816,-0.0163925055
94279.376854,0.105096202,-0.859158964,0.191910282,-0.0285123263,-0.00306336559,-0.0051723437
94279.386882,0.0597443911,-0.556321899,0.209284611,0.0225378078,0.000490090107,-0.000471330956
94279.396911,0.101016605,-0.295942934,-0.0865360722,0.0241530154,-0.00144975645,0.00496418051
94279.406939,0.0608400774,-0.785291252,0.0811030522,-0.0292481568,-0.00833695778,0.0183273901
94279.416967,-0.0768776637,-1.02264009,0.120146776,-0.0346594352,-0.0132928344,0.0202954665
94279.426996,-0.152526194,-0.545000843,-0.106553024,0.012456145,-0.0117679082,0.022304022
94279.437024,-0.103022232,-0.478128433,-0.0344382206,0.0192780986,-0.0118310249,0.0234877963
94279.447053,-0.151637575,-0.843808396,0.161431557,-0.00613591512,-0.0144411887,0.0253722493
94279.457081,-0.154834033,-0.927066233,-0.00210013162,-0.0113421289,-0.0135154745,0.0256606687
94279.467110,-0.0868716728,-0.76162155,-0.119438225,0.0207958341,-0.00852843863,0.0288687136
94279.477138,-0.0723729727,-0.771565802,-0.102460787,-0.0218895778,-0.00555129047,0.0347079609
94279.487167,-0.146807086,-1.01465048,-0.0279903597,-0.0787030581,-0.0117497987,0.0488200497
94279.497195,-0.200626135,-0.702146594,-0.574064153,-0.0511755619,-0.0297876534,0.0475252208
94279.507223,-0.0041623369,-0.142085027,-0.69387302,-0.0408504877,-0.0276283633,0.0450530101
94279.517252,0.149936411,-0.335316803,0.338506619,-0.0277184371,-0.0302289401,0.0485481408
94279.527280,-0.102443044,-0.417430804,0.683596067,0.0396640625,-0.0270685658,0.0455992233
94279.537309,-0.338101373,-0.57114574,0.436382471,0.0522879798,-0.01923621,0.0469451856
94279.547337,-0.212348941,-1.28003496,0.248452838,0.00158805091,-0.0112760218,0.0605443504
94279.557366,-0.122182859,-1.72628309,-0.0180692696,-0.067919654,-0.0139626192,0.0727096733
94279.567394,-0.205029412,-1.36696257,-0.279158831,-0.0639920283,-0.0124065338,0.0787694242
94279.577423,-0.111022437,-0.487517426,-0.117345636,0.0149038563,-0.000581832258,0.0800040674
94279.587451,-0.054370283,-0.297230928,0.119174716,0.0415948544,0.0119723089,0.0932639476
94279.597479,-0.0894865315,-0.789414104,0.251955293,-0.0111967206,0.00309812394,0.103623376
94279.607508,-0.0987712233,-1.11299329,0.0885422623,-0.0245705817,0.0329753279,0.117122145
94279.617536,0.334324718,-0.847050447,-4.55371778e-05,-0.0302987743,0.0305646367,0.120171198
94279.627565,0.270144434,-0.604444052,-0.457433916,-0.0325414252,0.0278554026,0.136705169
94279.637593,0.293979044,-0.642483056,0.377107275,-0.0197547872,0.0418505787,0.136700371
94279.647622,0.40670979,-0.253765606,0.541202443,-0.00704698236,0.0515460826,0.136022323
94279.657650,0.341900633,-0.1892366,0.120653557,-0.0329544816,0.0300607651,0.134693676
94279.667678,0.259751634,-0.42476754,-0.0981230496,-0.0613099571,0.0328629434,0.131294155
94279.677707,0.424408163,-0.097689238,0.33772219,-0.0443525437,0.0423134349,0.115340219
94279.687735,0.265886922,0.466803918,-0.311437299,0.013438585,0.0128463579,0.102163696
94279.697764,0.296861249,0.379261097,-1.10116553,0.0160372991,-0.0214306538,0.0878034022
94279.707792,0.283654853,-0.415311693,0.180878016,-0.0141440408,-0.0121066619,0.0945459914
94279.717820,0.230542856,-0.812147476,1.13253051,-0.0297243308,-0.0124603298,0.0811971661
94279.727849,-0.0733594995,-0.42716112,0.00316757965,0.00272149248,-0.0267670967,0.0808948961
94279.737877,-0.175764301,-0.442029202,-0.615067195,-0.0442420218,-0.0415058315,0.0836994734
94279.747906,-0.349306731,-0.515710634,-0.432092554,-0.0375415098,-0.0533806004,0.0855311912
94279.757934,-0.344394555,0.236395271,-0.526992605,0.100382569,-0.0411434129,0.0561934721
94279.767963,-0.0644587655,0.325652768,-0.108363873,0.0383231927,-0.0269335837,0.0498207968
94279.777991,0.0823468297,-1.02964909,0.794400375,-0.0460020762,-0.0237558999,0.0713364717
94279.788019,-0.0412080922,-0.981642165,0.52794198,-0.0256952058,-0.0102398258,0.0573309075
94279.798048,-0.274950066,0.163366056,-0.330099329,0.0237557001,-0.040458183,0.0441914063
94279.808076,-0.317083427,-0.00596537007,-0.52550149,0.0236856591,-0.00944354129,0.0582675424
94279.818105,0.0466047775,-0.657671127,0.656810936,-0.0296262979,-0.00796255679,0.0510085646
94279.828133,-0.338345192,-0.395739671,0.131429218,-0.0626079489,-0.00818786049,0.0361361403
94279.838161,-0.24808113,0.0922431129,-0.329337697,0.0282561768,0.00906329765,0.0218730506
94279.848190,-0.104935007,0.3932376,-0.583637453,0.0545865845,-0.0193217371,0.00798146822
94279.858218,-0.2884949,-0.477627571,0.103096273,-0.0468598802,-0.0110582153,0.0174953465
94279.868247,-0.204941587,-0.898955479,1.05357037,-0.0265354339,-0.0135240362,0.00620780349
94279.878275,-0.390475119,0.135304274,0.0543109069,0.0501966279,0.0111501513,-0.019664007
94279.888304,-0.237427853,0.220218335,-0.296424439,0.00518920767,-0.0185510193,-0.026413257
94279.898332,-0.454632972,-0.940417371,-0.0351466612,-0.157113415,0.00291698868,-0.0121235342
94279.908360,-0.22726572,-0.622721759,0.820741269,-0.0649299595,0.0213199656,-0.0235506247
94279.918389,-0.423835683,1.20768326,-0.972144603,0.147246751,0.00994666828,-0.0617299664
94279.928417,-0.345449836,1.24632403,-1.81529931,0.0616681937,-0.0327299566,-0.0959878031
94279.938446,-0.0579076634,-1.03016778,0.471450277,-0.0518794071,-0.0181787082,-0.0486514482
94279.948474,-0.00755979732,-1.28335592,1.64040404,-0.0421575356,0.0323169536,-0.0716313336
94279.958502,0.374610478,0.520313828,0.469246045,0.0331678454,0.0472397103,-0.0964021969
94279.968531,0.250599483,0.439711365,-1.19889701,0.101628664,-0.00148228708,-0.0710710052
94279.978559,-0.383263872,-0.676547604,-1.30249416,-0.0800753508,-0.0552608327,-0.0825628105
94279.988588,-0.0855957346,-1.08009604,0.58214411,-0.076084343,0.0146332995,-0.0552489001
94279.998616,0.479530038,-0.385208961,1.43665257,0.0437917251,0.0117408398,-0.0774034697
94280.008644,-0.285008373,0.532233289,0.0934405558,0.139331299,0.0290737587,-0.0863098789
94280.018673,-0.0656769822,-0.413228639,-0.103407712,0.00756794289,0.00766993244,-0.0872840646
94280.028701,-0.126947882,-1.47550946,-0.123024851,-0.104714652,-0.001508386,-0.05229492
94280.038730,-0.166470476,-0.803302929,-0.465377568,-0.0450904753,-0.00507196156,-0.0688941393
94280.048758,0.14712318,0.813905985,-0.66939149,0.0650474828,0.0192842453,-0.0727511931
94280.058786,0.50744863,0.226494,0.387186771,0.0768239822,-0.00926111476,-0.0614327553
94280.068815,-0.56839949,-0.720300675,0.700982671,-0.0244842667,-0.0201771439,-0.0590124789
94280.078843,-0.207461096,-0.702318516,0.600253183,0.0606628533,0.0372081145,-0.0489055168
94280.088871,0.644140609,-0.385840172,-0.78025951,0.030554219,-0.000709437653,-0.0479385208
94280.098900,-0.309587445,-1.09981327,-0.840695567,-0.13890591,-0.0453014069,-0.0264127243
94280.108928,-0.541173191,-1.1757887,0.764858054,-0.0868365888,0.00384376873,-0.0219591211
94280.118957,0.228795209,0.665385037,0.67085349,0.086051571,0.0226147945,-0.0481976483
94280.128985,0.0610000172,0.832776544,0.0683283263,0.0485020604,0.024823087,-0.0406379986
94280.139013,-0.434209631,-0.658858875,0.393667949,-0.0568520587,0.0163526356,-0.0379279654
94280.149042,0.00821396426,-0.436216899,-1.00850245,-0.0757122982,0.0301462139,-0.0494706396
94280.159070,0.628467531,0.358639275,-0.989541143,0.0328701016,0.00502781034,-0.0599855993
94280.169099,-0.163697358,0.13757453,-0.37849365,0.0457249161,-0.0202027105,-0.0626407701
94280.179127,0.0079654694,-0.5893837,1.52134804,-0.0591349203,0.0309861738,-0.0725799489
94280.189155,0.164903313,-0.393597362,1.40895675,0.0244217578,0.0173222932,-0.0571570534
94280.199184,-0.285873465,0.178445698,-1.58321957,0.0500592094,-0.0391620242,-0.0844643104
94280.209212,-0.411406994,0.142755595,-1.24292495,0.0629861977,-0.0353401185,-0.0721221555
94280.219240,0.181135924,-1.08117908,0.479948641,-0.0328314129,-0.0043643599,-0.0533338178
94280.229269,0.187547618,-1.05899195,1.69655029,-0.0327352706,0.0168509136,-0.0454351518
94280.239297,-0.321995895,-0.165311571,0.569342496,0.00840604008,0.0400955162,-0.0583568055
94280.249326,-0.165462541,0.411118381,-0.978387881,0.0353383224,0.00357106118,-0.065057053
94280.259354,0.287617693,-0.157335222,-1.59932022,-0.0691593189,-0.00535185985,-0.0540773708
94280.269382,0.221867602,-0.80880876,0.718672642,0.0334951457,-0.00599128497,-0.0148085316
94280.279411,-0.115238228,-0.534386254,1.53160523,0.0137805657,0.0446207568,-0.0486221563
94280.289439,0.123113871,0.0380582077,0.517729798,-0.00848266221,0.0574071265,-0.0477840591
94280.299467,0.275003199,-0.103180702,-2.10182785,-0.0128515784,-0.0641784251,-0.0559405226
94280.309496,-0.141576638,-0.203084837,-1.64313248,-0.021569702,-0.0090453981,-0.0488815482
94280.319524,0.522083013,-0.560533343,2.21702378,-0.0327198256,0.00623475504,-0.0259868826
94280.329552,-0.150007563,-0.168745162,1.29472598,0.0224390335,0.0135139727,-0.0501558695
94280.339581,-0.15919084,0.743930678,-0.567177901,0.00691360496,-0.00198775507,-0.0806040529
94280.349609,-0.101209556,0.269549718,-0.833355141,0.0535096031,-0.0159176842,-0.0431182
94280.359638,-0.170145657,-0.600990624,-0.429004525,-0.0522916626,-0.0210253608,-0.0567056451
94280.369666,0.0303604758,-0.285785733,0.14178227,0.00160459283,-0.0155552293,-0.0523258138
94280.379694,0.122698349,-0.273687025,0.357843772,0.0926309105,-0.00775855897,-0.0298814911
94280.389723,-0.199900598,-0.542162185,0.457700569,0.0868095037,0.00395881733,-0.0457078579
94280.399751,-0.229694482,-0.621354197,-0.25750288,-0.107760777,-0.0134984704,-0.0580476138
94280.409779,0.125182932,-0.725850052,-0.601088354,-0.0411194351,0.0106649229,-0.0239479679
94280.419808,0.206423876,0.409366422,-0.960919444,0.0357324693,-0.0246675008,-0.0597677517
94280.429836,0.0648804389,0.774283219,-0.464189235,0.0575743828,-0.00208948763,-0.0325507771
94280.439864,0.458125723,-0.912495198,1.84784677,-0.12204278,-0.00742086932,-0.0195548188
94280.449893,-0.336197366,-0.498459164,1.4792987,0.0477156293,0.0190038129,-0.0152777822
94280.459921,-0.144264343,0.837763904,-1.05592471,0.150437477,0.00492314784,-0.0522235471
94280.469949,0.213788413,0.134179408,-1.48838323,0.0296186496,-0.0105093385,-0.0412880767
94280.479978,0.130741589,-1.97581343,0.472127154,-0.123435346,-0.0181110643,0.00973569252
94280.490006,0.0302014127,-1.30540526,0.840077253,-0.0427740563,-0.0243322079,-0.00788271591
94280.500035,-0.0578486266,0.774446885,0.827483145,0.133194315,0.0879112377,-0.0272742573
94280.510063,0.493761977,0.459289012,0.543119675,-0.00160132041,0.0246209528,-0.019224054
94280.520091,-0.343222442,-0.465190297,-2.10024613,-0.120045138,-0.0300449554,-0.0272782508
94280.530120,-0.246386601,0.302574985,-1.78743106,-0.0980381045,-0.0573333048,-0.0325784746
94280.540148,0.38992729,0.723139965,0.167397772,0.16917974,0.0137278249,-0.00652343851
94280.550176,0.722380033,0.21560401,1.40455998,0.0516318072,-0.0394432538,-0.0529846798
94280.560205,-0.671934757,-0.603129791,1.24784966,-0.0537292372,-0.013313913,-0.0290210235
94280.570233,0.136233245,-0.63155257,0.255973297,0.135080102,-0.000199176027,-0.0292782846
94280.580261,0.0122930503,-0.0370081666,-1.60886137,0.0283911981,-0.0259442192,-0.0319249358
94280.590290,-0.0927099505,-1.3044465,0.468777259,-0.1494555,-0.000962171592,-0.0280468378
94280.600318,0.154360657,-0.772046425,0.387082141,-0.0296430748,-0.0242445909,-0.0063229024
94280.610346,-0.0878554962,0.112843683,0.328786604,0.064614455,0.0208682928,-0.00980312169
94280.620375,-0.162299766,0.023865055,1.01719148,0.0894958328,-0.023800907,-0.0331723604
94280.630403,-0.306400559,-0.143784926,-0.657609282,0.208939674,0.00460276962,-0.0355481643
94280.640431,0.35142001,-0.982980136,-0.313032459,0.0177633211,0.0468189313,-0.0426321726
94280.650460,1.00608774,-1.87898928,0.321464883,-0.197796655,0.0361846618,-0.0288457859
94280.660488,-0.311008637,-1.22128562,-1.51498833,-0.0484982554,-0.0914755643,0.0419911009
94280.670516,-1.15919915,0.20860847,-1.00114741,-0.110056688,-0.0340197266,-0.00234973222
94280.680545,0.951485287,0.647779238,1.96447174,0.148101362,0.067946051,0.0575378362
94280.690573,0.737417297,-0.513656112,1.01575881,0.00053879577,0.000999779087,0.0527886201
94280.700601,-1.13251821,-0.848975935,-0.47387184,0.0882707786,-0.0331342251,0.0449903544
94280.710630,-0.160814496,-0.830935836,-1.11103226,-0.0729021255,0.0297078572,0.0174114567
94280.720658,1.16554992,-0.915479475,0.428214947,-0.00940464828,0.021542073,0.0623736058
94280.730686,0.156291333,-1.01321782,0.412860726,-0.0596438508,0.0369314149,0.0654655334
94280.740715,-0.360576167,-0.145385649,1.04239139,-0.0299887538,0.03652395,0.0536629383
94280.750743,-0.11915299,0.459243346,-0.845346023,-0.0331387419,0.00802546436,0.0462825198
94280.760771,0.58096351,0.33762469,-0.972762442,-0.0462448049,0.0221374768,0.0630615291
94280.770800,0.619631898,-0.171494424,0.490529656,-0.0297664974,-0.0178080734,0.0774617728
94280.780828,-0.438382387,-0.0685798652,0.886539145,-0.038208184,0.0141264235,0.0430694458
94280.790856,0.363676558,0.633060246,0.517968283,0.036174706,0.0385737091,0.0236427535
94280.800885,0.489152949,0.489742968,-1.01298456,0.171239587,-0.0125499286,0.0369782646
94280.810913,-0.617946123,-0.661363113,-0.105476335,-0.0941324357,-0.0126625795,0.00828856345
94280.820941,-0.289871303,-1.24121833,0.619338992,-0.142778275,-0.00313112629,0.0375521753
94280.830970,0.469215711,-0.090088572,-1.20812135,0.0110571001,-0.0246912811,0.0316285056
94280.840998,0.122120622,0.996590703,-0.893393722,0.0580634911,-0.0371404917,0.0171973698
94280.851026,-0.162728878,-0.22366651,0.807313633,0.00272034044,-0.0342980989,0.0432777044
94280.861054,0.0886665342,-1.27734485,1.75327814,-0.136929703,0.00232222839,0.0579546515
94280.871083,0.127299486,-0.74265966,0.911343331,0.101988609,0.0153674565,0.059022845
94280.881111,-0.0373960596,0.116713409,-0.923410675,0.00229982734,0.0135208208,0.0216850613
94280.891139,0.0412365284,-1.15649546,0.00249304139,-0.313319636,0.0267990741,0.0584241685
94280.901168,0.415092564,-1.11816383,0.583320168,-0.00533119421,0.0544131256,0.102166587
94280.911196,-0.00138454275,1.61713098,-1.66541737,0.155778068,-0.0106668074,0.0174756695
94280.921224,-0.27643066,1.27287564,-0.520784398,0.0674516659,0.0355803191,0.0205476258
94280.931253,0.783926169,-1.40384181,1.65927591,-0.0530702185,0.00771006965,0.0470255699
94280.941281,-0.277571793,-1.0483809,0.259661046,-0.0296186909,0.0217364046,0.0465091851
94280.951309,0.576928409,0.212428175,-0.445974364,0.0754720446,0.0539116531,0.0531391252
94280.961338,0.55907448,0.0706459789,-0.789360516,-0.0056813999,-0.0426351235,0.0530312669
94280.971366,-1.30803172,-0.510141419,-0.227398249,-0.0403584179,-0.0192975805,0.0431719769
94280.981394,0.312174553,0.0430812007,-0.417811515,-0.0378784846,-0.0111078268,0.0280417625
94280.991422,1.11256176,-0.142579569,0.562743244,-0.0363072168,0.0194937575,0.0812477257
94281.001451,-0.11942377,-0.568731774,1.7382419,-0.0393608,-0.0010080546,0.0632349041
94281.011479,-0.539173104,1.00776925,-0.425170646,0.167405161,0.0344197124,0.0193867546
94281.021507,0.288015094,0.745076048,-2.08195586,0.0621740844,-0.0181319148,0.0116316297
94281.031536,0.64524404,-1.68561278,-0.52223752,-0.162139979,-0.00337054465,0.0570363935
94281.041564,0.296169832,-1.42914869,1.68496565,-0.0688923273,-0.0477396057,0.0463824172
94281.051592,-0.608163272,0.726326924,0.280531984,0.108102689,0.0129905853,0.0203108725
94281.061621,0.544616843,1.0634104,0.470580509,0.0839544784,0.0141693007,0.00799641501
94281.071649,0.0969093889,-0.262279697,-0.998184468,-0.0957558949,-0.0671260909,0.00659932032
94281.081677,-0.847178073,-0.527640652,-1.07122282,-0.00628380682,-0.0727349774,0.0370238062
94281.091705,0.032616438,0.164189775,-0.0650566463,0.0358748313,-0.000724427989,0.00700784916
94281.101734,0.263228517,0.295736627,0.540685142,0.0273093067,-0.0598002628,0.00937087204
94281.111762,-0.325684374,-0.539196321,0.663638737,0.125399384,0.0369955196,0.0214429807
94281.121790,0.375498513,-0.685080381,0.737498923,0.0441609908,-0.00541132479,0.00682009639
94281.131819,-0.335166416,-1.26563629,-1.10311959,-0.190245119,-0.0137113326,0.0182309423
94281.141847,0.163954707,-1.19722889,-0.296329746,-0.0326182071,-0.0430828028,0.0670240458
94281.151875,-0.105024146,0.271378486,0.327839679,-0.0679748703,0.0327389918,0.00453270715
94281.161904,0.403668522,0.859249759,1.71547711,0.143566671,0.067675662,0.058916853
94281.171932,0.148644764,-0.199088935,-0.437312919,-0.0263733633,-0.00563556306,0.023743951
94281.181960,-1.05165917,-0.282772907,-1.32503274,-0.105369908,-0.0375828438,0.0306612451
94281.191988,0.443464672,-0.161225635,-0.666863433,-0.0778163124,0.0164343181,0.0231940087
94281.202017,0.704817415,0.450367089,1.08995802,0.141670766,0.0398152776,0.0368914467
94281.212045,0.00694971648,0.210956641,0.335446647,-0.00561402198,-0.0287683134,-0.00619264111
94281.222073,-0.477432833,-0.370298685,0.40119776,-0.00442731725,0.0343275673,0.0197465469
94281.232102,0.519882069,-0.457434495,0.310365981,0.0318457361,0.029327479,0.0198424209
94281.242130,-0.20051756,0.136778402,-1.42597558,-0.00455142064,-0.0280652393,0.0150817551
94281.252158,-0.402740142,-0.0866195076,-1.07517068,-0.0477311138,-0.0354451232,-0.00605175994
94281.262186,0.429284464,-0.0465127665,0.806697546,0.0351664301,0.0148691793,0.0308324892
94281.272215,0.478257607,-0.457920854,2.16997327,0.0148614252,0.0379468023,0.0431117911
94281.282243,-0.0304731285,-0.37624024,0.438457524,0.0751748335,0.0574121147,0.0745144572
94281.292271,0.529967701,-0.468808707,-1.69271221,-0.0908351738,-0.0265480366,0.0342951317
94281.302300,-0.357291373,-0.809943536,-1.0735346,-0.100264629,-0.00925320131,0.0826043349
94281.312328,0.0551407698,-0.652424678,1.2087621,-0.0364877816,0.0361632823,0.07772942
94281.322356,0.718344932,0.589232941,0.576117105,-0.0392042037,0.0789927661,0.0588350941
94281.332384,0.946781128,0.734848523,-0.308327642,0.09855632,-0.0175398935,0.0739807573
94281.342413,-0.319401276,-0.0148173844,-0.955998939,-0.0405365836,-0.0582825274,0.0668722477
94281.352441,-0.182528096,-0.818611484,1.93588044,-0.108815772,0.0916814029,0.0917152774
94281.362469,0.537526739,0.32006441,-0.0921989202,0.138020637,-0.0583602928,0.0971995231
94281.372497,-0.235410741,1.04709822,-3.85186534,-0.0420910727,-0.036880567,0.0338663619
94281.382526,0.513159409,-1.02183323,2.01396029,-0.244612751,-0.022514147,0.111348369
94281.392554,0.0116878509,-0.987231071,2.66190047,0.0490588125,0.00865149661,0.163836071
94281.402582,-0.107636009,1.36632725,-1.2419716,0.135833385,-0.018653895,0.064894588
94281.412611,0.25400615,1.01548019,-0.174695417,-0.116808449,0.0449652977,0.050622971
94281.422639,0.667865548,-0.723864139,0.924071295,0.0883060794,-0.00543795643,0.134484851
94281.432667,-0.0300966233,-0.133308796,-1.22736732,-0.0567286026,-0.0128263647,0.0654645052
94281.442695,-0.00720082782,0.66673879,1.59633927,0.0872938138,0.0192530069,0.0962005716
94281.452724,0.0779862233,0.0936863431,0.664652882,0.0836980145,0.0367494456,0.0877061572
94281.462752,-0.495924767,-0.0329878889,-0.396041582,-0.0135055009,0.0298659715,0.0874033582
94281.472780,0.207504218,-0.202255985,-2.17065355,-0.18060821,-0.00217957912,0.0700326201
94281.482809,0.907398966,0.0956117674,-0.285789647,-0.203976107,0.0542352281,0.0619323489
94281.492837,0.17331451,1.14310382,0.450183033,0.208745676,-0.0862281427,0.115363353
94281.502865,-0.773956623,1.43093752,-1.29064883,0.10600705,0.00561069999,0.0125621383
94281.512893,0.526559647,0.46839663,1.8543788,0.131207484,-0.0231229451,0.0211798597
94281.522922,0.505147514,-1.57789753,-0.392750724,-0.0940344308,0.00485036731,0.0438055445
94281.532950,0.0186929804,-1.53582671,0.551595827,-0.119931807,-0.0567858324,0.0664567959
94281.542978,-0.625665758,-0.2321195,-0.523123655,-0.040392508,0.00722404266,0.0596628052
94281.553006,0.270016496,1.18813933,-0.526498684,0.0857678231,-0.0444857546,0.0249314543
94281.563035,-0.225710089,0.621463697,0.134783789,-0.0655386049,0.0246491048,0.0267400083
94281.573063,-0.0422377275,-0.296814072,1.58837633,0.124858233,-0.0277581767,0.0525814567
94281.583091,-0.321175153,0.16178381,-1.86314301,-0.0103760205,-0.0174797059,-0.00861931384
94281.593119,0.337773397,-0.325759651,0.688395577,-0.0292892579,0.0315283171,0.0360048797
94281.603148,0.0917751678,-0.926247975,0.583708875,0.0781077769,-0.0653841153,0.0426827532
94281.613176,-0.871506677,-0.372212336,-1.50249359,-0.00535383094,-0.0183718663,0.0270691749
94281.623204,0.112539796,-0.709780011,1.12371416,-0.0584900204,-0.00443154783,0.05350664
94281.633232,0.181288704,-0.437918332,0.215431443,0.0327749129,0.0286081608,0.0422870081
94281.643261,0.05958299,0.554903203,-0.724112091,-0.0280104086,-0.0185226009,0.034043194
94281.653289,0.0198925655,-0.148245395,0.280731891,-0.0680883203,0.03701789,0.0506426778
94281.663317,0.295242123,-0.178964468,0.513808825,-0.0550635952,-0.0276897338,0.0579679694
94281.673346,-0.361557579,0.311568859,0.615738921,-0.0889169026,0.0908086791,0.0519207281
94281.683374,0.378173577,1.00403254,0.397112537,0.244405138,0.023286632,0.0568723429
94281.693402,-0.124270699,0.950558289,-3.72496856,0.0363584634,-0.0275760174,-0.0390890713
94281.703430,0.158680712,-1.00701553,1.04260941,-0.115469416,0.0149016695,0.0231447418
94281.713459,0.52617094,-1.75129361,1.82084069,0.0266429827,-0.0547306717,0.0772391346
94281.723487,-0.821529617,-0.139216824,-0.84270866,-0.0363812532,-0.00045145385,0.0238960192
94281.733515,0.525082706,0.416844065,0.699474605,0.13243519,0.00471880682,0.0767491099
94281.743543,0.383921327,-1.0287414,-0.621364833,-0.178385523,-0.0366438136,0.0503438723
94281.753572,-0.990423053,-0.758923543,1.20188987,-0.0945516128,0.00791939417,0.0785464805
94281.763600,0.236346282,0.653370774,-0.315921751,0.112705122,0.0543527387,0.0378166821
94281.773628,0.694193729,1.46248168,-1.16598492,0.00220630742,0.0180168364,-0.00722962316
94281.783656,-0.400087947,-0.361403796,0.153126086,-0.0565361019,-0.0244746984,0.0564422954
94281.793685,-0.440398695,-0.849696066,0.479593836,-0.0628957275,-0.019292719,0.0404510808
94281.803713,0.054251712,0.471475526,0.397246977,0.095289382,0.0321438394,0.0452836503
94281.813741,0.458993885,-0.127787384,0.637021948,-0.114600999,0.0185241688,0.0172730547
94281.823769,-0.216942772,-0.521997605,0.274682089,-0.0714492697,0.0501790314,0.0433645782
94281.833798,0.484198322,0.565722521,-0.817864142,0.0357506823,-0.000566435866,-0.00721098181
94281.843826,-0.120692548,0.936288429,-0.948267468,0.0473074716,0.0131781378,0.00418495083
94281.853854,-0.164134799,-0.405896579,1.02177179,-0.0181546241,-0.0146774615,0.017404617
94281.863882,-0.144059833,-0.633505823,0.0871218741,-0.0680028696,0.00521688465,0.00421397923
94281.873911,-0.00559456166,-0.0378715145,-0.00451712963,-0.00749638695,0.0119597416,0.0095831782
94281.883939,0.60069317,0.250986472,-0.64189032,-0.00541938767,0.0224723041,-0.00920941751
94281.893967,0.0605175675,0.187301058,0.646027677,-0.0404817697,0.00526588666,-0.010455244
94281.903995,-0.574513882,0.133071145,-0.541346709,0.0716572877,-0.0342807241,-0.0051944356
94281.914024,0.0705961131,-0.0846892885,-0.836905527,-0.108968948,-0.0121141693,0.00602199951
94281.924052,0.62254289,-0.583844186,2.0024154,-0.0221520282,0.0499220348,0.0219578233
94281.934080,-0.27525263,0.736848172,0.152728611,0.20734215,-0.0254755144,-0.00894682925
94281.944108,-0.224456216,1.04831088,-2.24724111,0.0751289826,0.071376194,-0.0551151249
94281.954136,1.27083385,-1.04731766,0.989582171,-0.194278789,-0.0227532305,-0.032448693
94281.964165,-0.503141932,-1.66600017,0.065768705,-0.0816071007,-0.0350602337,0.058334471
94281.974193,-0.345820204,0.527192409,-0.218686535,0.0484246675,-0.0121549156,-0.0126611411
94281.984221,0.793741826,1.71778009,0.578961973,0.180737438,0.0433650694,-0.0375286739
94281.994249,-0.0499168107,-0.093269257,0.483141884,0.0478456978,-0.0377151363,-0.0227017913
94282.004278,-0.434899878,-1.54524803,-1.14959317,-0.0597755734,-0.0269983087,0.0172275167
94282.014306,0.663329147,-1.31416651,1.18626443,-0.146882233,0.0551223911,0.00763214681
94282.024334,-0.0649586048,0.479886541,0.551544974,0.210692945,0.0585842326,0.0661766839
94282.034362,0.00287150726,0.933868508,-3.52102361,-0.108342041,-0.0760007382,-0.0465709034
94282.044391,0.358434346,-0.569341321,0.173218441,-0.0899920586,-0.00200907025,0.0568580155
94282.054419,0.450650492,-1.04284548,2.587205,-0.0101606131,-0.0330937535,0.0510837485
94282.064447,-0.416035092,1.07734174,0.478144222,0.16464183,0.0444545678,0.00920154735
94282.074475,0.550650059,0.995445113,-0.216684547,0.072914834,0.0193550743,-0.00662268955
94282.084504,-0.139845503,-0.805979747,-1.25358663,-0.155098093,-0.065862085,-0.000401545092
94282.094532,-0.451982238,-0.699807337,-0.969628236,0.000979921714,-0.0263756618,0.0350741569
94282.104560,0.94099648,0.625234156,0.556657202,0.0746562731,0.0211598992,0.000193937905
94282.114588,0.377776979,0.128188834,2.11918534,-0.172743929,0.0250587675,0.000343607031
94282.124616,-0.755458332,0.304181672,0.806273184,0.242278027,0.0503233753,0.0708555889
94282.134645,-0.0553511107,1.46350518,-4.85149071,0.142566609,-0.109329405,-0.0659078497
94282.144673,0.166730017,-0.410409015,-0.368709338,-0.179022071,-0.0198772822,-0.0270118516
94282.154701,0.673329659,-2.18691278,3.81865467,-0.161646274,-0.0335427627,0.046885011
94282.164729,-0.366859338,0.0363010185,0.381116511,0.131111565,-0.00339710969,0.0358525973
94282.174758,-0.0215512786,1.71585716,0.0630980245,0.132186684,0.0603983782,-0.00228067186
94282.184786,0.843225842,0.0493481658,-0.263355113,0.0169980366,-0.0338181325,0.0340120878
94282.194814,-0.665936174,-1.59841454,-1.26735095,-0.118551267,-0.0453096733,0.0565730568
94282.204842,-0.951752253,-0.635887092,0.404617798,0.144260126,-0.0169909478,0.0752633896
94282.214871,0.785773697,0.0332968522,0.353081088,0.0529072981,0.104218562,0.023288605
94282.224899,0.619803309,-0.710181066,1.47486803,-0.225507808,0.010028417,0.014926811
94282.234927,-0.684433661,-0.705761642,-1.34718671,-0.0354646418,0.0347113914,0.0804831844
94282.244955,0.526211052,1.16904797,-1.9079057,0.0375573736,-0.0358871438,0.00426963925
94282.254983,-0.270833352,1.57461417,-0.482499384,0.0245712686,-0.018751831,-0.0156484086
94282.265012,0.997727544,0.112801478,2.08308234,-0.0368513476,0.0375724256,-0.0167221956
94282.275040,1.48853114,-0.199298596,2.32289531,0.0381866757,0.0260428048,0.0526656669
94282.285068,-0.520933244,-0.527829197,0.447422336,-0.0442099284,0.0366954475,0.0458985765
94282.295096,-1.24611536,0.428659627,-1.58787762,0.150084453,-0.0757264376,0.00897464644
94282.305125,-0.78149754,0.233846719,-3.86364872,-0.0542023752,-0.0715745643,-0.0327903766
94282.315153,0.473059819,-1.71935928,1.30248726,-0.249283177,0.0124774601,0.0207556721
94282.325181,0.845300894,-1.06567712,3.06719801,0.0338672947,-0.0102880395,0.0534624841
94282.335209,-0.489226731,1.00394048,-0.821450768,0.110351424,-0.00246686745,-0.00791219134
94282.345237,-0.543545181,0.786121614,0.524379903,-0.00492031146,0.0337015211,-0.0133168108
94282.355266,0.0992230726,-0.456774387,-0.783948428,0.0496878054,-0.0294412274,0.0237277609
94282.365294,0.272023452,-0.595298367,-1.20021335,0.00864876043,0.0409788757,0.0172528152
94282.375322,0.154504157,-0.945063589,1.47084827,-0.0168755084,-0.00568236807,0.0505580429
94282.385350,-0.535770163,-1.06433243,-0.0773392047,-0.143623066,0.0131512403,0.0222009693
94282.395378,0.000172623562,0.213711858,0.0232020674,0.0579135109,0.0192882295,0.0270724234
94282.405407,0.141988228,0.455807636,0.144270579,0.00886447709,0.0279464319,0.000128956735
94282.415435,0.0934339678,0.00946502144,0.765692751,0.0756994363,0.0569610379,0.021040098
94282.425463,0.619131547,-0.590758459,0.0170856304,-0.155853105,0.0386808335,0.00924682081
94282.435491,0.191783502,-0.836652972,0.343967222,-0.0881813738,0.0519867844,0.0545208242
94282.445520,0.0665128624,0.566260573,-1.37132512,0.272835391,0.0110260376,0.0490704004
94282.455548,-0.0519897445,0.961847379,-2.31301911,-0.0706226204,-0.0108512978,-0.0671472836
94282.465576,-0.0560315673,-1.20705594,0.757279728,-0.0710194383,-0.0294625324,0.0144879215
94282.475604,0.898327843,-1.35553298,0.15512632,-0.0522207182,-0.0190535665,0.00458122952
94282.485632,0.485373065,0.232601194,1.64577638,-0.0405566033,-0.0013057295,-0.00351025328
94282.495661,-0.29115389,0.455529915,0.707432286,0.249725821,-0.0486878932,0.0420348619
94282.505689,-0.370492142,0.249873451,-2.26716571,-0.0622065041,-0.044331494,-0.043798289
94282.515717,-0.145895086,-1.13808119,0.794827076,0.0186372127,-0.0154646917,0.0571195383
94282.525745,0.400385555,-1.73384607,-0.598870678,-0.00718746073,-0.0627128959,0.034926885
94282.535773,-0.904031229,-0.218360202,0.124111588,-0.0980803493,-0.0213233784,-0.012615335
94282.545802,-0.226247556,-0.029703223,1.12106277,0.0259941954,0.023787108,0.0184728105
94282.555830,0.613610154,0.527096109,-1.09772445,0.0716538306,-0.0311139573,-0.0193624522
94282.565858,0.181313911,-0.0367203763,0.350582841,-0.0885608766,0.0511207252,0.00741882738
94282.575886,-0.177303785,-0.600371542,2.40441448,0.0767577764,0.0216765522,0.0253722623
94282.585914,-0.94063019,0.834796359,-2.80101773,0.175112846,-0.0438468002,-0.0332332614
94282.595943,0.648113312,0.144265808,-1.53573009,-0.133737144,0.0243359848,-0.0593322429
94282.605971,1.191003,-1.54221159,2.08392347,0.0608416561,0.0165275957,0.0556470763
94282.615999,0.236355488,-1.44262426,0.359893106,0.023481502,-0.0311925218,0.0350991909
94282.626027,-0.878521598,-0.39070639,0.973001038,0.0331280034,-0.0136058054,0.0184760068
94282.636056,-0.280772416,-0.453352742,0.364243118,-0.108315674,0.0798999115,-0.00483517606
94282.646084,0.117453434,-0.164769902,-1.53132221,-0.030501039,-0.0836863548,0.0166810353
94282.656112,-0.143479038,0.0972423734,-3.65183844,0.0237089366,9.85554606e-05,0.0385442537
94282.666140,0.595912584,-0.256842876,2.27766734,-0.146240425,-0.0404051945,0.0106859936
94282.676168,-0.387775212,-0.122810171,2.25857744,0.24413878,-0.00313345693,0.0536624875
94282.686196,0.292045227,0.0333674173,0.394258317,-0.123922331,0.0719964474,-0.0350458089
94282.696225,0.288660699,0.0303382239,0.591988628,0.0627676573,-0.0617230043,0.039295004
94282.706253,-1.37572841,-0.805695377,-2.96509011,-0.0582370657,-0.0227729373,0.0166797035
94282.716281,-0.145717464,-0.0243753242,0.43139007,-0.0961258534,0.0101820815,-0.0129335828
94282.726309,1.19657831,0.448799657,0.705407502,0.152381169,0.0825990259,0.0273874749
94282.736337,0.57368044,-0.0667874197,0.760680476,0.00843251199,0.027042289,-3.24312225e-05
94282.746366,-1.07925131,-0.576402747,0.0318348712,-0.006759491,-0.0536064871,-0.00208439656
94282.756394,-0.412466732,-0.618262515,-1.54926294,-0.0210231144,-0.000123818526,-0.00538192295
94282.766422,1.19581105,-0.430076094,1.04805657,-0.167988253,0.0621326647,-0.0183366973
94282.776450,-0.0538331805,0.129196295,0.619943972,0.0399444353,-0.0579244972,0.0206027136
94282.786479,-1.05995354,1.05129443,-2.08687285,0.110556553,0.00942924129,-0.0276622872
94282.796507,0.635606808,0.673290404,0.82315476,0.0627205845,-0.0290228103,-0.0126156935
94282.806535,0.402328141,-1.47740579,1.40691853,-0.0910362203,0.0652813211,0.0280276064
94282.816563,-0.156697927,-1.11357665,2.10254634,0.0392046075,-0.000803156062,0.0391479034
94282.826591,-0.794499645,0.131490086,-2.65667122,-0.0179492284,0.018645643,-0.0110132692
94282.836619,0.227022062,0.568336137,-1.03690904,-0.00274097984,0.0311617001,0.0143546716
94282.846648,0.982605525,-0.344447254,-0.162609258,-0.00204562833,0.00657406658,0.0326790821
94282.856676,0.234924579,-0.843907254,1.44094822,-0.0801430915,0.00582065829,0.060991415
94282.866704,-0.775807365,-0.460846423,1.17234755,0.0395598736,-0.0317853049,0.0840450686
94282.876732,-1.0974146,0.681104584,-2.08212946,0.131186995,-0.0949653343,0.0140018028
94282.886760,-0.0250638168,0.140421051,-1.4170283,-0.0108441796,0.0088678475,0.00917588849
94282.896789,1.41389354,-1.56060766,2.82351375,-0.0177191302,0.0680834993,0.0472372558
94282.906817,0.826738233,-1.28092271,1.92749197,0.00943286233,0.099558328,0.101112203
94282.916845,-1.13720505,-0.106714411,-1.4867641,-0.0133102678,-0.00998653402,0.0416771073
94282.926873,-0.559228926,1.02810608,-3.62166484,-0.130693612,0.0236084431,0.0124225479
94282.936901,1.572868,-0.123564497,1.54105052,-0.0875591982,0.0562303036,0.0534043361
94282.946930,0.285803044,0.319769555,0.790000094,0.130886587,-0.0803246156,0.0963917461
94282.956958,-0.932985155,1.2606831,-1.73618018,0.0959805351,-0.0415870727,0.0104752446
94282.966986,1.10660636,0.00584482308,2.31671223,-0.0618375886,0.0629483953,0.027287246
94282.977014,1.02331492,-1.08537237,1.11837222,0.0141575754,0.0122239625,0.0935474944
94282.987042,-0.730447078,0.140783701,-3.26137665,0.0189355526,-0.0994397209,0.0287735585
94282.997071,-0.818005681,0.828342653,-1.99526425,0.0295000475,-0.0565894574,0.0348884438
94283.007099,0.486285869,-0.787492343,2.03322321,-0.0734023649,-0.0128787274,0.0765677106
94283.017127,0.332397111,-0.904654202,2.80634985,0.00399042601,-0.0169725393,0.1020507
94283.027155,-0.556941181,0.150195106,0.0120809539,-0.0220483646,-0.0252959814,0.0821797859
94283.037183,-0.191829885,0.62689186,-0.368306603,0.119642722,0.0830906823,0.0902691421
94283.047211,0.282373874,0.57084085,-2.08735684,0.067682321,-0.101439486,0.0502428983
94283.057240,-0.430113009,-0.672107941,-1.80662325,-0.143361476,0.0188286013,0.0707002368
94283.067268,1.15534036,-1.36735903,3.73536264,-0.20560008,0.0685892298,0.102886931
94283.077296,0.762885573,0.225855538,2.32872124,0.0332276735,0.105042581,0.117179052
94283.087324,-0.3311026,1.91049608,-2.48069389,0.179552662,-0.0614558526,0.117686914
94283.097352,-0.400160208,1.57076612,-3.10510531,-0.128134591,0.0118457933,0.00138960429
94283.107381,0.861746052,-0.0172019985,2.2903427,0.176212254,0.0353394009,0.104500273
94283.117409,-0.221494078,-0.457010169,-1.90714816,-0.00383101166,-0.132854934,0.039397971
94283.127437,-0.57529188,-0.0628767993,0.474850441,-0.125707654,0.0235373366,0.0516826038
94283.137465,1.38049864,-0.402910915,3.65523989,0.0210335914,0.023709378,0.0959371489
94283.147493,-0.669677625,0.62381384,-2.07376203,0.15418792,-0.0625485436,0.0619922329
94283.157522,-0.826128489,0.808423316,-0.727999746,-0.118727503,-0.0206825875,0.0233473678
94283.167550,0.760889942,-0.880912385,2.33116103,-0.160214496,0.0510661683,0.116001399
94283.177578,0.324428251,-0.276081939,0.256335701,0.000831118252,0.055596736,0.13689337
94283.187606,-0.571604424,2.10850609,-2.39530752,0.162875953,-0.0611256205,0.0481137012
94283.197634,-0.488799373,1.08026004,-1.35778876,-0.115753819,0.00417375913,-0.00715674624
94283.207662,0.888817965,-0.937893916,2.7562119,-0.0996438239,0.0656134232,0.0756574434
94283.217691,0.516806022,-0.333751527,1.20920341,0.0349374253,0.0252414949,0.0785754633
94283.227719,-0.512788516,1.45037229,-1.24357845,-0.0442364898,-0.0158409618,-0.0116779951
94283.237747,-0.150439378,1.18201106,-0.49730883,0.0488290068,-0.023139355,0.0207696941
94283.247775,-0.00624973764,0.305877041,-0.517349163,0.0288060278,-0.0153794356,0.0118789964
94283.257803,-0.203537054,0.5433479,-0.139988261,-0.0922567446,-0.0373055071,-0.00462913956
94283.267832,-0.370039284,0.166019,0.608817598,-0.0300825901,-0.00791938906,0.0153573521
94283.277860,-0.294374021,0.605333158,0.309994225,0.0861638587,-0.0349763066,-0.0271376434
94283.287888,-0.206076144,1.17462518,-0.404829868,0.101160916,0.069407095,-0.0402758147
94283.297916,0.354787441,-0.03212866,0.57439978,-0.0159699667,-0.0368074954,-0.0262574691
94283.307944,-1.03351525,-0.826005394,-0.886041606,-0.156484735,-0.0448827327,-0.0212113138
94283.317972,-0.311256109,0.27543715,0.799263597,0.0315866347,0.0678941503,-0.0370786924
94283.328001,0.70357684,1.92635109,0.531709223,0.153230774,0.0824089094,-0.0907816056
94283.338029,0.0138959554,1.63062846,-1.98184655,0.0642556351,-0.0710895762,-0.124064467
94283.348057,-0.648075669,-0.386443143,-1.00126607,-0.076085766,-0.023218184,-0.0795630354
94283.358085,0.373104603,-0.981377377,2.35044908,-0.0404089961,-0.00368949003,-0.0588180747
94283.368113,-0.334110623,0.327023947,0.716904463,0.0773701023,-0.000340564996,-0.106413028
94283.378142,-0.495396579,1.38388044,-1.07350537,0.19893648,-0.0195696533,-0.142685554
94283.388170,0.237131587,-0.258187806,-0.759969002,0.00403223774,0.0184158112,-0.119161314
94283.398198,-0.106408148,-1.79831971,0.478021472,-0.103083295,-0.091391112,-0.0880494702
94283.408226,-1.14550445,-0.6923465,-0.898401321,0.0414113019,-0.00753642642,-0.0934149388
94283.418254,0.217988203,0.547477254,0.806392426,0.107191379,0.0326767757,-0.103935755
94283.428282,0.499540049,-0.402996803,-0.0502518758,0.0394016828,-0.0260469944,-0.0801614511
94283.438311,-0.250126591,-1.28764997,0.231048115,-0.1047025,0.019417959,-0.091150454
94283.448339,0.0417431628,-0.236246718,1.02293265,0.149453345,0.0560851588,-0.0633987177
94283.458367,0.0722313861,0.56261491,-1.60833764,0.0743143883,-0.0332505771,-0.120145089
94283.468395,-0.653408701,-0.311673806,-0.684187493,-0.212509659,0.0335122056,-0.0994057197
94283.478423,0.79917598,-0.539364189,0.968166458,0.0229726385,-0.0127676737,-0.0548073526
94283.488451,0.698142102,0.83677555,-0.167369604,0.13536683,0.0543304018,-0.0949609045
94283.498480,-0.10876947,0.42613862,1.47754923,0.0243473619,-0.0589261123,-0.0924322296
94283.508508,-0.828942012,-1.23749945,0.465185956,-0.202277792,0.102625225,-0.0612514045
94283.518536,0.372345236,0.379577104,-0.242994462,0.355059224,-0.0690453306,-0.0482117708
94283.528564,-0.531281474,0.874229959,-5.58775039,-0.0907914761,-0.052382461,-0.173050648
94283.538592,0.0126834378,-1.16464318,2.86796489,0.0349864278,-0.014220427,-0.0722590524
94283.548621,0.741515964,-1.79022584,2.68966058,-0.11695384,0.00775784137,-0.0702491615
94283.558649,-0.482394693,-0.16511181,0.256186647,0.172391685,0.0120641726,-0.0376632537
94283.568677,0.131265028,0.218738764,-0.884241863,0.026878164,0.0353418,-0.0426569495
94283.578705,-0.154036964,-1.1675975,-0.454755052,-0.23676413,-0.0736611143,-0.0435570951
94283.588733,-0.704569344,-0.561854034,-0.273382001,-0.0778365258,0.0882521465,-0.0323110994
94283.598761,1.03754094,1.68508793,-0.363877096,0.0926196303,0.009426845,-0.0455488737
94283.608790,0.91670302,1.24950777,-1.43693946,0.0503611218,0.0347106277,-0.0633960504
94283.618818,0.161383103,-0.834332054,2.95498383,-0.0322919462,0.0101863777,-0.0260627929
94283.628846,-0.647578022,-0.795580445,0.933258811,-0.0130700499,-0.0364631482,-0.051631267
94283.638874,0.335497269,0.416232764,-1.61660571,0.039568397,0.0675338253,-0.0617113363
94283.648902,1.54410397,-0.335155877,0.466503469,-0.050019012,-0.00801206683,-0.0615155872
94283.658931,-0.890702522,-0.984051272,-0.413552104,0.110859888,-0.017732871,0.0265756522
94283.668959,-0.939164721,-1.00791204,-0.273846112,-0.140616027,-0.0538117804,-0.0332280274
94283.678987,0.409341015,-0.174444378,-0.0349654594,0.0701380249,0.0159832805,0.0332500648
94283.689015,1.05422758,-1.17372227,0.223071729,-0.122903337,-0.0199981548,0.0403463256
94283.699043,-0.872032309,-0.829954351,0.772088005,-0.0364885565,-0.0209449094,0.0280371953
94283.709071,-0.354496189,0.833202075,-0.961861109,0.0628215175,0.0196355402,-0.0233849834
94283.719101,1.25985989,0.511196931,0.950347308,0.066218647,0.0747003898,-0.00279395539
94283.729129,0.401938995,-1.12785659,1.47619021,-0.107393352,0.0311286773,0.00581551179
94283.739157,-0.989834293,-0.337344912,-1.33790918,0.0598182742,-0.0402584181,0.0211060506
94283.749185,-0.275748596,0.70408404,-2.74652334,0.0672253247,-0.0364029624,-0.0345063422
94283.759213,0.611960779,-0.66489874,0.631063332,-0.0221897785,0.002791845,-0.00426535193
94283.769241,0.385149992,-1.19280844,2.89923798,-0.014496579,0.0138343067,-0.00603098027
94283.779270,-0.129713109,-0.463709995,0.279851601,0.069969843,-0.00552927074,-0.00581393275
94283.789298,-0.486833041,-0.677301126,-0.937868824,-0.186230255,-0.0319808528,-0.0287067301
94283.799326,0.272965117,-0.922210683,1.45918472,-0.0958737258,0.151371409,0.00142773496
94283.809354,-0.0154876677,0.780723043,-0.852381913,0.0746870961,-0.0769400701,-0.0138609398
94283.819382,-0.968552947,1.56388454,-5.12053503,-0.0153013861,0.0148891851,-0.0968122843
94283.829411,1.4946014,-0.00407291537,1.94818112,0.146055016,-0.0180993911,-0.0368842322
94283.839439,0.280017812,-1.55181908,2.34639192,-0.0475823592,-0.0652328164,-0.0446516115
94283.849467,-0.598172624,-1.13433609,1.16348503,0.108165162,0.0460654802,-0.0197947293
94283.859495,0.568324539,-0.52776037,-0.696015293,0.058825041,-0.0419485301,-0.0515406716
94283.869523,-0.980173315,-0.834304582,-2.8456945,-0.0828045282,-0.117568459,-0.0258904405
94283.879551,-0.0281335796,-1.33308559,-0.537778788,0.0220332023,-0.0138838731,0.00599905079
94283.889580,0.872060306,-0.883293508,2.26639717,-0.12800051,0.00294304383,-0.0385274056
94283.899608,-0.55734282,0.0161327905,1.64038241,-0.0426126357,0.0106686072,-0.0262110836
94283.909636,-0.150338256,0.740379123,-0.288878261,0.215086805,0.0601224422,-0.013030567
94283.919664,0.59516162,0.322200217,-1.92916242,0.0242814429,-0.0153065336,-0.0246832266
94283.929692,-0.294476312,-1.55527741,-0.520815378,-0.223427427,-0.0581192442,-0.0317515272
94283.939720,-0.825975199,-0.833302127,0.758288613,0.00623293482,-0.01916865,-0.00489780564
94283.949749,0.567597613,0.768695628,0.419384575,0.147198039,0.0714571222,-0.0254289142
94283.959777,1.21904836,0.0924324158,1.12471545,-0.0352159712,-0.0155837697,-0.0509627673
94283.969805,-1.1832493,-1.01240577,0.451530356,0.110984119,0.0477121144,0.03164103
94283.979833,-0.714803811,-0.978890163,-1.42132103,-0.210080457,-0.0696568594,-0.0698517698
94283.989861,0.186243623,0.665186154,-2.88610542,-0.00512118656,0.0101088106,-0.0232789412
94283.999890,0.970359645,0.227823057,1.0680104,0.028174185,-0.0115759776,-0.0434310797
94284.009918,-0.479610908,-0.150599283,2.46085299,-0.0234160379,-0.0117131306,-0.0529484216
94284.019946,0.344630204,0.213846353,1.23488321,0.0393405546,0.0917666524,-0.0487592656
94284.029974,0.384548811,0.579327377,0.325211668,0.207783895,0.0414363749,-0.0389833364
94284.040002,-1.34204957,-0.257867488,-3.61165432,0.027272173,-0.103248107,-0.0638266343
94284.050030,0.450648373,-1.73245958,-0.118442199,-0.283616436,0.0471658974,-0.06044229
94284.060059,0.787456462,-1.26708269,3.59253238,-0.0604654003,0.042515219,0.0353697252
94284.070087,-0.670142393,0.280368834,-2.01566523,0.167878019,-0.0321955041,0.0168112193
94284.080115,0.0357681069,1.17097017,-0.717912067,-0.0493994366,0.0433162979,-0.0468662966
94284.090143,0.453782141,-0.304529926,1.21102244,0.0592202533,-0.0622303665,0.0198213898
94284.100171,-0.9794488,-0.911586413,-1.85779463,-0.144998667,-0.0494570464,-0.0228270039
94284.110200,0.350486383,0.19909987,1.81994169,-0.119658415,0.0647318407,-0.015124344
94284.120228,1.1914012,0.787686817,1.34151286,0.121671381,0.0352562412,0.0262031231
94284.130256,-0.757159875,0.744041518,-1.2686445,-0.114275632,-0.01522877,-0.0213121984
94284.140284,-0.971285733,0.714589652,-0.129991768,0.172962266,-0.0262960673,-0.0315083775
94284.150312,0.436010776,0.334239687,-0.704457543,-0.0142563621,0.0417692705,-0.0565080035
94284.160340,0.469885646,-0.67802206,1.69530058,-0.0290014848,0.0635712414,-0.0203489333
94284.170369,0.371442808,0.168909771,-0.988566161,0.150484117,-0.0475861759,-0.06347563
94284.180397,-0.811401022,0.381151551,-0.821372442,-0.200999615,-0.0181944661,-0.0727940339
94284.190425,-0.0782989287,-0.733907248,2.31049701,-0.0131482204,0.0278574477,-0.00957724523
94284.200453,0.813114708,0.679882568,-0.907501158,0.0404556196,0.0611331135,-0.0101980276
94284.210481,0.0774635146,1.0210821,-1.02515898,-0.0595452797,-0.0901501507,-0.0600044716
94284.220509,-1.56852799,0.401049297,-0.0472708142,0.292966979,-0.0269336284,-0.0370496127
94284.230538,0.325227731,0.465598597,0.0373001509,0.175358045,0.0444305658,-0.0868459332
94284.240566,1.08291452,-0.935269486,2.10730376,-0.123645169,0.0797776401,-0.12193255
94284.250594,-0.438755385,-1.47783045,-0.287235755,-0.0497080956,-0.0364352532,-0.0435509223
94284.260622,-1.38270979,-0.113855332,-4.28829335,-0.0042588545,-0.0863474191,-0.0614151422
94284.270650,0.989310356,0.681540346,1.00741535,-0.105316756,0.0088744366,-0.0770758602
94284.280679,0.913525559,0.0318595175,3.88241023,-0.00261941291,0.0360868804,-0.0415682036
94284.290707,-0.933756578,0.648464882,-0.80644726,0.0733704295,0.00786909251,-0.0262728676
94284.300735,-0.611300036,1.64400203,-3.12352126,0.201490837,-0.103980745,-0.0928233999
94284.310763,0.0685366233,0.234303925,-1.31263094,0.0216499742,-0.00447306107,-0.091876379
94284.320791,0.548537524,-1.65773635,2.52841612,0.0634536173,-0.00772078638,-0.0541247416
94284.330819,0.284352042,-1.27812913,1.13610018,-0.0738951836,0.052527108,-0.077621809
94284.340848,0.192378984,-0.916675334,1.19642869,-0.10232949,-0.0510048748,-0.0205255009
94284.350876,-0.921013416,-0.993789261,-0.294975993,-0.0475607898,0.0901362717,0.0450742852
94284.360904,0.361275488,0.935587295,-1.45541912,0.181735518,-0.0474998907,-0.00420964487
94284.370932,-0.491590172,1.54561955,-3.5082787,0.0822126593,-0.0389578,-0.0619043696
94284.380960,0.318225231,-1.1987165,2.66762937,-0.133860794,0.0231487125,-0.0276894055
94284.390989,1.01362164,-1.59655707,3.4952352,-0.00315524074,0.0700014427,0.0715138775
94284.401017,-0.45170196,-0.717200663,-0.923061715,-0.112112616,-0.00479450473,0.0190416158
94284.411045,0.221207457,1.07200696,-1.60876376,0.0680014964,0.160131608,0.0177356016
94284.421073,0.95264001,1.49264579,-2.35848439,0.200092944,-0.13303716,-0.0101450316
94284.431101,-0.48377738,-0.680373153,-0.78382334,-0.0572349887,0.00342800538,0.00725446478
94284.441129,0.68396087,-1.57050186,5.37320817,-0.108880867,0.0516738302,0.0647853997
94284.451158,0.450759944,-0.577670027,1.030397,-0.0440605964,0.0447594642,0.0588641327
94284.461186,-0.43073779,0.902967978,-2.8485493,0.0119771061,-0.0485861928,0.0607387286
94284.471214,-0.663254826,0.0682991966,-1.12953004,-0.207552594,0.00226873136,0.0424374875
94284.481242,0.521978895,0.116695426,1.20271346,0.0632219192,0.0111112248,0.0636077535
94284.491270,0.355361953,0.716230551,0.661030015,0.123797121,0.0742409273,0.0368251402
94284.501298,0.341019832,-0.178090607,1.51198867,-0.210047704,0.0787065148,0.0276055422
94284.511327,0.0834404702,-0.00261880529,-1.4310241,0.0936932813,-0.0896015347,0.0689109054
94284.521355,-0.329914779,0.826934028,-3.40856043,-0.0642404307,0.0296446949,-0.00196486596
94284.531383,0.992075729,-0.110200372,2.31309638,-0.0178428415,-0.0291555033,0.0714188006
94284.541411,0.0236229842,-0.97227849,0.765627285,-0.0926755343,-0.0272454855,0.0538185027
94284.551439,-0.864295796,0.580220929,1.8188726,-0.00519335754,0.0523611947,0.0242145408
94284.561468,0.206593241,1.73684311,-1.3926894,0.237650174,-0.0301765606,0.0147454042
94284.571496,0.396455961,0.927132259,-3.24827109,-0.00311715756,-0.0527431213,-0.0247199803
94284.581524,-0.49984479,-1.48331706,2.13439167,-0.219026295,0.00556572456,0.0201564145
94284.591552,-0.417876482,-0.711701992,1.110563,-0.0101694746,-0.0519423105,0.054209457
94284.601580,0.338122722,1.41123928,-1.63508069,0.00881060753,0.0203332182,-0.0282334879
94284.611608,0.793372993,1.27096279,1.18557645,0.0323598746,0.0388677537,0.00636337161
94284.621637,0.28389933,0.303583962,0.288506616,0.0836390432,-0.0241186668,-0.0167842924
94284.631665,-0.21957765,0.197153814,-0.995708434,-0.00511692483,0.00285702361,0.00704167852
94284.641693,-0.392013873,-0.891743429,1.89077289,-0.102437881,0.0598276302,0.012786383
94284.651721,-0.7531578,0.194932521,-1.66074003,0.074785101,-0.129915665,0.00254413182
94284.661749,0.373536565,0.901886174,-2.5744173,0.0259158246,0.0690429702,-0.0413937632
94284.671777,0.900886369,-0.236416923,2.39028016,-0.016442816,-0.0699687109,-0.00287460141
94284.681806,-0.953771484,-0.929685037,-0.535510843,-0.000853204352,0.00261041498,0.0190075275
94284.691834,0.406237423,0.221626449,1.77938523,-0.0576645557,0.0232693541,-0.0253892324
94284.701862,-0.393164869,0.964892811,-0.160794318,0.208253401,-0.0191462797,0.0267599889
94284.711889,0.287803717,0.549036284,-2.17588911,-0.00692254882,0.0185827229,-0.0298439011
94284.721917,-0.219956128,-0.72452969,1.19099906,-0.24957062,-0.0625355647,0.0142724265
94284.731946,-0.62370834,-0.175384198,-0.538431114,-0.0210167963,0.010490176,0.024490976
94284.741974,0.875909164,1.79681096,0.345519128,0.213901969,0.0827140405,0.0168066912
94284.752002,0.676971523,0.656787524,1.03672561,0.0197820336,-0.0451722883,-0.02041285
94284.762030,-1.14256489,-0.820273865,-0.301533745,-0.089845394,0.0297181986,0.00403576832
94284.772058,0.0953161283,-0.318208724,0.907551538,0.125601428,0.0814973235,-0.00699328423
94284.782086,0.450557334,1.13041239,-3.16408883,0.0597550225,-0.064911294,-0.0568684291
94284.792115,-0.359968337,-0.480575827,-0.326651235,-0.153011036,-0.0240338997,-0.0102338174
94284.802143,0.128446245,-1.02739489,2.02746859,-0.128123787,-0.0754129321,0.000928022191
94284.812171,-0.233982754,1.02320311,0.254876149,0.107110019,0.0350536562,0.0149359836
94284.822199,0.587852247,0.978675472,1.70676306,0.0535503913,-0.00401757961,-0.00656691171
94284.832227,-1.2073761,0.376490537,-0.803533418,0.142551648,-0.0391196415,0.0048961325
94284.842255,-0.518087792,-0.628651442,-1.70648647,-0.108016138,0.0347505889,-0.0255693633
94284.852284,0.382841204,-1.02351001,0.0671738956,-0.245165196,-0.0211542223,-0.00760767587
94284.862312,0.162948234,-0.0417209748,-1.30786124,-0.0749452684,0.00975762098,0.000370356478
94284.872340,0.556161369,1.04847097,1.39438813,0.0943774458,0.00346430507,-0.0113547423
94284.882368,-0.00304421959,0.462634889,2.28844592,-0.0383795325,0.058037535,-0.0430580776
94284.892396,0.549247864,0.498690646,0.523807072,0.178913909,0.0488980978,0.0158209514
94284.902425,-0.21491828,-0.106285555,-2.90880474,-0.0482683826,-0.0980596573,-0.0192994836
94284.912453,-1.28684411,-0.896919663,-0.232089037,-0.120993716,-0.00490361383,-0.00462147292
94284.922481,0.926910379,-0.649887268,2.10991423,0.0228518683,0.0767102882,-0.00845882088
94284.932509,0.526593549,0.519322077,1.02980137,0.0566529732,0.047196605,-0.0312640022
94284.942537,-0.573009176,0.468123001,-0.43761161,-0.00646767225,0.0561123348,-0.0464392256
94284.952565,-0.311648908,0.429758857,-1.16635025,-0.0469450589,-0.0447474339,-0.0582056071
94284.962594,-0.161341807,0.397823942,-2.52783968,0.0657790925,0.0145425226,-0.0211122993
94284.972622,0.972947689,0.06672212,1.14422211,-0.0707156334,-0.00581867551,-0.0458818253
94284.982650,-0.0841695743,-0.219255598,2.21909474,0.139907661,-0.0101393883,-0.0144155135
94284.992678,-0.344870721,-0.25242601,0.511189583,-0.0786230911,0.0148706238,-0.0705110121
94285.002706,-0.319623759,0.147010056,0.0358324164,0.0630722594,0.0367218598,-0.0321162145
94285.012734,-0.480816995,0.575466574,-3.26587864,0.0716497626,-0.104315157,-0.0717997167
94285.022763,-0.0174881939,-0.105212053,-1.8739818,-0.217053128,-0.0524114773,-0.0804560545
94285.032791,0.676143986,-1.0993732,3.7313762,-0.170053926,0.039027889,-0.0225067276
94285.042819,0.674496365,0.120421808,3.1388563,0.150487589,0.0884175419,0.0158374638
94285.052847,-0.489524472,1.74481189,-1.75711717,0.300555396,-0.0363574096,-0.0428538125
94285.062875,-0.732680683,1.11521723,-3.25933959,0.000514070902,-0.0173533589,-0.152410394
94285.072904,0.777807978,-1.18489803,0.633293283,-0.103750547,0.0167244493,-0.101269721
94285.082932,0.753111344,-1.54436526,0.673808833,-0.0567646671,0.0292397093,-0.00870942488
94285.092960,-0.249335587,0.0537903267,-0.442177895,0.100573825,-0.0891335413,-0.0295510579
94285.102988,-0.303422055,0.817482894,-1.29588614,0.0651220929,0.0150887368,-0.0434897754
94285.113016,0.934669031,-0.77967144,2.23267903,-0.163340104,-0.0312649154,-0.0318307232
94285.123044,-1.13540574,-0.314965797,-0.33565521,0.153699907,-0.0789104656,0.0100131298
94285.133073,-0.485547312,1.01577033,-2.14151221,0.0149539968,-0.0100629556,-0.108932166
94285.143101,1.11581536,0.48866679,1.28168822,-0.0796729077,0.0249589428,-0.0728527296
94285.153129,0.194111287,-0.441393826,1.14728676,0.132205534,-0.0152364115,-0.0163242023
94285.163157,-0.782406106,0.263047131,-0.0945644803,-0.0145919111,-0.0135951054,-0.0757451865
94285.173185,-0.699971495,0.241977254,-0.096478205,-0.0271692213,-0.0544181683,-0.0479359205
94285.183213,0.446847301,-0.337601115,-0.787540315,0.0273049388,0.0657399266,-0.0141649095
94285.193242,0.820377831,-0.175428238,0.872458013,0.0483311255,-0.0111231592,0.00396642298
94285.203270,-1.42466283,-0.236475412,-0.438188533,-0.0120914692,-0.0440566086,-0.0402170147
94285.213298,-0.604795623,0.338522954,-0.979522438,0.0576053176,-0.000843357998,-0.0735837657
94285.223326,1.5231512,-0.0547850344,1.34674258,-0.0284464724,0.0954967558,-0.0542619925
94285.233354,0.197569684,-0.803882848,2.07456936,-0.0647799794,0.0318783678,-0.00116522215
94285.243382,-1.45370933,0.181153623,-3.51020528,-0.0406227123,-0.113324362,-0.0311992865
94285.253411,-0.0351227809,1.20357575,-0.387937186,-0.0630196307,0.0531349226,-0.0544774484
94285.263439,1.3243895,0.551180347,3.09164739,-0.00465459209,0.00931793334,-0.0350653965
94285.273467,-0.534517752,0.708750424,-0.636558311,0.103574673,0.040410605,-0.0296607788
94285.283495,-0.322311464,1.08157507,-0.759123199,0.0630906325,-0.0260757443,-0.0800203595
94285.293523,0.525354216,0.00972932009,-0.804255887,0.0253547065,0.0335628174,-0.0579222466
94285.303552,0.611870105,-1.25354677,1.57907834,-0.0928049583,0.0214022926,-0.0226864915
94285.313580,-0.478807775,-0.854043302,1.12283563,0.00378336739,0.0378513045,-0.0248761426
94285.323608,-0.0296720412,0.832659931,-1.25810966,0.140116709,0.00761271058,-0.0649585861
94285.333636,0.156973397,0.495020616,-1.78932959,-0.0185320575,-0.0252893132,-0.0415999952
94285.343664,0.509614795,-1.43667733,0.772005588,-0.187529323,0.00325924158,-0.00242569648
94285.353692,-0.153699257,-0.259012256,1.83895444,0.0554790523,-0.0307490595,0.0329016682
94285.363721,-0.771513541,1.17038155,-1.37404432,0.0769617062,-0.0192537915,-0.0369876686
94285.373749,0.158285064,0.815885176,0.462778311,-0.00512091182,0.0398702479,-0.0102812217
94285.383777,0.525488291,-0.651841106,0.724632427,0.0888564464,0.00841645314,0.0443631161
94285.393805,-0.648559069,-0.209315639,-1.69641632,-0.0800082061,-0.0324763872,-0.0201698046
94285.403833,-0.0547348055,-0.00198785615,0.255810215,0.0330571,0.0166224509,0.0189927753
94285.413861,1.28317355,-0.346571991,0.399532458,-0.0949594576,0.0448903076,0.0176087331
94285.423890,0.527420282,0.0625246318,2.31437064,-0.119492759,0.0848132193,0.0263979633
94285.433918,-0.633887204,1.02559424,-0.209167011,0.184612277,-0.0513422184,0.0862341311
94285.443946,-0.846050676,1.81023012,-4.56460269,-0.178202135,-0.0273298279,-0.0924016598
94285.453974,0.687437533,1.16445728,2.26791518,0.200324121,0.0502656333,0.001971449
94285.464002,1.68168231,-0.0618834363,-0.110307408,0.137835446,-0.00303061214,0.0124800161
94285.474030,-0.308863734,-0.725040124,0.658773176,-0.195981411,-0.0113814857,-0.0312498871
94285.484059,-0.738676854,-0.343902918,1.00268657,0.174590262,-0.0408586853,0.0389598284
94285.494087,0.69255853,0.145634877,-1.5907184,-0.133866367,0.00542625575,-0.0175425958
94285.504115,-0.212791059,0.29939473,1.80658654,0.0383224364,0.0135190699,0.0249132488
94285.514143,-0.826565127,1.22302944,-2.21914607,0.358212548,0.0404023498,0.0564781029
94285.524171,-0.420115274,1.93118699,-5.41479855,0.0744119983,-0.269793059,-0.075118548
94285.534200,-0.119215534,-1.42474271,2.75113358,-0.38602112,-0.128578688,-0.13890124
94285.544228,1.19561217,-0.694827649,8.11608357,-0.109701653,0.0572966419,-0.107648528
94285.554256,0.730188953,0.379550691,0.439100498,0.228877741,0.0873283117,0.116135569
94285.564284,-1.03503311,0.260827756,-3.74362066,-0.0671427373,0.0438551351,0.0231827286
94285.574312,-0.802268014,1.33605647,-3.94605812,0.0587107975,-0.0231920735,0.0168571875
94285.584340,1.16965501,-0.467642366,-0.478172168,-0.0846389059,0.0527511581,0.0135266383
94285.594369,0.374545158,-1.04699573,3.70356816,0.092886607,-0.0294337247,0.0771032136
94285.604397,-0.774565475,-0.803547186,0.903755068,-0.148931873,0.000402468718,0.0246709038
94285.614425,0.365394979,0.444120413,0.758148327,-0.0586435247,0.0492887839,0.0425351199
94285.624453,-0.0815072963,1.18413799,-2.42811615,0.0723251428,-0.0502812148,0.0374061402
94285.634481,-0.411635834,1.20080263,-2.2781857,-0.0900698949,0.0171982262,0.0117258087
94285.644509,0.592000087,0.19006623,2.29012935,0.0401064854,0.0603241257,0.0521888148
94285.654538,0.329837051,0.398298245,0.460806718,0.112477089,-0.00148464717,0.0144337111
94285.664566,-0.0279260013,0.506060335,0.21197575,0.00270904815,0.0612538352,0.0214564663
94285.674594,0.821401548,-0.899136316,0.71953072,-0.165134815,0.0191423341,0.0518489939
94285.684622,-0.327788069,-0.465215505,-1.13755904,-0.0334449608,-0.0469948754,0.0815166023
94285.694650,-0.636337739,1.07849647,-1.10217559,-0.00353180356,-0.00704825693,0.0292882894
94285.704679,0.478744368,1.37474363,1.05223532,0.0242484294,0.0185364641,0.0296315711
94285.714708,0.3574495,0.709994871,0.670380612,0.0116980158,0.0292809873,0.0297082711
94285.724735,-0.115432435,1.03004727,-0.443395454,0.100834015,0.0146895291,0.031986871
94285.734764,-0.520281795,1.08482699,-2.78083536,0.125560674,-0.1279792,-0.00740980148
94285.744792,-0.121311118,-0.171971102,-0.5966606,-0.178978455,-0.0510998697,-0.012269804
94285.754820,0.968597531,-0.921799252,4.54381019,-0.0639149893,0.048247487,0.0490390931
94285.764849,0.456323642,0.384818768,0.961010741,0.0574926686,-0.0074623779,0.0756928038
94285.774876,-0.711259563,1.57126106,-2.1906214,-0.0465870958,-0.0372053043,-0.0096051877
94285.784905,0.00814776716,0.915953424,-0.788251678,0.00048773927,-0.018134407,0.0519388665
94285.794933,0.770613098,-0.736384817,0.911431594,-0.0017993835,0.0181990999,0.0831330058
94285.804961,-0.277843669,-0.533218745,1.43357915,-0.140890164,-0.0101268145,0.04265402
94285.814989,-0.875127644,0.838715578,-1.10998655,0.146725911,-0.0308400833,0.0309339848
94285.825017,0.700478801,0.726333281,-1.04964285,-0.0560519706,0.0567472919,-0.00548234746
94285.835046,0.573984392,-0.612895435,1.74431333,-0.000415072377,-0.0419169695,0.0641033885
94285.845074,-1.00670425,-0.674605311,-1.06787584,-0.0418456022,-0.0133971761,0.0298809681
94285.855102,0.0432163041,0.746740986,1.04297883,-0.0230133265,0.0433270901,0.0226941623
94285.865130,0.489165662,0.582859241,0.577932045,0.0327753712,0.0559683151,0.0498245817
94285.875158,0.193014067,0.488425638,-0.972170322,-0.104572361,0.0210790418,0.0339777109
94285.885187,-0.44287831,0.70193541,-0.802039965,0.0342664745,-0.0173269373,0.043025532
94285.895215,-0.10044734,1.15601766,-1.67789575,0.0792752307,-0.0364207358,0.00614820909
94285.905243,0.840238569,0.0494342138,1.22940098,-0.0221190371,0.0320531286,0.0348016929
94285.915271,0.722009446,-1.19233812,3.13730323,-0.0721390594,0.0096101386,0.0725043353
94285.925299,-0.812443882,-0.0237425656,-0.41457151,-0.0516367156,0.000589479397,0.0235801965
94285.935327,-0.336913478,1.53055671,-2.39238433,0.184531617,-0.045265361,0.00443899235
94285.945356,0.310563465,0.387911948,-0.6385036,-0.0357469629,0.0129425523,0.00976930954
94285.955384,0.178821291,-0.931519998,2.85597459,-0.165848506,0.0856891915,0.0518302072
94285.965412,0.0574391099,0.0540880082,-0.876440834,-0.108666708,-0.0924477906,0.0196610887
94285.975440,-0.191469162,1.88705266,-2.480871,0.12325574,0.0148035695,0.027428997
94285.985468,0.466189861,1.36494442,1.75236278,0.0787801471,0.0171404935,-0.0011198239
94285.995497,0.115727121,0.32272888,-0.448455075,0.122534285,-0.0338105739,0.00179580528
94286.005525,0.173701829,-0.832783291,0.14275433,-0.278086645,-0.00980350678,-0.0347110729
94286.015553,-0.0272498556,-0.339799173,1.82533975,0.0277925961,-0.0323682048,0.0478091028
94286.025581,-0.513949231,0.912699244,-1.94052494,0.104065801,-0.0381941341,0.00118700624
94286.035609,-0.624753976,1.06064809,0.0949480377,-0.055743308,-0.0155388911,-0.0166652266
94286.045636,-0.128283003,0.34107114,-0.493420006,0.0633644413,-0.0240796481,-0.0213824834
94286.055666,0.595782967,0.513746505,-0.685240801,-0.045888548,0.00926419417,-0.0246203567
94286.065694,0.42344319,-0.34752794,1.88480199,-0.0690127734,0.00567718246,0.00422460794
94286.075722,-0.299331497,0.513724695,0.621121199,0.054011951,0.0307226151,-0.0242272753
94286.085750,0.168441132,1.57143802,-0.713446905,0.118042338,0.0212880995,-0.0340815026
94286.095777,-0.289284808,0.469066602,-1.51454994,0.0529032748,-0.0774318234,-0.0336937483
94286.105806,-0.262609859,-0.695279265,-0.49266948,-0.0558969725,-0.00114024373,-0.0207585048
94286.115835,0.607194441,-0.546607474,1.9885067,0.0158919942,-0.0154139877,0.0209279538
94286.125863,-0.43559977,-0.180616856,0.195416829,0.0526641224,0.00777548714,0.0176812943
94286.135891,-0.0428999177,0.34674356,0.0694096918,-0.0824063394,-0.00636243658,-0.00637184341
94286.145918,0.0496836004,0.100622883,-0.335896617,0.0125398746,0.0425526432,0.029661258
94286.155947,0.161245448,0.376267359,-0.0930400472,-0.0187019344,0.030499975,-0.00468366571
94286.165976,-0.0869225993,0.929934019,-0.492024752,0.00676028272,0.00936486176,-0.0156284587
94286.176004,0.245069102,0.357666192,0.0363351052,-0.000974336182,0.0332062773,-0.000357360356
94286.186032,0.625809198,0.0268035173,1.57987446,0.0543549646,0.0497357219,-1.35467947e-05
94286.196060,-0.306243834,0.379435504,-0.218738557,-0.00779762091,-0.0239765842,-0.019994444
94286.206088,0.0158937782,0.10903049,-1.50541912,-0.103465286,0.0129721134,-0.00252517384
94286.216116,0.56288644,0.11513921,0.332268601,-0.0951815221,0.00449793436,-0.00855137385
94286.226145,-0.496519153,1.62569072,-0.75206802,0.173918116,-0.0579835542,-0.0403878677
94286.236173,-0.0124178318,1.66855999,-0.742726775,0.117549653,0.0130586659,-0.0616287093
94286.246201,0.828620759,-0.697089091,2.43346522,-0.0994071636,0.00427476153,-0.0175781574
94286.256229,-0.366283584,-1.36937212,0.66915487,-0.0922523115,-0.0307868191,0.0158724759
94286.266257,-0.600173662,0.458403425,-1.26990531,0.0814824577,-0.0243962978,-0.00695800573
94286.276285,0.389740023,0.804898357,-0.910216262,0.0717368897,0.0251938913,0.00793066271
94286.286314,0.353004138,-1.04330272,0.987054698,-0.148307589,-0.022853262,0.0387631443
94286.296342,-0.780850693,-0.932102985,0.585934735,-0.0880141605,-0.00361298887,0.0406380084
94286.306370,0.300013941,0.963976793,-0.441928888,0.00537384097,0.0353178985,-0.00595585793
94286.316398,0.929977585,1.30358423,0.301725579,0.0529096674,0.0602171242,-0.0020151788
94286.326426,0.007542787,0.12441591,0.280886204,-0.0935751099,0.00206087599,0.00424697831
94286.336455,-0.401795993,0.211280977,-0.915851053,-0.075628062,0.00224596564,-0.0184820357
94286.346483,0.445799837,1.26008689,-1.34856326,-0.0148395516,-0.0163602096,-0.0381420243
94286.356511,0.672908876,0.880404848,0.420225117,0.0867414054,-0.00926155341,-0.0167027775
94286.366539,-0.097328258,-0.129113546,1.58456817,0.0565877583,-0.0454264835,-0.0236997034
94286.376567,-0.86112703,-0.0969838844,-0.0784813605,0.0603699785,-0.0537800186,-0.0459155243
94286.386594,0.358472998,-0.0951750084,-0.561965719,-0.0556767296,0.0290829062,-0.0696725163
94286.396624,0.78444011,-0.34267692,0.493303213,-0.069808257,-0.0517706641,-0.035874876
94286.406652,-1.05875593,0.0283509751,-0.692431005,0.120528395,-0.0324896455,-0.0100619195
94286.416680,-0.213860149,0.713094883,0.0882745513,0.0458192665,-0.021171476,-0.0454577271
94286.426708,0.418025841,-0.230832566,0.525434381,0.0166917414,-0.0109934073,0.00429251859
94286.436735,-0.0875804056,-1.39978289,1.00823719,-0.0922672275,-0.0045552149,0.0235961762
94286.446764,-0.42480577,-0.658936105,0.537744996,-0.0732754294,0.0176430314,0.01346551
94286.456793,0.0840431122,0.724296807,-1.03449964,0.137128147,0.0593819551,0.00970006663
94286.466821,0.656253656,0.392264042,-1.22390519,-0.005022607,-0.00226782612,-0.00624347921
94286.476849,-0.197522836,-0.929430186,0.281323427,-0.0535874825,0.0199722319,0.0295978759
94286.486876,0.102691187,-0.52627773,1.35428174,0.0186960369,0.0385600298,0.0103557373
94286.496905,0.00640501515,0.618707384,-0.0977530472,0.0139438937,0.0080095788,-0.00290813647
94286.506933,-0.105326782,0.423867716,-0.82535479,0.0392742816,0.00728173716,0.0194155436
94286.516962,0.503632214,-0.0375138054,0.0505980239,-0.0280115467,-0.00697815908,0.0323465217
94286.526990,-0.350404244,-0.116584292,0.5789345,-0.0410650309,-0.00193359959,0.041158655
94286.537017,0.0533474566,0.417472535,-0.0294493263,0.0162973281,0.0448922298,0.0170732953
94286.547046,0.48684058,0.741028819,-0.0449888408,-0.046137822,0.0476416766,0.0138418146
94286.557074,0.179696978,0.201726364,-0.351121075,0.0136544079,-0.005900644,0.00973761756
94286.567103,-0.109938587,0.663444205,-0.793521727,0.0566181194,-0.000508541828,-0.00244075131
94286.577131,0.51009593,0.207442349,0.275569393,0.0107174737,-0.0211584263,0.010157332
94286.587158,-0.0717492148,-0.353738157,0.957723974,-0.0313479539,-0.0180340067,0.00972909596
94286.597187,-0.357424717,0.270867175,0.0448410678,0.0967764583,-0.0194380239,0.0129326119
94286.607215,0.481514855,0.321666402,-0.756893832,-0.0385997418,0.0121846169,0.00471676024
94286.617243,0.0707145518,-0.398254686,0.868283357,-0.103988332,-0.0132592248,0.0416409534
94286.627272,-0.36208058,0.0527431968,-0.500709578,-0.0308400907,-0.0300749571,0.0276527007
94286.637300,0.138012603,1.35199448,-0.043020171,0.0308608253,0.0409448936,0.0231255938
94286.647328,0.409527697,0.739423502,0.874018686,0.100868138,0.0101140083,0.0216752377
94286.657356,-0.200204549,0.552333499,-1.23656477,0.0127249647,-0.00206116471,-0.0115929709
94286.667384,0.384866572,0.0127262666,-0.454417198,-0.0255039141,0.00629370403,0.0239210811
94286.677413,0.271765897,-0.655261362,-0.374962553,-0.0566509154,-0.0911609486,0.0398041729
94286.687441,-0.430442388,0.0738389526,0.433904098,0.0593177665,0.00236660684,0.0488834206
94286.697469,0.632168139,0.324032985,1.95170812,0.0121388024,0.00469500827,0.0365372721
94286.707497,-0.421856711,0.407700535,0.143501933,-0.0164334543,0.0257299866,0.0488067206
94286.717524,-0.171251207,0.689930938,-1.19793021,0.0121459931,0.00663245818,0.0344738562
94286.727552,0.13964678,1.19906799,-1.4325497,-0.0583817039,0.000949538774,0.0308698018
94286.737581,0.22160201,0.479973306,0.813201522,-0.0766411323,0.0267454504,0.0639904675
94286.747609,0.318139599,0.827803285,1.37107447,0.0598607834,0.0230276759,0.0463654038
94286.757637,0.0429813263,1.88216197,-0.218868321,0.133878561,0.00939681916,0.0137984056
94286.767665,0.132970225,0.805174908,-0.335079456,0.0126301561,0.00526226195,0.0327678372
94286.777693,0.0841625739,-0.546203606,0.0508406005,-0.0919852007,-0.00372484164,0.0573887576
94286.787721,-0.127401325,0.140705394,-0.668634534,-0.097994623,-0.0252229434,0.040163168
94286.797750,-0.108555828,1.47724992,-0.917283716,-0.04061043,-0.0194662542,0.0341223192
94286.807778,0.37653319,1.53413398,0.613054797,-0.0190380264,0.00892171147,0.0300868314
94286.817806,0.186412038,1.45717729,1.14831727,0.0603196461,-0.00324147777,0.0237983104
94286.827834,-0.210459839,1.44717305,-0.0568335923,0.0614325803,-0.00760346954,0.000592322312
94286.837862,-0.0571606444,0.815859238,-0.382132883,-0.0126682764,-0.0102189595,0.019457889
94286.847891,0.123848468,-0.0783679582,0.0174304983,-0.0884559799,-0.00529797073,0.0223953549
94286.857919,-0.132559,0.701085515,0.0339046632,-0.0270967513,-0.0172329277,0.00485524464
94286.867947,-0.0864549818,1.55859739,-0.104639884,0.049269392,0.0148216782,0.000654640831
94286.877975,0.140172265,1.11800584,0.490171929,0.0168840222,0.00363906496,0.00234654661
94286.888003,-0.472193033,0.716591785,-0.356626102,-0.012734323,-0.0238388975,0.000175271407
94286.898031,-0.134888173,0.892427368,-0.852200126,0.00179615028,-0.0111358857,-0.00608102676
94286.908060,0.189240028,0.856511055,-0.004927464,-0.00223720721,-0.0200795804,0.00181284942
94286.918088,-0.0889245868,0.578945319,0.65719146,3.84286126e-06,-0.00105182676,-0.00179466862
94286.928116,-0.0101379042,0.803483594,0.749158965,0.0200939298,0.0105254676,-0.00717025973
94286.938144,-0.226502262,0.852733217,-0.136631936,0.0497783225,0.00196260516,0.00237610772
94286.948172,-0.165182482,0.44916871,-0.682681764,-0.0134525776,0.00197059474,0.00902149383
94286.958201,0.0565661995,0.0698858858,0.0087070936,-0.0678772006,0.0124746344,0.0278678846
94286.968229,0.0817242408,0.466334254,0.318936826,-0.00148166839,0.00859121303,0.0169012558
94286.978257,-0.0172773276,1.25597419,-0.117520993,0.0249792326,0.0201831541,-0.00146017574
94286.988285,0.135370345,0.990270341,0.207383746,0.0232556358,0.0199011255,-0.00174433529
94286.998313,0.0310662129,0.430469233,0.155785661,-0.00465482492,0.00464946846,-0.00139679272
94287.008341,-0.105548682,0.421574966,-0.111518538,-0.0375709657,0.0023668732,0.000359296091
94287.018370,0.00882478964,0.664022224,-0.264610081,-0.0458661776,0.0016038774,-0.00294062659
94287.028398,0.118663905,1.05814371,-0.379498443,-0.0224825583,-0.00690492173,-0.0102768371
94287.038426,0.0596860851,1.19120208,-0.0566804476,0.0189993706,-0.0009192013,-0.0114664713
94287.048454,0.0935603707,0.869051972,0.487409478,0.0168531302,0.00141505932,-0.0122856589
94287.058482,0.0182904641,0.513462464,0.30885733,0.00605294695,-0.00103318471,-0.00709276065
94287.068511,-0.19061554,0.357658849,-0.15355326,-0.0157301139,-0.0215001099,-0.00104525477
94287.078539,-0.263661268,0.437289983,-0.495419655,-0.00896861329,-0.0144009211,0.00024131801
94287.088567,-0.0518789776,0.655358149,-0.180607272,-0.0180135082,-0.00877312967,0.000557967685
94287.098595,0.0220582922,0.763255264,0.183646896,0.00997924507,0.00538396812,0.00271326419
94287.108623,0.0570860587,0.821144777,0.425474708,0.0154072994,0.0167612589,-0.00160931308
94287.118651,0.0108702509,0.732937136,0.276962309,0.0174017407,0.0228005096,-0.00171770319
94287.128680,0.0808362059,0.567459099,0.0109376291,-0.0216625717,0.0213472217,-0.000866823606
94287.138708,0.0857914903,0.594462841,-0.114800044,-0.0283148803,0.0127819634,-0.000926744901
94287.148736,0.0938523394,0.855126688,-0.142592306,-0.00912787039,0.00779652618,-0.00352678891
94287.158764,0.0822705496,1.00513517,0.0850976748,0.01364269,0.00512883742,-0.00488313638
94287.168792,0.0749681176,0.79472205,0.0207231101,0.0064537528,0.0011604611,-0.0093631053
94287.178821,0.0579721938,0.506039877,-0.0810246153,-0.0156555438,-0.00226569572,-0.00931010932
94287.188849,0.0312588128,0.390056742,-0.136499834,-0.0227155846,-0.00847352413,-0.0129045786
94287.198877,-0.0134804926,0.591362464,-0.153721018,-0.00202655112,-0.0155298349,-0.0224722501
94287.208905,-0.0723376822,0.698024228,0.0538105562,0.00918189511,-0.00816433062,-0.0291655723
94287.218933,-0.0128595112,0.64495607,0.165984398,-0.00342977065,-0.00694433717,-0.0370506595
94287.228961,-0.0155523304,0.659443665,0.042284369,-0.00236317487,-0.00269206777,-0.0422137331
94287.238990,-0.0267199865,0.715784926,-0.0428366312,0.00473707896,-0.00118525106,-0.0524349425
94287.249018,-0.0502757072,0.72354175,-0.0346141617,0.00663538026,0.00199296523,-0.0646593783
94287.259046,0.0841342246,0.621745437,0.119411448,0.00732860137,0.0124490687,-0.0770579937
94287.269074,0.164602577,0.554002053,0.0745090608,0.0175924234,0.0161852173,-0.0881034571
94287.279102,0.169886362,0.427466252,0.0104472153,0.0270615581,0.0149164868,-0.0960135746
94287.289131,0.174586211,0.23334193,0.0403759051,0.0164453991,0.0132008789,-0.098677269
94287.299159,0.18629718,0.114465229,0.064499708,0.0114969805,0.00716588948,-0.101344428
94287.309187,0.112455114,0.12431634,-0.0482381979,0.0148003658,0.00518423109,-0.101654685
94287.319215,0.173162607,0.192975378,-0.000561085485,0.0174763098,0.00354239228,-0.101098618
94287.329243,0.172175277,0.157432392,-0.025261227,0.0116176222,-0.00143292512,-0.0994948584
94287.339271,0.126755442,0.130056409,0.0504635838,0.0105342481,-0.00186781923,-0.10266482
94287.349300,0.0770455815,0.228264316,0.0348013198,0.0225573543,-0.00501913787,-0.110689989
94287.359328,0.0643723432,0.261368147,0.0586182487,0.0310120907,-0.000300282734,-0.115504718
94287.369356,0.0639441079,0.180387516,0.107968847,0.0392047752,0.00726336124,-0.118445917
94287.379384,0.0977272811,0.0112130433,-0.0247164526,0.0239925317,0.0111545061,-0.115169427
94287.389412,0.161463621,-0.205705431,-0.0909451208,0.00380683719,0.00265156501,-0.109114728
94287.399441,0.0536620756,-0.256400996,-0.11487837,-0.00185957092,-0.00443111198,-0.100975579
94287.409469,-0.00109805396,-0.0294398274,0.0222779383,0.0225823883,-0.00953292964,-0.0980759251
94287.419497,-0.0463862255,-0.011413637,0.0690601478,0.0263326511,-0.00425001677,-0.0922286946
94287.429525,0.0260965347,-0.239327733,0.100825405,0.00662978767,-0.00248700404,-0.090232386
94287.439553,0.0329957927,-0.310151309,-0.0496913194,0.00377993919,-0.000957018351,-0.0856488186
94287.449581,0.0249389622,-0.243302372,-0.0450502156,0.00901651271,-0.000391895422,-0.0851353619
94287.459610,-0.0320524335,-0.180669226,0.0571896772,0.0122852761,-0.00313308719,-0.0815637994
94287.469638,-0.0419835335,-0.142846531,0.148013857,0.0219709266,0.00466544763,-0.080575763
94287.479666,-0.0120246678,-0.117165681,-0.000174716515,0.0237264827,0.00546386302,-0.0758715558
94287.489694,0.0607866667,-0.294299916,-0.10350182,-0.00764422277,0.0059746576,-0.0747575525
94287.499722,0.0798587392,-0.3461964,0.0137854198,-0.00963147375,-0.00123318809,-0.0701255191
94287.509751,0.0135902505,-0.0940327796,0.0143857238,0.0164973315,-0.000882716039,-0.0738952223
94287.519779,-0.00394927867,0.0261452315,0.0404203287,0.0273723498,0.00457010627,-0.0711737413
94287.529807,0.0779879769,-0.191336422,0.0909212664,0.00695069861,0.00698532699,-0.0661989588
94287.539835,0.0712017508,-0.276080935,0.0342992155,-0.0035285742,0.00505107292,-0.0578922953
94287.549863,0.0725520695,-0.085854131,-0.0654295712,0.00706361682,0.00605961238,-0.0506242614
94287.559891,0.107258568,0.0803009106,-0.0403436453,0.00566252768,0.0021405043,-0.0411388788
94287.569920,0.0612291498,0.124108269,0.00769645525,0.00137963186,-0.00350672869,-0.0285282794
94287.579948,0.0478726054,0.183340758,0.0478121925,-0.00347238145,0.000631024707,-0.0207329381
94287.589976,0.116374552,0.316501457,0.0717676531,-0.00701385289,-0.00387530984,-0.0188104052
94287.600004,0.0222949505,0.435031829,-0.0656926061,0.000265631642,-0.00364228362,-0.0163118269
94287.610032,0.0763323187,0.557596753,-0.0351466612,0.00220947275,0.000864317578,-0.0179800305
94287.620061,0.162918715,0.567307598,0.0219552822,-0.0101689,0.0100439673,-0.0171797488
94287.630089,0.200702064,0.632471121,0.0957780588,-0.0226940133,0.00739944889,-0.0175304886
94287.640117,0.127444447,0.896842481,0.0223720463,-0.011914069,0.0035586378,-0.0273010943
94287.650145,0.0532473573,1.15827976,-0.118416481,0.0203067165,-0.0073573927,-0.0390922416
94287.660173,-0.0643325818,1.06995748,-0.169594879,0.0240066469,-0.016421729,-0.0460718523
94287.670202,-0.0664769735,0.626168806,0.018704756,0.00564122228,-0.020348293,-0.0540062066
94287.680230,-0.101399453,0.402435527,0.0433154656,0.00268777674,-0.0165913713,-0.0616998177
94287.690258,-0.102096788,0.443818216,-0.0304248934,0.0134070002,-0.0150350195,-0.071344978
94287.700286,-0.14392817,0.39438414,-0.0486830191,0.0124037869,-0.010473558,-0.0751205448
94287.710314,-0.12247797,0.285271603,0.106567164,0.0105611457,-0.00538825174,-0.0759269509
94287.720342,-0.09843147,0.252587021,0.0896885098,0.0212657217,0.000359914843,-0.0740342427
94287.730371,-0.0710977651,0.167938752,0.0148299604,0.0200169653,0.00466012093,-0.0710560295
94287.740399,-0.0213605783,-0.0202998184,0.0148825674,0.0126453357,0.00993158179,-0.0598635625
94287.750427,0.0363737447,-0.13793568,0.0509697798,0.00126245285,0.0116096397,-0.0529268298
94287.760455,0.0395091932,-0.0677231022,0.0342372562,0.0190877885,0.0109385231,-0.0447336163
94287.770483,0.0702130321,-0.049454519,-0.0511736669,0.0109710068,0.00940560805,-0.0355217408
94287.780512,0.0459512089,-0.172483216,-0.012605159,-0.013965076,-0.000795078003,-0.0224184382
94287.790540,0.0116357554,-0.0562541297,-0.0147070997,-0.00852982998,0.000634506864,-0.0174881283
94287.800568,0.0438779098,0.304948455,-0.0395393432,0.00454123114,-0.00305929757,-0.0173120934
94287.810596,0.0125769818,0.369797798,0.00416945017,0.00592607474,0.000585504686,-0.0154534734
94287.820624,0.035863311,0.310433681,0.0833388485,0.0043630654,-0.0017511528,-0.0196657952
94287.830653,0.00685253972,0.319230297,-0.0547392504,0.00509623373,-0.00410059351,-0.0216735515
94287.840681,-0.0196939603,0.274242661,-0.0560228605,0.00667442317,-0.00955874217,-0.0238951619
94287.850709,-0.0620509006,0.235094838,-0.0390103509,-4.63304544e-05,-0.0079967978,-0.0277583439
94287.860737,-0.0347449606,0.252912946,0.0960405091,6.36581014e-05,-0.00642526639,-0.0290579635
94287.870765,-0.0450447477,0.346651461,0.0436878061,0.0102877997,0.00321351201,-0.0340604473
94287.880794,0.00728369768,0.337408088,0.032725098,0.0115147175,0.00420101243,-0.0369137589
94287.890822,0.0378864873,0.164065729,0.0262123552,0.00757670151,0.0105036495,-0.0407037016
94287.900850,0.10783308,0.062798736,0.0723188573,0.00385679845,0.0112069899,-0.0430805746
94287.910878,0.178607867,0.02397413,-0.0185018158,0.00553219328,0.0152768332,-0.0473504204
94287.920906,0.177294081,0.0243293686,-0.0186555451,0.0113450743,0.00996808777,-0.0492079731
94287.930935,0.145881729,-0.0324854079,-0.0601735504,0.00857405532,0.00288940523,-0.0527342658
94287.940963,0.0991406551,-0.123572479,-0.0176823162,0.0156684507,-0.00219803118,-0.0506426196
94287.950991,0.0655972088,-0.234386221,-0.0252629805,0.0178849984,-0.00601114543,-0.0471032772
94287.961019,0.0574234009,-0.396378554,-0.0199140207,0.00549064791,-0.0136102086,-0.0406967762
94287.971047,-0.032856005,-0.518152949,-0.014674951,-0.00471591688,-0.0115297476,-0.0318548184
94287.981075,0.0218233144,-0.386826005,0.0505115146,0.00203413079,-0.00730118086,-0.0244829196
94287.991104,0.0246514505,-0.256980641,0.0202034701,-0.000505725716,-0.00440046541,-0.0159983568
94288.001132,-0.00548788642,-0.252115519,0.0344634661,-0.00751489931,-0.00502630813,-0.0104392737
94288.011160,-0.0378209339,-0.14848366,0.0434744556,0.00416066526,-0.000676567438,-0.00730127167
94288.021188,0.0134821139,-0.11110776,0.0407616895,0.00709200679,0.00378502649,-0.00357923727
94288.031216,0.0591615498,-0.251386839,0.0351777519,-0.00993677806,0.00621622637,-0.00354035456
94288.041245,0.070970061,-0.287210615,0.0380810721,-0.00566852949,0.00865541468,-0.00161595434
94288.051273,0.0726188511,-0.168584839,-0.015409695,-0.00630156295,0.00649079796,-0.00132194139
94288.061301,0.0475397202,-0.0805697609,0.0412222928,-0.00276248827,0.00805567088,4.18631732e-05
94288.071329,0.115172848,0.0122321869,0.0484662725,-0.00389140257,0.00829748692,-0.00210091636
94288.081357,0.160048201,0.0823336859,0.0130617817,-0.00746669592,0.00721198204,-0.00460269
94288.091386,0.134223586,0.126348613,-0.00884785231,0.00692342855,0.00429555471,-0.00891647745
94288.101414,0.130209016,0.137205633,-0.0284988937,0.017827208,0.0032755637,-0.0143040537
94288.111442,0.106124157,-0.0800237444,-0.0334351811,0.00799907912,-0.00402229676,-0.0162612095
94288.121470,-9.68410294e-05,-0.333186805,-0.0352723334,0.000443424846,-0.0142238012,-0.0156116642
94288.131498,-0.0781316823,-0.376564029,-0.108992234,-0.000902536741,-0.0202188448,-0.0120712582
94288.141527,-0.0674249949,-0.286489845,-0.0266401141,-0.00601820294,-0.0164922804,-0.00856547315
94288.151555,-0.0471276915,-0.188510112,0.0783885326,-0.00700197434,-0.00648119324,-0.00424502674
94288.161583,0.0127350219,-0.0237439607,0.127769526,-0.00204396755,0.00683035119,-0.00331851352
94288.171611,0.126388581,0.0879649333,0.145727792,0.0108710321,0.0170267958,4.93202731e-05
94288.181639,0.151686543,0.0527789349,0.104651686,0.00547147291,0.0202974237,0.00521105876
94288.191668,0.133141417,-0.0813585184,0.0730366502,-0.00305703394,0.013311154,0.00670882057
94288.201696,0.0765198771,-0.133919202,-0.0768446992,0.00181468663,0.00395653396,0.00623211473
94288.211724,0.0569025918,-0.108672532,-0.127440914,0.00704087345,-0.00113756047,0.00699590914
94288.221752,0.0512284917,-0.172869439,-0.0537648524,-0.0038029856,-0.00599010638,0.00614210008
94288.231781,0.0338375042,-0.199446937,0.0203718124,-0.00499155391,-0.0050409555,0.0042816156
94288.241809,0.00696316048,-0.0816611272,0.0285112797,0.0028171002,-0.00428142236,0.000973703563
94288.251837,-0.0274203168,-0.0203312776,-0.0188846777,0.00619345606,-0.0020499595,-0.000557880625
94288.261865,-0.0150979377,-0.10223743,0.0419096905,-0.000917983075,-0.00438022544,0.00297160655
94288.271893,-0.0651381261,-0.126591279,0.0473241168,-0.00830958709,-0.00102783833,0.00278518558
94288.281922,-0.047940323,-0.0213589287,0.0447966441,0.00705552129,-0.00214210479,0.00520093855
94288.291950,-0.0622989571,0.0166987161,-0.0684772684,0.00587121379,0.0029695665,0.0040616386
94288.301978,0.0307749748,-0.0720210095,0.0859136674,-0.0017504872,0.00301510654,0.00821750168
94288.312006,-0.0316277053,-0.109962563,0.0450094101,-0.008631563,0.007664453,0.0112337975
94288.322034,0.0580159599,0.0410559465,0.0236568254,-0.00157871325,0.00618906202,0.00933736026
94288.332063,0.0398937355,0.107207312,-0.0720334995,0.00273773801,0.00631369766,0.00824067112
94288.342091,0.029120851,0.0798295302,0.0437339833,-0.00238139014,0.00251336698,0.00973124173
94288.352119,-0.0224781111,0.0853392518,0.0163701756,-0.00696442388,-0.00570754498,0.00660229404
94288.362147,-0.0719844118,0.17165907,-0.0167944274,0.00199658033,-0.00398474583,0.00522650521
94288.372175,-0.0328983828,0.240109049,-0.0405301078,0.00147060601,-0.00528463512,0.00286268326
94288.382204,0.0145256316,0.196921083,-0.0046363721,-0.0174849752,0.00734993373,0.00258571444
94288.392232,0.0807462626,0.212016562,0.100066696,0.0157792371,-0.000220367806,-0.00361811906
94288.402260,-0.128995681,0.307477498,-0.0902828575,0.0168239947,0.00651876139,-0.00493931282
94288.412288,0.136550129,-0.00533679897,0.0659762103,-0.0205105927,0.0085116045,-0.00261650398
94288.422317,0.126345692,-0.00946861182,0.0420908923,-0.0113605039,0.00907699367,5.25156409e-05
94288.432345,0.0896719119,0.326002933,-0.0634924657,0.00967900064,0.00683487835,-0.00478698011
94288.442373,0.103243853,0.404219342,0.0238210761,0.00947500281,0.0078255746,0.00201846123
94288.452401,0.0932366186,0.206650231,0.0574743394,-0.00791597105,-0.0065381846,0.00552131724
94288.462429,-0.0458236231,0.269258937,-0.10927222,-0.0086273022,-0.00938776718,0.0114460515
94288.472458,0.0117987639,0.440977293,-0.124676125,-0.0105767364,-0.0211951577,0.011374146
94288.482486,-0.139111782,0.558282178,-0.026744159,0.00134676921,-0.0124634516,0.0112985123
94288.492514,-0.0200052182,0.588324594,0.109979603,0.00186262343,-0.00727188611,0.00814106897
94288.502542,-0.0269592751,0.576306787,0.079347733,-0.00529941562,-0.00093569281,0.00800657947
94288.512570,-0.0233734525,0.523565304,0.0241127525,-0.00939402654,0.00199458329,0.00621187476
94288.522599,-0.0400702472,0.665808743,-0.0119785516,-0.00736043574,0.0037056643,0.00494980276
94288.532627,-0.0310165877,0.752170902,0.0252373726,0.00263680453,0.00495761609,-0.00220051851
94288.542655,0.0441510276,0.810602194,0.0691525022,0.0606084939,0.00960643007,-0.00475395728
94288.552683,0.0821304835,0.365108361,0.0152905636,0.0108257577,0.014115162,-0.00279173978
94288.562712,0.0707163054,-0.212690084,0.167362117,-0.0207934204,0.00556268659,0.00545766786
94288.572740,0.0606083876,-0.0652206636,-0.0848579098,0.0030389417,0.0094785986,0.00271328002
94288.582768,0.103197018,0.234974426,-0.10180846,0.00619585282,0.000748490153,0.00279370764
94288.592796,0.0616419684,0.0647788724,0.0391554234,0.00527040456,-0.00293652597,-0.00341784932
94288.602824,-0.0102106772,0.0184065384,0.0380261271,0.0257493135,-0.0071496463,-0.0070219047
94288.612853,-0.0483314412,-0.185335829,-0.13379759,0.0125461601,-0.0112964551,-0.00383090578
94288.622881,-0.0210189253,-0.494118833,-0.013524612,-0.0141160769,-0.00763327652,-0.00179971267
94288.632909,0.0701889936,-0.474516673,0.074955051,-0.0182660811,0.000294953813,-3.94299626e-06
94288.642937,0.126358771,-0.167734871,0.0859639363,-0.00592925325,0.0100996473,0.000776895545
94288.652965,0.183646738,0.0194610775,0.123512453,-0.00169589249,0.0153751036,0.00161925353
94288.662994,0.109297161,0.0671685121,0.0279051305,0.00307382904,0.00855714525,-0.000761878453
94288.673022,0.0529887063,0.0637426932,-0.117582952,-5.67167384e-05,-0.00164515898,-0.00162873767
94288.683050,0.0279390938,0.00349307089,-0.0715635439,-0.00609570061,-0.0111840696,-0.00276590768
94288.693078,-0.0290274597,0.0177444806,-0.039694826,-0.00455879066,-0.0129694522,-0.00528179552
94288.703107,0.00399722335,0.118336608,0.0265624838,0.00551408371,-0.00640076609,-0.00892606448
94288.713135,0.0407236105,0.107478219,0.0665583941,0.00692129815,-0.00299058785,-0.0121170643
94288.723163,0.00849088151,-0.0182412556,0.0164409027,0.00193612678,0.00072079326,-0.0102635052
94288.733191,0.0497304352,-0.142538278,0.0583148819,-0.00202905382,0.000740500686,-0.00742324326
94288.743219,0.0598225709,-0.156717893,0.0228057616,-0.00260775881,0.00813929433,-0.0042626036
94288.753248,0.132714423,-0.116428973,0.0688257545,-0.00108762639,-0.00171386847,-0.00155922934
94288.763276,-0.00710248201,-0.11120796,-0.0133498399,-0.00885047503,0.0137071654,0.00122404028
94288.773304,0.224576568,0.0595310486,0.159829967,0.00998739507,-0.00440153084,-0.00102686301
94288.783332,-0.0969230382,0.115751725,-0.215100493,0.0026789343,0.000301192161,0.000381747484
94288.793361,0.117513201,0.0585686516,0.0427607544,0.0103666818,-0.0112942106,-0.00403563842
94288.803389,-0.0933677569,0.0205056033,-0.100570443,0.0201522008,-0.0124313806,0.00521538429
94288.813417,-0.0809463014,-0.233421504,0.0825585118,-0.0310324237,-0.0117954176,-0.00131734997
94288.823445,-0.046427142,-0.0735462326,0.0629226679,0.00946200528,-0.00450607972,0.00114261242
94288.833473,0.0254851248,0.100193844,-0.0500782728,-0.00453636814,0.00406663562,-0.00110056788
94288.843502,0.111682449,0.0516412635,0.197600018,0.010675608,0.0159600459,-0.000118127801
94288.853530,0.159470182,0.0268883369,0.124056643,-0.00418696152,0.0196439966,-0.00240445208
94288.863558,0.13323852,-0.043199733,0.0489075866,0.0100729352,0.012193538,-0.00253148448
94288.873586,0.101838662,-0.0644944362,-0.132423379,-0.0040913538,0.0074091691,0.0003705623
94288.883615,0.0793831576,-0.163176915,-0.0475455395,-0.018168823,-0.011412455,-0.00130856108
94288.893643,-0.0211671016,-0.00123791343,-0.089321319,0.00106425949,-0.0106981958,-0.000568202473
94288.903671,0.00305110161,0.176883234,-0.0328845615,0.0141771322,-0.0188314889,-0.00276850607
94288.913699,-0.0615632633,0.069193232,-0.0391746015,0.0135973625,-0.0048267243,0.000427553654
94288.923727,0.0555117951,-0.185709101,0.149876729,-0.0146465266,-0.00691038114,0.00294077838
94288.933756,0.000613718393,-0.166116677,0.0681763507,-0.0105857385,0.00517397816,0.00375836924
94288.943784,0.0937485137,0.0510907717,0.0525333758,-0.00209318422,0.00608850759,0.00144834327
94288.953812,0.0585717672,0.173339826,-0.00335276203,0.0117579166,0.00748906401,-0.00177594624
94288.963840,0.0848118316,0.086334446,0.0252969939,0.00997013673,0.00523283402,-0.000127982125
94288.973869,0.066472165,-0.0848218197,-0.0139355308,-0.0056077579,-7.64440093e-05,-1.4815107e-06
94288.983897,0.0406634047,-0.12027004,-0.0332118937,-0.00464289467,-0.0040754464,-0.00148006879
94288.993925,0.017827888,-0.00426322976,-0.0522889346,0.00310104508,-0.00715752249,-0.000908021592
94289.003953,0.00956895907,0.0335963649,-0.000298050634,0.0023460391,-0.00520196395,-0.00101561356
94289.013981,0.0175215986,-0.0197301379,0.0793471485,0.00101871945,-0.00194172212,-0.000740509257
94289.024010,0.0338291017,-0.0031222613,0.0378969477,-0.000952286014,0.00243731378,-0.000337572545
94289.034038,0.0473884752,0.000176275636,0.0245376999,-0.00165189844,0.00467383652,0.000849131718
94289.044066,0.0595541293,-0.000734081245,0.0343488999,-0.000892631252,0.00703313085,0.000173754282
94289.054094,0.0527008293,0.0308858775,0.0124351742,0.00451917835,0.00428448221,-0.00117673516
94289.064123,0.0617236553,0.0126720841,0.00522275861,0.00471465411,0.00176593079,-0.000193496011
94289.074151,0.0444205653,-0.038234256,-0.00749000796,9.54014746e-05,-0.000555280484,-0.000245427489
94289.084179,0.0488869701,-0.0645662228,-0.00581184562,-0.00366311771,-0.00535722613,0.000707451478
94289.094207,0.0192510527,-0.0158324089,-0.00171960787,0.000711124324,-0.00489010779,-0.000859818198
94289.104236,0.0341012697,0.0352471963,0.0200170076,0.00261395313,-0.00264133444,-0.000224121623
94289.114264,0.0424641705,0.0229410834,0.0314052476,0.00412929133,0.000258315234,0.00111065408
94289.124292,0.0404075303,-0.0328597143,0.0391735435,-0.000172512498,0.0016016137,-0.000865144432
94289.134320,0.0585142648,-0.0313974117,0.0370435458,-0.000940301813,0.00224876194,0.000442466922
94289.144348,0.0569772645,-0.0130174257,0.00528062628,-0.000402875893,0.00379685754,-0.000455816984
94289.154377,0.0636970743,0.0227402773,0.00674017744,0.00278572673,0.00121545535,-0.000851562954
94289.164405,0.0414962753,0.0290230314,-0.00867834097,0.00212286627,-0.00200137706,-0.00138179842
94289.174433,0.0526378471,0.00235102586,0.00150461487,-0.00045853598,-0.000928921979,-0.00103159226
94289.184461,0.0508543977,-0.0312329442,0.0140928783,0.000800073895,-0.00243653707,0.000697065368
94289.194490,0.0404510771,-0.0108426892,0.0124731681,0.000841885622,-0.00219046115,0.000608115681
94289.204518,0.0478213867,0.00811213297,0.00768944099,0.000339347104,-0.00154517743,-0.000692305863
94289.214546,0.0536182364,-0.0151684572,0.00169926066,-0.000541892901,0.000620771486,0.000743404254
94289.224574,0.0569049299,-0.0324759939,0.017542142,-0.00182979759,0.00157231895,-0.00125396602
94289.234602,0.0484588809,-0.00525798156,0.0255974381,-0.000250809427,-0.000945699755,-0.00244812738
94289.244631,0.0477501481,0.0061694171,-0.0101788087,-0.000310464189,-0.000295888521,-8.6722523e-06
94289.254659,0.0478405298,0.00442539158,0.00298228621,0.00149249581,-0.00197128323,-0.00319354679
94289.264687,0.0312035024,-0.000103253977,0.00372755162,0.000346005013,-0.00140802458,-0.000520798154
94289.274715,0.0428017319,-0.0340513192,0.0168868929,-0.00156135095,-0.000526784575,0.000285074338
94289.284744,0.0376372618,-0.0316168381,0.0318418855,-0.00321597298,0.000247929008,8.37188214e-06
94289.294772,0.0458928298,-0.00112987877,0.0228314805,-0.000723786835,-0.000431443453,-0.000116530582
94289.304800,0.035341406,0.0258815916,0.0160714849,0.000971847846,0.000866581274,0.000295194089
94289.314828,0.0550553565,0.00774767786,0.0377291899,0.000226162773,0.000410914416,-0.00176316291
94289.324856,0.0472862569,-0.0173780972,0.0303455094,-0.000706209984,9.71939834e-05,-4.32932377e-05
94289.334885,0.0474180666,-0.0112377198,-0.00725035399,0.000785426519,-0.00218620035,-6.27502799e-06
94289.344913,0.0382499869,-0.013454341,0.00380003233,0.000864522465,-0.00205863477,-0.000121856816
94289.354941,0.031944457,-0.00799521708,0.0136387048,0.00132125446,-0.00254572672,0.000254447795
94289.364969,0.0232787008,-0.00362756164,0.00283147956,0.00176706764,3.27455299e-05,-0.000328518227
94289.374998,0.0406069983,-0.0015918206,0.0108557961,2.19086964e-06,-0.00311990432,-1.58629939e-05
94289.385026,0.0404449397,-0.0112739043,-0.0117938426,0.00126000184,0.0026873846,-0.00106195245
94289.395054,0.0437125631,0.00044598511,0.00769996238,-0.000245483077,-0.000233836942,-3.98315117e-05
94289.405082,0.039044206,0.000705949793,0.00356856167,0.000391012457,0.00200668047,0.00152983585
94289.415111,0.0399018458,-0.0166670788,0.0314584391,0.000268240742,0.000139804669,0.000350321867
94289.425139,0.0277290313,-0.017164749,0.00386608331,0.000777437052,-0.000295622279,-3.53043526e-05
94289.435167,0.0387119784,-0.00598939597,0.0124988871,0.000111646767,-0.000581379402,-0.00103798393
94289.445195,0.0343247032,0.00408121793,-0.00967085914,0.00199263757,-0.000770996446,-0.000758618824
94289.455223,0.0342371711,0.0090744889,0.0109335375,0.00189862789,-0.00143838453,-0.000523461737
94289.465252,0.028351474,-0.00198583487,0.00892979644,-7.61060595e-05,0.000426360751,3.8998425e-05
94289.475280,0.0301665606,-0.0221252826,0.0269675574,0.000313248069,4.31318721e-05,-0.00173653081
94289.485308,0.0346651141,-0.00435661741,0.030788577,-0.000499548661,0.00128736067,-0.00090535894
94289.495336,0.040956031,0.00504263286,0.0197948893,0.00135188101,0.00165967061,-5.44784218e-05
94289.505365,0.0395218335,0.00367913651,-0.00598837123,0.000739353875,-6.41935086e-05,-0.00131308824
94289.515393,0.0442967197,-0.00642753451,0.0159534115,-9.2617652e-05,0.00102930038,-0.00101082005
94289.525421,0.0291840524,-0.0136010549,0.00694008393,-0.000152805072,-0.00092759042,-0.000106143542
94289.535449,0.0337876737,-0.0155822644,0.00600251081,-0.00143085601,-0.00156967843,0.000132208914
94289.545477,0.0328104993,-0.0139323224,0.0136071406,0.000501533554,-0.00137580035,-0.000194294155
94289.555506,0.0280018569,-0.00792783952,0.0170108116,0.000302861727,0.000311578503,-0.00047419291
94289.565534,0.0264883836,-0.00601003804,0.0162076785,0.000220303823,0.000838351781,-0.000752493516
94289.575562,0.0254000769,0.00231746751,0.0101643067,-0.000101139777,-0.000393360276,-0.000464073159
94289.585590,0.023990137,-0.0116034056,0.00322018662,-0.000426045395,0.000315040578,0.000223821253
94289.595619,0.0250670455,-0.0175257985,0.0199117937,-0.000174909315,0.000244200574,-0.00137114502
94289.605647,0.0362366012,0.00170587723,0.0141840637,-0.000273978928,0.000124624576,0.000531949326
94289.615675,0.029242943,-0.00600637108,-0.00845972978,-0.000725917352,-0.000772860721,0.000759915672
94289.625703,0.0260687699,-0.00272362594,-0.0025133886,0.00115986697,0.000152321411,-0.000216665454
94289.635732,0.0342495191,0.0194575875,0.0223024882,0.000598206351,-0.000696960492,-0.00174292248
94289.645760,0.0315648831,0.00637831746,0.00939916752,0.000979570954,-3.25018819e-05,0.00198417133
94289.655788,0.0277042622,-0.00228068621,0.0150538323,-0.000412196977,-0.000941172363,-0.000155678727
94289.665816,0.0276433257,0.00287468794,0.0132324621,0.00221767444,0.000204253122,0.000310907364
94289.675844,0.0302488321,0.00192453794,0.0293652662,0.000203259572,-0.000304144346,-0.000265666991
94289.685873,0.0314077198,-0.000510755067,0.0140624832,-0.000778381605,0.000637283078,-0.00216583233
94289.695901,0.021518267,-0.0031990249,0.007889932,-0.000622586705,0.000542474557,-6.59299642e-05
94289.705929,0.023252105,0.00583841674,0.0126356652,0.00149409373,0.000778164302,-0.000863547213
94289.715957,0.0338207723,0.00608352635,0.00211836286,0.00135134829,-0.000967803998,0.00113781843
94289.725986,0.021843115,-0.00579449617,0.00372813614,-0.000805812198,0.000785088511,-0.00054503303
94289.736014,0.0257947753,-0.00243803619,0.0213567318,0.000513251455,-0.00194864651,0.000289867856
94289.746042,0.0356166427,-0.00626694797,0.00801501968,0.000640017961,-0.000107336678,0.000545265377
94289.756070,0.019904329,-0.00637408901,0.0196510969,-3.34954906e-05,-0.000898561794,-0.000352220386
94289.766099,0.0199678227,0.00595615309,0.0106447837,-0.000214856709,0.000422898675,0.000174286999
94289.776127,0.0290415021,-0.0169790719,0.0231897925,0.00207998911,7.17921183e-06,-0.00113518979
94289.786155,0.0303653711,-0.00492188718,0.00878658858,0.000529137257,0.00148748955,0.000131752566
94289.796183,0.0277246474,-0.00315155247,-0.00278285319,0.00103433889,0.00140892632,-0.000284765624
94289.806211,0.0216434277,-0.00554789586,0.0278636295,-6.9274983e-05,0.000292795589,0.000389812738
94289.816240,0.0173366705,0.00929862678,-0.00374205361,0.000468683595,-0.000251820898,-0.00174684148
94289.826268,0.0223771488,-0.000537238932,0.0325965032,0.00152196379,-0.00201749686,-0.000461333208
94289.836296,0.031301556,-0.00171573324,0.0422989821,0.00252624164,0.000633680141,-0.00103018411
94289.846324,0.0306829126,-0.000538096307,0.0329828722,0.00117149174,0.00242678658,0.00123643199
94289.856353,0.0203311761,-0.00554920133,-0.0216734316,0.000774947045,0.00135699473,-5.91955706e-05
94289.866381,0.0365231631,-0.00494102571,-0.022884561,-0.00223788707,-0.000848901579,-0.000920462199
94289.876409,0.0249993871,-0.0178712715,-0.0680751173,-0.00419903891,-0.000994310137,0.00140580883
94289.886437,0.0332129426,-0.00102196541,0.00210258077,-0.00161683787,-0.00309740869,-0.00014654804
94289.896466,0.0141918696,0.0096426887,0.0357868237,-0.000158224554,-0.00017778506,-0.000876785964
94289.906494,0.0414915261,0.0195821661,0.0878326528,0.000864162974,0.00059186853,-0.000471985675
94289.916522,0.0163174104,0.00318851016,0.00283440217,-0.000216015157,-0.00135490217,-0.00061020419
94289.926550,0.0216076258,-0.0154060459,-0.00406061804,-0.00150365354,-0.00154158974,-0.000342289694
