t,ax,ay,az,gx,gy,gz
95277.458953,0.0170235424,-0.00408833789,0.0319049583,0.000277983258,0.000265487644,0.00170197245
95277.468977,0.0220706332,0.0166112719,0.0589905336,0.00175017864,0.000962170598,0.000265995972
95277.479001,0.0130753163,0.00243608402,0.0492646739,9.47577646e-05,0.00104526116,-0.000496999361
95277.489025,0.00291106514,0.0210827775,0.0419371075,0.000342698069,-7.80600822e-05,-0.000602194108
95277.499049,0.0144524864,0.010860024,0.0512140544,0.00019622421,-0.000967556029,5.34756109e-05
95277.509074,0.0228358455,0.00535080243,0.0503162288,0.000844437629,0.000858040992,-0.00166932307
95277.519098,0.00626300592,0.0234827171,0.0416407549,0.00025294954,0.000154966488,-0.000164637342
95277.529122,0.0084873309,-0.00225095498,0.0492728572,0.00145456777,-0.000813358929,-0.000232281163
95277.539146,0.00216357124,0.00945208885,0.0536141013,0.000152548368,0.000323810906,-0.000365706161
95277.549170,0.00863678584,0.000668240951,0.0525648845,0.000338703336,-0.00151430292,0.00173659343
95277.559194,0.0182599158,-0.00246800897,0.0456803857,-0.00130952708,-3.73137882e-05,-0.000961720943
95277.569219,0.0128248121,-0.00631437192,0.0679781422,-0.000503920834,0.00136111211,0.00128651923
95277.579243,0.0282448649,0.00731264854,0.0555634818,-0.00472103665,0.00165352714,-5.81108034e-05
95277.589267,0.00154317432,0.00322752666,0.0519745174,-0.00094254344,-0.000430662651,-0.000118831173
95277.599291,0.0217665723,-0.0132042604,0.0631967531,-0.000614708348,0.000754710345,0.000404746272
95277.609315,0.0162842684,0.00169659762,0.0585614946,-0.000622431457,-0.000278063468,-0.000899403356
95277.619339,0.0162575996,0.00171908459,0.0585620791,0.000362938095,0.000637531281,-5.06537035e-05
95277.629364,0.0165276852,0.0031231427,0.0542237576,0.000265732699,-0.000964892679,0.00175203988
95277.639388,0.0199881644,0.0228976038,0.0581137508,-0.000517236651,-0.00109831721,-0.000515108928
95277.649412,0.00777761173,-0.00401652276,0.0449485643,-0.000161172007,0.0011176992,0.000633512624
95277.659436,0.0142727459,0.00795625053,0.0570721328,0.000570931006,0.000121676945,0.000609277748
95277.669460,0.0122188821,0.0175199168,0.0542278493,-0.000109773013,0.000499046873,0.000354679301
95277.679484,0.00947590355,0.00732423052,0.0578209053,-0.000353718526,0.000171744381,-0.000108976848
95277.689508,0.0172167635,0.00550893729,0.0503401942,-0.000764486962,0.000102714752,-7.3836185e-05
95277.699533,0.0193343767,0.00807819755,0.0561801524,0.00020703426,0.00146598695,-0.00103071053
95277.709557,0.0195886437,0.00568850424,0.0540869795,0.000581208384,-7.41190743e-05,0.000846285373
95277.719581,0.0232633502,0.00394073584,0.0512462031,3.17982631e-05,0.000821235648,-0.000107392669
95277.729605,0.0162023257,0.0191282425,0.0440641827,0.000558038882,-0.000126317027,0.000214317814
95277.739629,0.008860402,0.0111734921,0.0638169309,-0.000420939148,-0.000458146911,0.000739227049
95277.749653,0.0112883233,-0.00152104355,0.046757075,0.000414760812,0.00141085952,-0.000906607136
95277.759678,0.0188610601,-2.64324908e-05,0.0427191978,-0.000588984578,0.00113868446,0.000730704516
95277.769702,0.0168764256,0.015692843,0.0512549709,-0.000210283062,0.00116238662,0.000174903311
95277.779726,0.0262752819,0.0103079785,0.0346457814,-0.000190309394,0.00058101851,-0.000745219178
95277.789750,0.00518821629,0.0107546468,0.0602384879,0.00177244027,0.000784750329,0.0011858386
95277.799774,0.00514313504,0.00906261347,0.0506634348,-0.00154958677,0.000242797076,0.000183691271
95277.809798,0.0139285721,0.00611932541,0.0406394689,-0.000513617182,1.2433622e-05,0.000313387252
95277.819823,0.00740209295,0.0052815206,0.0556067364,-0.00128486857,6.72946917e-05,-0.000243745744
95277.829847,0.00817245627,-0.00720653955,0.0632376697,-0.000903237611,-0.00096760958,0.000475041568
95277.839870,0.0138748692,-0.000133147693,0.052163318,0.00086909614,-0.000531916507,0.000497944653
95277.849895,0.00773340726,-0.00821541064,0.0569523058,0.000168152095,0.000679821766,0.00134323165
95277.859919,0.0154761303,-0.000854912354,0.0425882649,9.65130748e-05,0.000141064287,0.000279032625
95277.869943,0.00952493032,-0.00294871543,0.0633919835,0.00182011083,0.00139168475,-0.00077451393
95277.879967,0.00643083677,0.000185586842,0.0500771593,0.000164689991,0.00122603611,0.000415919349
95277.889992,0.016520744,-0.000276571327,0.0476858803,-0.00162282365,0.000241731759,0.000969589688
95277.900016,0.0133217288,0.0195544492,0.0553197362,0.000613965269,0.000824165123,0.000854541548
95277.910039,0.0119760498,-0.0021237975,0.049039633,-0.000157019851,0.000137602212,0.00123856962
95277.920064,0.00772737938,0.00233580998,0.0533814616,0.00107469212,-0.000567336567,-0.000591288321
95277.930088,0.0357979472,0.00450124438,0.045447746,0.000538597815,-0.000607550261,0.000125368126
95277.940112,0.0255231848,0.0223016016,0.0381137498,-0.000137578783,-0.00053564494,0.000473976135
95277.950137,0.00791322081,-0.00827349864,0.0548714079,0.00092369091,-0.000678390381,0.000991694629
95277.960161,0.0101734208,-0.00168677034,0.0677396573,-0.000271269499,6.51641749e-05,-0.000537492335
95277.970185,0.00819043032,0.00209171272,0.0530763411,-0.000701103709,0.00198210753,0.000559463166
95277.980209,0.0145067373,0.00409672099,0.059065937,0.000245650095,-0.000323124696,0.000661462545
95277.990233,0.0209012241,0.00362949163,0.0518850855,-0.000577266677,0.00111631386,-0.000371045433
95278.000257,0.0234613569,0.0121865233,0.0547322917,-0.000403362239,5.63757494e-05,-0.000367582776
95278.010281,0.0059642787,0.00570222224,0.0511409892,0.000112758367,-0.000335907796,-0.000572379678
95278.020306,0.00592420242,-1.76441129e-05,0.0578758504,4.48477513e-05,0.000825762982,-0.0016163392
95278.030330,0.0156742102,0.00812084824,0.0565285274,0.000799853937,0.000148787512,0.000240948983
95278.040354,0.0135710274,0.0087589669,0.0427618679,-4.94281703e-05,-0.000540438574,-0.000926047564
95278.050378,0.00234122936,0.00860588382,0.041415714,-0.000828935415,0.000839611457,0.00132538844
95278.060401,0.0103747886,0.00834742239,0.0448591324,0.000826751813,0.000608981703,0.000604204834
95278.070427,0.00866071471,0.011319102,0.0586281301,-0.000501366565,0.00010830746,-0.000670118257
95278.080451,0.00533310466,0.0030602381,0.0424684379,-0.00065849314,0.000595399586,0.000116845593
95278.090475,0.0144199724,0.00045756305,0.0498018495,-0.000314412668,0.001218313,0.00104655512
95278.100499,0.0170949637,0.00230195452,0.0480067828,-0.000210283062,-0.000430450076,0.00119649153
95278.110523,0.00625036563,0.00291294543,0.0448667312,0.00139160827,2.89452728e-05,0.000306196511
95278.120547,0.00662022186,0.00874135704,0.0441162051,0.000564963091,-0.00130849436,0.000547745265
95278.130571,0.00276562879,0.00377617695,0.0541407555,0.00012287838,-0.000167063437,0.000425506383
95278.140596,0.00722816116,0.00767747583,0.0653647448,-5.18249872e-05,-0.000138567644,0.0010694582
95278.150620,0.0103735465,0.00140976405,0.0495025743,-0.000608425704,-0.000563608133,0.00137305912
95278.160643,0.017658589,-0.00206212244,0.0444166494,0.000108763605,0.000454784662,3.6418438e-05
95278.170668,0.00805204476,-0.00173862154,0.0511515106,0.000899988809,-0.000477055437,0.00062231347
95278.180692,0.00745718414,0.0106977427,0.0527975242,0.00073247595,-0.000192097155,-0.00115614478
95278.190716,0.0197789421,0.00517737181,0.0511544332,0.000577746308,0.000685414416,0.00104762055
95278.200741,0.00881309226,0.00634456042,0.0496598107,0.000975888805,0.000783152413,8.88826326e-05
95278.210765,0.0179256059,0.00819940022,0.0445727167,-0.0011724832,-0.00177694426,0.000176766887
95278.220789,0.00984532138,-0.0119098242,0.0490618448,-0.000129855616,0.00103215803,-0.000179030932
95278.230813,0.0171537447,-0.00353628437,0.0495113421,-0.000236914697,0.00109128014,-0.000626974739
95278.240837,0.0137741853,-0.0047277078,0.0514595536,0.000232866907,-0.000122055993,0.00171474274
95278.250861,0.0156305172,-0.00581325971,0.0513081624,-4.41018201e-05,0.00101937482,0.00155814877
95278.260885,0.00899575535,0.00726055075,0.0553501313,-0.00129978231,-4.53569228e-05,-5.14658168e-05
95278.270910,0.00511566251,-0.00119928365,0.0556494065,-0.000629198388,6.33000163e-05,0.000279565342
95278.280934,0.0206165985,-0.00104612636,0.0501145687,0.000837937114,0.000180745381,0.000184490345
95278.290958,0.0228619297,0.010300068,0.0433861373,0.000314093311,0.00122470455,-0.000435227528
95278.300982,0.00617883477,0.00399558043,0.0583522357,0.000162293145,0.000656385964,0.000388488173
95278.311005,0.00249181682,0.00306521795,0.0504243653,0.00128774496,0.000727758685,-9.16793942e-05
95278.321031,0.0128918129,0.00295797987,0.0496790999,-0.00124891591,0.000411907793,-0.00162645895
95278.331054,0.00652088967,0.00966644513,0.04609072,-0.000570076169,0.00100765692,-0.000275704078
95278.341079,0.00110953214,0.00512395884,0.0438467405,0.000226209027,0.00179142528,0.000875846483
95278.351103,0.0127520757,-0.00418036242,0.0534247162,-0.000456625508,-0.00094657077,0.00121380202
95278.361127,0.00734217946,-0.0143626253,0.0529763879,0.00121051329,0.00215468043,-0.000472245738
95278.371151,0.0128131217,0.0105439643,0.0526794508,0.00111810165,-0.000221924507,-3.41553241e-05
95278.381175,0.018209099,-0.00286281583,0.0459451741,0.000272281701,0.000974367373,-0.0011425633
95278.391200,0.0207423072,0.0196235986,0.0559714781,-0.000215076754,0.000170359039,0.00036105793
95278.401224,0.0164460714,0.000314976242,0.0520844075,-0.000138910342,0.000743205019,-0.000955075957
95278.411248,0.014452048,0.000785850865,0.044753334,0.00159667165,-0.000136437127,-0.000274638645
95278.421272,0.00228610164,0.011843361,0.0561275454,-0.000467278151,0.00115413079,0.00106067024
95278.431296,0.00435607632,-0.0011717392,0.0537345128,0.000215556385,-0.000535911298,-0.000925514847
95278.441320,0.00276445974,0.00491079444,0.0510439585,0.000505041971,0.000547462667,0.000594084151
95278.451345,0.0124059291,0.0150837872,0.0459592026,-0.000239577872,0.000368231907,0.000660130754
95278.461369,0.0114561176,0.00931289729,0.0513473254,3.76572134e-05,0.000272890786,-0.000727908686
95278.471393,0.00625416502,0.00269794983,0.0570323853,0.000202773197,-8.98317667e-05,0.000200735405
95278.481416,0.0153504216,-0.00134697475,0.0648147097,-0.00108566415,9.77050513e-06,0.000485161319
95278.491441,0.0127800231,0.00233730211,0.0338408948,0.000220779475,0.000258211629,-0.000395612791
95278.501465,0.00921597397,0.00541690934,0.0362345119,0.000610133633,-0.000159371994,-0.000989763997
95278.511490,0.0132434394,0.00378109857,0.0627203678,0.00013422675,0.000241700036,-0.000501340255
95278.521514,0.0133602342,0.00652296746,0.0473088637,0.000407467072,-0.000383343897,0.000185222365
95278.531538,0.00947133697,0.00214448181,0.0550900191,-0.00120774005,-0.000770833809,0.000273639336
95278.541562,0.0228175061,0.000296024946,0.0517974073,0.0012173343,-0.00069812953,0.000709598884
95278.551586,0.00820153623,0.00650674127,0.0459597871,-0.00046232139,0.0011122874,0.000388688408
95278.561610,0.0156759638,0.00493113512,0.041470659,0.000418386015,-0.000962847727,0.000568185002
95278.571635,0.00293733209,0.0029648149,0.0643657969,-0.000570445729,0.000290435913,0.000863263384
95278.581658,0.00469144575,0.00288888756,0.0495534277,-0.00157632167,0.0012329286,7.04405829e-05
95278.591683,0.0203267852,-0.000634274749,0.0426730206,-0.0012231865,-0.000621430459,-0.000358329155
95278.601707,0.0062298343,0.0116781309,0.0414765042,0.0011201289,0.00035195495,-0.000642754138
95278.611731,0.00915748525,-0.00230997114,0.0474643465,0.00052810827,0.000939181948,-0.00125501491
95278.621755,0.00882671893,-0.00201590982,0.066918404,-0.000447407656,-0.000211836305,-0.000220909715
95278.631778,0.00188826143,0.00931280253,0.0532978749,-0.00135128456,-0.000933020259,0.000614790246
95278.641804,0.0127486051,0.000770079049,0.0580886164,-0.000339016959,0.00165051222,-3.0759722e-05
95278.651828,0.0162828071,-0.00335801204,0.0583902296,0.0003070659,-0.00022648368,-0.000355132855
95278.661852,-0.00309657778,-0.00360103158,0.0488105004,0.000194147869,-0.00158176629,-0.000637427904
95278.671876,0.00378240462,0.00729134546,0.0522521653,-0.000101729354,0.00059749838,-0.000602806918
95278.681900,0.00688822514,-0.00514229822,0.0536006573,-0.00082051655,0.000818008091,-0.000200136565
95278.691924,0.00502842262,-0.00129092116,0.0583908142,0.000307864859,-0.000100516132,0.000383094884
95278.701949,-0.00198233292,0.000214588032,0.04088263,0.000113187765,-0.000967907603,0.000233425759
95278.711973,0.00913929201,-0.00460381542,0.0450707293,-0.000753404864,0.000591106829,0.000278166495
95278.721997,0.00973502941,0.00332511442,0.0549473957,-4.68682265e-05,-2.16865446e-05,0.000708267093
95278.732020,0.00827865659,0.0123724036,0.0491097756,0.000500411377,-0.00127816608,-0.000158857554
95278.742045,0.0104233039,-0.000172785584,0.0414765042,0.000276972161,-0.00159641367,-0.000461659394
95278.752068,0.00247760563,0.0101962103,0.0429734648,0.000853546546,0.000770870131,0.000924781896
95278.762093,0.0229334971,0.00578047853,0.0507557892,3.99816781e-06,-0.000314900652,0.000558864325
95278.772117,0.0196703672,-0.00157969438,0.0485106407,-5.43250353e-05,0.000371928618,0.00184197491
95278.782141,0.0111628703,-0.0156587717,0.0525496869,-0.000621578365,-0.000564971473,-0.00020546373
95278.792165,0.0120608785,0.00557778415,0.0471627332,-0.000628502632,0.00129018654,4.00803983e-05
95278.802189,0.0154758746,-0.00180264952,0.0431236869,0.000561664114,0.000533848826,-0.000767656602
95278.812213,0.024312019,-0.000567537647,0.045368251,-0.000407992862,0.000128515705,-0.000366850756
95278.822238,0.006078297,0.00552621836,0.0591337415,-0.000347272784,-0.000117294025,0.000747416168
95278.832262,0.016694895,0.00083182374,0.0537473723,0.000380835438,-0.00034099957,0.000479501672
95278.842286,0.0170898126,0.00269745207,0.0515045618,0.000468187151,0.00114584318,-0.00126087386
95278.852310,0.0081110084,-0.00263458515,0.0577893411,-0.000199733651,0.000562610978,-6.35171309e-05
95278.862334,0.0047402168,-0.00519396105,0.05240531,-0.000431162363,0.000505619333,-0.00112718344
95278.872358,0.0158334193,-0.00473657838,0.0500105238,0.00139683136,-0.000193993095,-0.00107684918
95278.882383,0.00609871873,0.00500369917,0.0492623358,-0.000258056913,0.000777794397,-0.000356198289
95278.892407,0.0146993373,0.0173940939,0.0534551113,0.00061199785,0.000479520357,0.00043103192
95278.902431,0.00863342484,0.00332542951,0.0435813676,0.00147379679,0.000625994173,-6.11199066e-05
95278.912455,-0.00139722651,3.07113737e-05,0.0510638323,-0.000268176896,0.00089017977,-0.000807071105
95278.922479,0.0103587873,-0.0014989082,0.0640840574,0.00154836522,-6.50960719e-05,0.00125820981
95278.932503,0.00988360757,0.00631275878,0.0580944616,0.000363791245,-0.00106884155,-0.00100947171
95278.942527,0.0078097239,0.00609278447,0.0591413403,-0.000330494891,-0.000276551116,-0.000127965584
95278.952552,0.000565013472,0.00293103364,0.050763388,0.000240753172,-0.000795068569,-0.000527439639
95278.962576,0.0200698513,0.0148904839,0.065276482,7.24414131e-05,-5.15140127e-05,-0.000111719593
95278.972600,0.0098632589,0.00598210662,0.0519599043,-0.000186151534,0.000126651488,0.000170042738
95278.982624,0.0189850883,-0.0013346724,0.0340039764,0.00021225735,-3.68666369e-05,-0.00169550162
95278.992648,0.0140337495,0.0139006578,0.0459755692,0.000163521501,-0.000684547354,-0.00115541276
95279.002672,0.0133211808,0.000953383743,0.058693012,0.00119762693,-0.00122117426,0.000356463715
95279.012697,0.0212374704,0.0111603952,0.0628834494,-0.000826109143,0.00236290786,0.000894954428
95279.022721,0.0137488682,0.00063481018,0.0525590393,0.000310528005,0.00018497475,-3.59583646e-06
95279.032745,0.0120862687,0.00406694804,0.0579465775,-0.000641818449,-0.00103608461,-0.000459794886
95279.042769,0.00973075509,0.00805038252,0.0673725775,0.000305201684,0.0010781989,-0.000433163717
95279.052793,0.00660553574,0.00105785447,0.0443272175,0.00010439934,-0.000915443408,0.000163118355
95279.062817,0.0185447241,-0.000143585747,0.0474707762,-0.000685760577,-0.00119161315,0.000390285626
95279.072842,0.014294154,0.00759167555,0.0506102433,0.000751547457,-0.000331145944,-0.000242747366
95279.082866,0.018632439,0.00394548736,0.0513584313,0.00127885339,0.000317600148,0.00109735504
95279.092890,0.0162159159,0.00853539755,0.0533048892,0.000875118189,0.000319996965,-0.00106459949
95279.102914,0.0138732983,0.00993963262,0.0527092614,6.41856168e-05,0.0021772855,-0.000504536554
95279.112938,0.00738762603,-0.00209009844,0.0497182629,0.000885238172,-0.000863778056,0.000662460923
95279.122962,0.00753466982,0.000956478741,0.0521124646,0.000434098678,-0.000191862579,0.000824380666
95279.132987,0.0190012357,0.00878569508,0.0477747276,0.000870324438,8.77693528e-05,0.000996953808
95279.143011,0.0183568003,0.0114070805,0.0564548777,0.0010263857,-0.00135992502,-0.0013013538
95279.153035,0.00760817345,0.00408611511,0.051965165,-0.00130840763,-0.000678688404,0.000455799513
95279.163059,0.00410743532,-0.0031530378,0.0536129322,0.000448479754,0.00113918539,-0.000327169895
95279.173083,0.00150868753,-0.0018411766,0.0584030891,0.000430636574,0.00101108733,-2.53040344e-06
95279.183107,0.0222669595,0.00116712582,0.0491273113,-0.00119948434,0.00100815785,0.000337022357
95279.193131,0.00742591222,0.00104584666,0.0400005865,-5.08629601e-05,-0.00123848498,-0.00127418991
95279.203156,0.0229592892,0.0095020198,0.0525707297,0.000313990109,-0.000130609842,-0.000400406308
95279.213180,0.0147066803,-0.00109812027,0.0588560936,0.00110281841,-0.000423823949,-0.000652342103
95279.223204,0.0106623734,0.00655796913,0.059454644,-0.000164846249,-0.000488538761,0.00016391743
95279.233228,0.0219467511,0.00808019542,0.0551133999,0.0003848302,-2.86108116e-05,0.00139855873
95279.243252,0.0159187961,0.00166298989,0.0527203673,-0.000932102965,0.00191602949,0.000578038394
95279.253276,0.0106617523,0.00776126681,0.043593058,-7.16355862e-05,-0.000363370171,0.000761264004
95279.263301,0.017806473,0.0021883963,0.0522737926,-0.000793085957,-1.44960359e-05,0.000907737762
95279.273325,0.0183795236,-0.0096653286,0.0531722027,-0.000305194815,0.00025634747,-0.00228006579
95279.283349,0.011034312,-0.00435487987,0.0377601141,0.00175848859,0.000585247821,-0.000582832843
95279.293373,0.0170905798,-0.00160658125,0.0428501307,0.000867394963,-0.000327151152,-0.00100547727
95279.303397,0.0173519707,0.0101294036,0.058558572,-0.00059441413,-0.000144458259,-0.000909603201
95279.313421,0.00654397828,0.00335517962,0.0587093786,-0.000600006722,-0.00101504556,0.00023022946
95279.323446,0.0224019841,-0.00393262103,0.0549684385,1.81129435e-05,-0.00110852264,0.000839827582
95279.333470,0.0114001861,0.00653644914,0.0353635743,-0.000560325629,-0.00199349085,0.000184689648
95279.343494,0.00512150773,0.0045448826,0.0552653756,0.000350741728,-0.000999599346,-7.94958323e-05
95279.353518,0.0145290222,0.00979553313,0.0628974779,0.000862334971,-0.000330613228,0.000360724516
95279.363542,0.0245658841,-0.00149385985,0.0429950921,0.000509466161,-0.000122087775,-6.96424395e-05
95279.373566,0.0170979229,0.00082858832,0.0590057312,0.000104931969,-2.40834197e-05,-3.79504636e-05
95279.383591,0.011709654,-0.00249733096,0.0506260254,-0.000418911804,-0.00046563556,0.000338354148
95279.393615,0.00175758426,0.00213433716,0.063941434,8.89530056e-05,0.000836117601,0.000873116776
95279.403639,0.00904624343,0.00538683272,0.0519721793,0.000479372422,-0.000144458259,-0.00140495133
95279.413663,0.00946370165,-0.00670353107,0.0637941345,-0.000625306799,0.00105769257,-0.00153464731
95279.423687,0.00393222488,-0.008888773,0.0498778374,0.00071373058,-0.000584945199,0.000540754758
95279.433711,0.0173780915,0.0122278748,0.0642436319,-0.000195206259,-0.000206509954,0.000988165848
95279.443735,0.0123678256,-0.00148061792,0.0429974302,0.00141147873,6.566511e-05,-0.000161521137
95279.453760,0.0124553578,0.000632341945,0.0525765749,0.000458441122,0.0011373345,-0.000447977334
95279.463784,0.0145869264,0.00973841439,0.0536275453,-0.000894977362,-0.0013679011,0.000494781882
95279.473808,0.0101131055,0.00387714169,0.0458458054,0.000217957684,-0.000829676283,0.000427137129
95279.483832,0.00297824863,0.0165501254,0.0566185438,-0.000122394296,0.000993523747,-0.000301769935
95279.493856,0.00264598446,0.0182860584,0.053178048,0.000888275332,0.00029817241,-0.00101230107
95279.503880,-0.00275908945,0.00726773968,0.0477916787,-0.000362877734,0.000368213572,0.00015549548
