t,ax,ay,az,gx,gy,gz
90763.178933,0.00367651172,0.0155542818,0.009626038,0.0025770639,-0.00427340921,8.35965853e-06
90763.188961,-0.0231022079,0.00831450331,-0.00162776195,0.00780538171,-0.00275487471,0.000793991718
90763.198990,0.000150040924,0.00220139072,0.0268992444,0.0108307328,0.00101110135,-0.000272338171
90763.209018,-0.00668288754,0.00399042956,0.0370301778,0.00414486676,0.00491822493,0.00090797489
90763.219047,0.0119340456,-0.030581008,0.029238501,-0.00248667081,0.00632943427,-0.00240073622
90763.229075,-0.0117306473,-0.0252169237,0.0373616017,-0.012554751,0.00754330289,-0.000158354533
90763.239104,-0.0127749391,-0.0167715322,-0.00938495194,-0.0190259658,0.00674382206,-0.000570611921
90763.249132,-0.0134595101,-0.0187540113,-0.0092715547,-0.0211264018,0.0077286589,2.9930952e-05
90763.259161,-0.0106540037,-0.00330754543,0.00386382121,-0.0200121339,0.00321566621,3.69842164e-07
90763.269189,-0.00779129859,0.0231725748,-0.0416885542,-0.00963006746,-0.00251785312,8.23951466e-05
90763.279218,-0.012857674,0.0272256861,-0.05737303,0.00329824797,-0.011667676,0.00130372086
90763.289246,0.0143035535,0.0568541874,-0.0557901448,0.021669532,-0.0203304074,0.00121317349
90763.299275,-0.0244855018,0.0597769795,-0.0586467032,0.037876996,-0.0200973812,0.00202916573
90763.309303,-0.00485877053,0.0530572428,0.0425930726,0.0254051488,-0.00752086723,0.00948654964
90763.319332,-0.0202480971,0.0317373914,0.0739152626,0.0344913181,0.00538720778,-0.0151479569
90763.329360,-0.0379849846,-0.0825034299,0.0978572792,0.0107867902,0.0124373942,0.00834218889
90763.339389,-0.0392780931,-0.0829333092,0.0978783219,-0.0183207609,0.0121961118,-0.00713849895
90763.349417,0.00130822082,-0.0859956194,0.0183248928,-0.0496448625,0.0119151485,0.00167629692
90763.359446,0.0389119159,-0.0464588876,0.0683319095,-0.062606198,0.0158326582,-0.00483300154
90763.369475,-0.0129345752,-0.0160956057,0.0647990592,-0.0635404337,0.0243582347,-0.000390848969
90763.379504,0.0394259116,0.0361644871,0.00674025343,-0.0440969665,0.0168593054,-0.000254228604
90763.389532,-0.076717154,0.080073808,-0.0900396204,-0.0238833047,0.0187410948,-0.00315467723
90763.399561,0.00868617484,0.0629834474,-0.0922204715,7.39585809e-05,0.00606737919,0.00447661068
90763.409589,-0.0399247022,0.095761791,-0.104407753,0.0250167705,-0.0141498956,-0.0020891995
90763.419618,-0.0214352428,0.0681768879,-0.111932303,0.0471268658,-0.0284659832,0.0029012981
90763.429646,0.0396048666,0.0636642693,-0.0580691956,0.0631801363,-0.0316319491,0.00329997355
90763.439675,-0.0261812066,0.0419103738,-0.0504978836,0.0652709853,-0.0266771379,0.00152790604
90763.449703,0.0355977636,-0.0114128182,0.0769343181,0.0573869597,-0.0177736587,0.00120752781
90763.459732,-0.0328054904,-0.0608362629,0.144751132,0.0343319725,-0.00731169684,0.00240754812
90763.469760,0.0128597525,-0.104262732,0.114710214,0.00342599097,0.00314121046,5.43791009e-05
90763.479789,-0.0204880273,-0.100069372,0.134540119,-0.0323714215,0.0124446976,0.000240800078
90763.489817,0.0171035275,-0.0747919057,0.109214539,-0.056995542,0.0178027109,-0.00307723217
90763.499846,0.0165436332,-0.0444886469,0.0952070569,-0.0648705039,0.0205894423,0.000641605924
90763.509874,-0.0145519107,-0.00444290613,-0.0416488067,-0.0618392985,0.0169473042,-0.0029227686
90763.519903,0.050251394,0.0624152556,-0.0648531567,-0.0409966011,0.0148231669,-0.00187161927
90763.529931,-0.0357035865,0.076503804,-0.0418113038,-0.0152717961,0.0133709454,0.000781688015
90763.539960,-0.0183267188,0.0892308549,-0.0860993583,0.0110359739,0.00204345542,-0.00199412451
90763.549988,-0.00924504334,0.0743316111,-0.0902693375,0.0330853488,-0.0101088143,0.000655987407
90763.560017,-0.0469540985,0.0394604965,-0.119508291,0.0442676943,-0.0170538059,0.00242033146
90763.570045,0.0406959178,0.0281737441,-0.0135145991,0.0464259226,-0.0208405542,0.00147304508
90763.580074,-0.0197712505,-0.0062614268,0.0555226968,0.0404934648,-0.019325216,0.00037635501
90763.590102,0.0139891492,-0.0255020973,0.064300462,0.0275198769,-0.01161643,-0.00106068597
90763.600131,-0.0168521277,-0.0364749249,0.0670342709,0.00953421723,-0.00566825988,0.00203923286
90763.610159,-0.0116403364,-0.0421888821,0.0806448631,-0.00933534392,0.00259659398,-0.0020817424
90763.620188,-0.00698253492,-0.0324123516,0.0945038771,-0.0227155976,0.00526108621,-0.00218986709
90763.630216,-0.00482219225,-0.0361428069,0.0532097437,-0.0313964386,0.0100148295,0.000617637406
90763.640245,-0.000714222639,0.00893548475,0.00685832685,-0.0335469406,0.0154516728,-0.00225191832
90763.650273,-0.0100824554,0.0284215083,0.0332196796,-0.0293157093,0.0192512044,-0.000938180727
90763.660302,-0.00966619821,0.0254989719,-0.00284707461,-0.0230634056,0.0142210259,-0.000781853576
90763.670330,-0.0224202215,0.0364362167,-0.0452371866,-0.0160550319,0.00745473271,-0.00089796715
90763.680359,-0.0106275563,0.0191800346,-0.0641967386,-0.00214427635,-0.000493471811,-0.000720866849
90763.690388,-0.0265837025,0.0467446987,-0.0329318317,0.00745162535,-0.00325250667,-0.000544032906
90763.700416,0.00622757987,0.0344661588,-0.0190909379,0.0176299613,-0.00445918524,0.000222690511
90763.710445,-0.0140865468,0.0139109351,-0.0220410199,0.0203815389,-0.00886138966,0.00165413983
90763.720473,0.0190489237,0.0065442057,-0.013486542,0.0235443104,-0.0107668812,-2.04554619e-05
90763.730502,-0.011084858,0.00504651449,0.0229069599,0.0195192087,-0.00826297765,0.00148875789
90763.740530,-9.06930464e-05,-0.00845853498,0.0237223679,0.0100769697,-0.0093647276,0.000133741754
90763.750559,0.00298533513,-0.0183087517,0.0396915059,0.00522495648,-0.00613404689,0.00127650389
90763.760587,-0.01028628,-0.024964118,0.0489561779,-0.0009663604,3.8894059e-05,-0.000234840331
90763.770616,0.0111688151,-0.0190197861,0.0434394603,-0.00766740619,0.00130123243,0.00132364185
90763.780644,-0.0114518372,0.000450564999,0.011775325,-0.0115497626,0.00314733554,-0.00166122884
90763.790673,0.00614761225,-0.00608672782,0.033538244,-0.0118331231,0.00517906091,0.00154308613
90763.800701,-0.017259286,0.0165340136,0.00846517752,-0.0115319194,0.00762624042,-0.000654820246
90763.810730,0.0116678301,0.0146260245,0.02423324,-0.00779310773,0.00475748284,-0.00122260664
90763.820758,0.000341211548,0.00761457488,0.0102076373,-0.00686126734,0.00573486304,-0.000613541235
90763.830787,0.00469548178,0.0190941099,-0.00157866211,-0.00526630013,0.00553086521,-0.00249826059
90763.840815,0.00270213884,-0.00680291326,0.0104163116,-0.00548388083,0.00532047479,-0.00012858015
90763.850844,-0.0086868706,0.0131323519,-0.00886472746,-0.00405349648,0.00367224477,0.000388339269
90763.860872,0.015784869,0.0173734966,-0.00614903876,-0.00396001963,0.00146741367,0.000430417354
90763.870901,-0.0196467428,0.0086995571,0.0176515235,0.000577740415,-0.00233531389,0.000219495143
90763.880929,-0.0157742031,0.0115343787,-0.0360748059,0.00330588249,-0.00451857382,-0.00104204461
90763.890958,0.00974515041,-0.0118481774,0.0777824594,0.00309735704,0.0119871668,0.00262965599
90763.900986,0.00782509646,-0.00954340761,0.03931975,-0.00117701637,0.0022597041,-0.00122393843
90763.911015,0.000946146038,-0.00470659857,-0.0895258256,0.00420256871,-0.0176391683,0.00305469624
90763.921043,-0.0119920519,0.0605728061,-0.0244732155,0.0104572687,-0.0112595667,-0.00186842297
90763.931072,0.0167495812,-0.013894552,0.10219034,0.0159473762,0.00468131649,-0.00044895791
90763.941100,-0.0309670732,0.045078446,-0.0171754597,0.0186872359,-0.00804193569,0.00133216392
90763.951129,0.0164277243,0.0046506105,-0.0557235093,0.0136639809,-0.010404159,-1.69937359e-05
90763.961157,0.00463125744,-0.0397737838,0.0732144208,0.00384810222,-0.00547358272,0.000308444831
90763.971186,0.00174473537,-0.0229691813,0.0964053268,-0.00393951331,0.00284879543,0.00339478218
90763.981214,-0.00991492598,-0.0156375963,0.0711656716,-0.0146877656,0.015026632,-0.00215710968
90763.991243,-0.0207103329,-0.0480858312,0.106301282,-0.0296896167,0.0324631457,-0.000363470879
90764.001271,0.0072477441,-0.0603256465,0.0804665839,-0.0442989219,0.0284236644,-0.00149398286
90764.011300,-0.00919616726,0.000927206067,-0.0280557501,-0.0493980769,0.00919564097,-0.000625259136
90764.021328,-0.0163403902,0.00705138804,-0.109957788,-0.0371621821,-0.0112587676,0.00142697256
90764.031357,-0.00123933564,0.107027501,-0.125537635,-0.0058391464,-0.0129794355,-0.00129104954
90764.041385,0.00346963207,0.110299727,-0.0428429849,0.0281771447,-0.00257872692,-0.000455083218
90764.051414,-0.017815728,0.0898691162,0.0143840462,0.0537839707,0.00136727891,-0.000711546172
90764.061442,0.00450525872,0.0257787022,-0.0347198842,0.0585188035,-0.0134641311,0.00199156265
90764.071471,-0.0568955509,-0.00697165742,-0.102062067,0.0503524866,-0.0339989687,0.00246081139
90764.081499,-0.00136964064,-0.0161495644,-0.00443755867,0.0364001866,-0.0301299269,-0.000176783544
90764.091528,0.0089500956,-0.0642391301,0.176915034,0.01833064,-0.00404532971,0.000139600704
90764.101556,0.0122922593,-0.084821461,0.192892355,-0.0073755241,0.0209361867,-0.00049183507
90764.111585,0.0137767668,-0.0999239358,0.109360085,-0.035444976,0.0233575323,-0.00233767171
90764.121613,-0.0241747599,-0.0741122894,0.00593069061,-0.0587369811,0.011925381,0.000211505326
90764.131642,0.00184133675,-0.0339547222,0.0257319541,-0.0619157303,0.0121578754,-0.000880656657
90764.141670,-0.0314834207,0.0308012796,0.0182652715,-0.0512329947,0.0186091171,-5.53428056e-05
90764.151699,0.00521981847,0.0703242021,-0.0555919918,-0.0258919496,0.0160279808,0.000928694955
90764.161727,-0.0121567569,0.0809561438,-0.106097021,-0.000902977147,-0.00142477913,-0.00174005878
90764.171756,-0.00787910245,0.106229409,-0.142381802,0.0286964614,-0.0150143567,-2.52489792e-05
90764.181784,0.0043772393,0.084696609,-0.0619422377,0.0484496567,-0.0212128653,-0.000386107606
90764.191813,-0.0170849363,0.0470792278,-0.0335175227,0.0606213685,-0.0223255332,0.00151512317
90764.201841,0.0225036627,0.0202739308,0.025101255,0.058304685,-0.0187608923,0.000278351004
90764.211870,-0.0241742576,-0.0367803741,0.0608827625,0.0400127646,-0.0107658167,0.00109274556
90764.221898,0.00916521793,-0.0671136261,0.0981331735,0.014177705,-0.00390018751,0.000359843592
90764.231927,0.011082863,-0.0890761228,0.13420285,-0.0165578362,0.00322962743,0.00036756705
90764.241955,0.00480292878,-0.088249207,0.100553094,-0.0418405581,0.0139456552,-0.000813279194
90764.251984,0.00806864345,-0.0514993659,0.0888597337,-0.0549742032,0.0202464287,0.000232544835
90764.262012,-0.00521001567,-0.00930061183,0.0387539328,-0.0580938283,0.0215183527,-0.00245405257
90764.272041,-0.00307925072,0.024054801,-0.0257457196,-0.0468062881,0.0191574612,-0.00309480902
90764.282069,-0.0304518674,0.0449038931,-0.0689366266,-0.0277870551,0.0107216326,-5.028293e-05
90764.292098,-0.00596722725,0.0760361865,-0.0920480376,-0.00186091622,4.53931541e-06,1.68281747e-05
90764.302126,-0.0167663103,0.0746928456,-0.0942008317,0.0226867709,-0.0088025338,0.00109727319
90764.312155,0.00104434572,0.0726922829,-0.104106724,0.0415858913,-0.0162186387,0.000993409767
90764.322183,0.00358411159,0.0502640319,-0.0313518691,0.0522806149,-0.015987477,0.000564107778
90764.332212,-0.00401671652,0.000448263444,0.0392957846,0.0480749521,-0.0149917199,0.000612311172
90764.342240,-0.00718397578,-0.0246435808,0.0526795823,0.0328392711,-0.0115370682,0.000805123816
90764.352269,-0.0143995537,-0.0537398383,0.0699130412,0.0113214644,-0.00626001479,-0.000440969025
90764.362297,0.00881285626,-0.0673606962,0.0821844937,-0.0113918373,-0.00140374033,0.000354783717
90764.372326,-0.0128125448,-0.0627756334,0.0820021229,-0.0279971782,0.00528372387,-0.00130117022
90764.382354,0.0264692327,-0.0379804706,0.0615350889,-0.0368428689,0.0104294832,-0.00207535074
90764.392383,-0.00813833791,0.00389756365,0.029118674,-0.0361509819,0.0127253945,-0.000163467494
90764.402411,0.00382658771,0.0208684991,-0.0320597251,-0.0259774376,0.0098507789,-0.00324128278
90764.412440,-0.00880656059,0.0445003538,-0.0210268744,-0.0135583619,0.00554016354,-0.0017881234
90764.422468,-0.0135183504,0.0550825016,-0.0461396884,0.00312660825,0.000694276057,-0.000737505858
90764.432497,-0.00385524919,0.0456818552,-0.0351196972,0.0159958012,-0.00262482157,-6.45256462e-05
90764.442525,-0.0135295979,0.0217685532,-0.0153213563,0.0197812196,-0.00330712362,-0.000201944155
90764.452554,0.012319056,0.00711623343,0.0149358348,0.020395343,-0.00696763834,-0.000269056191
90764.462582,-0.0100262979,-0.000192518678,0.00720085668,0.0159744963,-0.00441925944,-0.00109516912
90764.472611,0.0156552763,-0.0204728344,0.0343717722,0.007294189,-0.00375213749,0.000746140364
90764.482639,-0.0111147942,-0.0300833241,0.0446821538,-0.00285138931,-0.00017338183,-0.00160516415
90764.492668,-0.00384000139,-0.0202625527,0.0578882569,-0.0100214176,0.00126312725,0.000295800264
90764.502696,-0.00826890092,-0.0101657408,0.0232366302,-0.0138273418,0.00244077696,-0.000793699068
90764.512725,-0.00617116145,0.0097145063,0.00520880608,-0.0142891334,0.000165372321,-0.00174018637
90764.522753,0.0100407906,0.00416158488,0.000181917825,-0.00918385405,0.000404790442,0.000523500252
90764.532782,-0.022790813,0.0130776991,-0.0095147158,-0.00110595355,-0.000689236165,-0.000736441356
90764.542810,0.0217186384,0.0240527552,-0.0195521257,0.00505553586,-0.00173932053,-0.000328711127
90764.552839,-0.00958518485,0.0182254373,0.000614464023,0.00780604854,-0.00164610981,0.000346666309
90764.562867,0.00166999877,0.00710717334,-0.00167861535,0.0108718796,-0.00201415871,0.00194962333
90764.572896,-0.00869412461,-0.000629704518,0.0322353447,0.00652293749,-0.0012825883,-0.00149411045
90764.582924,-0.018623455,-0.0182969517,0.0120091337,0.00211993353,-0.000143554362,0.00122258031
90764.592953,0.00888553105,-0.0184045768,0.0383430139,-0.00271476917,0.000885224717,0.000395402419
90764.602982,-0.020108579,-0.0127777499,0.0133815911,-0.00769994054,0.00252653081,0.000936290356
90764.613010,0.00617262568,-0.00851548933,0.0206109579,-0.00796385967,0.00156433082,-0.000195553419
90764.623039,-0.0283052382,-0.00599291205,-0.00178207572,-0.00909889881,0.0019251891,3.1348425e-05
90764.633067,0.00305221037,0.006498065,-0.00309023571,-0.0047467609,-0.000510804306,-0.000809944128
90764.643096,-0.0131667742,0.0200084117,-0.0237250275,-0.000197283007,-0.00181921543,0.00277360539
90764.653124,-0.00885045453,0.0219185196,-0.0108789899,0.00785478465,-0.00348289213,-0.000533241672
90764.663153,-0.00718068784,0.0125041735,-0.00105434597,0.0107986432,-0.00366159011,-0.00214525301
90764.673181,-0.0207734133,0.0129780016,0.00502000551,0.0105451101,-0.00334041281,0.0012199172
90764.683210,0.000450670122,-0.00437042542,0.0238147223,0.00917890835,-0.00161175518,0.000202856134
90764.693238,-0.0118699782,-0.00800034288,0.0472669096,0.00442276876,0.000832227806,0.000899272147
90764.703267,0.017041865,0.004240678,0.045314022,-0.00270598075,0.00299364939,0.000372765693
90764.713295,-0.00781272725,-0.017042312,0.0227543996,-0.00981555526,0.0034743499,0.000196198109
90764.723324,0.0177620325,-0.0100709386,0.0213205674,-0.0125199959,0.00524641695,-0.00118997775
90764.733352,-0.00882268061,-0.000808020227,0.00882699657,-0.0142095054,0.00528982682,-0.00174444717
90764.743381,-0.00475746786,0.000332820371,-0.019225378,-0.0124438295,0.00272280588,-0.000284768534
90764.753409,0.000875861847,0.0131916809,0.0097061175,-0.00591056254,0.00146872334,0.000171430516
90764.763438,-0.000908930077,0.0118442483,-0.0290330707,-6.97176004e-05,-0.00202800724,0.000527761984
90764.773466,-0.000310101101,0.0356281518,-0.0122976245,0.00710217543,-0.00441419957,7.4225585e-05
90764.783495,-0.0253939995,0.0235172966,-0.00681948537,0.0123320909,-0.0076486093,0.00107823696
90764.793523,-0.000254514439,0.0159465326,0.00267841082,0.0158993944,-0.00590397203,0.000394070628
90764.803552,-0.0101805592,0.00384780622,0.00169466048,0.0141979016,-0.00613699825,0.000307251806
90764.813580,0.00466740647,-0.0101129146,0.00970144132,0.0116050484,-0.00452951407,-0.000452814517
90764.823609,-0.00312333189,-0.0260598773,0.0531998068,0.00564063228,-0.00131987263,2.85274815e-06
90764.833637,0.00342422431,-0.0199272563,0.034486923,-0.00243833307,0.00093795527,-0.000714869131
90764.843666,0.00252740105,-0.0107763469,0.0197055335,-0.010231808,0.00440672254,-0.000257071932
90764.853694,-0.0107725018,-0.0106413954,0.0326427564,-0.0143660989,0.00334571935,-0.000603815434
90764.863723,0.00753553437,0.00541757629,0.0393086441,-0.0137232116,0.00561872712,-0.000859745671
90764.873751,-0.0038854845,0.00920315924,0.00242122118,-0.0126928344,0.0044069889,-0.000199015145
90764.883780,0.0187937228,0.0102822232,-0.00709830231,-0.00794015751,0.00257713096,-0.000251745698
90764.893808,-0.0171660045,0.0387046001,-0.0185946788,-0.00184737759,0.00217446108,-0.000855750297
90764.903837,-0.0031448633,0.0288152203,-0.0144130092,0.00510826641,-0.00105994818,0.000288609522
90764.913865,-0.00620880832,0.0213258144,-0.0105639326,0.0095240537,-0.0034272321,-0.000185965453
90764.923894,-0.00862219417,-2.63317978e-05,-0.00718481155,0.0117145039,-0.00204931241,-0.000210466688
90764.933922,0.00603158238,0.00725385181,0.0102579062,0.0102151444,-0.00322429924,0.000286213229
90764.943951,-0.0178964445,6.33923123e-05,0.00392285792,0.00706702172,-0.00235823909,-0.000944699985
90764.953979,0.000296580105,0.00216233735,0.0230513368,0.0028570963,-0.00296357549,0.000133614163
90764.964008,-0.0192089587,-0.0148696807,0.0448972579,-0.00202820609,6.41721327e-05,-0.00134097867
90764.974036,-0.00175442044,-0.00172780195,0.0304098828,-0.00713987761,0.000217303916,-0.000771062342
90764.984065,-0.0136006425,-0.0173835997,0.0169904293,-0.0101945234,0.00216993368,0.00044999748
90764.994093,0.00254359185,0.0125145853,-0.00151202661,-0.00743602095,0.00157098873,0.000362379584
90765.004122,0.00424898241,0.00872447235,0.0157337072,-0.0057433161,0.000849272057,-0.000270387982
90765.014150,-0.025557556,0.00266941009,0.00228678115,-0.00260664495,0.000659655014,-0.000577716981
90765.024179,0.00647487373,0.00324531028,-0.00384719156,0.00111245962,-0.000840503673,-0.000457608034
90765.034207,-0.019476067,0.0119226108,-0.0126927613,0.00303366389,-0.000725721426,3.90718831e-05
90765.044236,0.0024082796,0.00247180516,0.0115251496,0.00485846195,-0.00177340903,0.00070539407
90765.054264,-0.0202813692,0.016182789,0.0263082927,0.00547817936,-0.001598173,0.000289941314
90765.064293,0.00399973862,0.00549144524,0.00444015979,0.00204376694,-0.00184637955,1.4837007e-05
90765.074321,-0.00459736367,-0.00603105211,-0.00185280287,-0.0010833167,-0.000413332667,0.00155627412
90765.084350,-0.0256263446,0.0059193518,0.0200042241,-0.00269905636,-0.000380575724,-0.000168654961
90765.094378,-0.00276715941,-0.00531128646,0.0110347358,-0.00171555109,0.000234081808,-0.000613669758
90765.104407,-0.0232127373,0.00598971362,0.00132115099,-0.00393715985,0.00090732896,0.000162908914
90765.114435,0.00292724827,0.0102916121,0.0109172469,-0.00321677509,0.000316373529,-5.13706822e-06
90765.124464,-0.013687307,0.00478757129,0.0106325847,-0.00252781525,0.00191506911,-0.000571325314
90765.134492,0.00645896378,0.00504592997,-0.0186940476,0.00207758909,0.000498001105,0.00205162225
90765.144521,-0.0160214216,0.0110804974,0.00599264993,-7.07828588e-05,-0.000123048036,0.00077330518
90765.154549,-0.002240286,0.0120336334,0.00269770004,0.000455724119,-0.000368591465,-0.000113261756
90765.164578,-0.015130802,-0.00354164644,0.00358734235,0.000381954523,-0.00077712042,-0.000176378419
90765.174606,-0.0149994741,-0.0117010971,0.00581963145,0.000512982064,0.000706792916,-0.000778253083
90765.184635,-0.000815844966,-0.0201678967,0.0146441584,0.000182750096,0.0019379722,-0.000760676232
90765.194663,-0.0081883328,-0.0166240501,0.0107565033,-0.00177360811,-0.000376580932,-0.000905818199
90765.204692,0.00931351524,0.00374489384,0.00253403391,-0.00166974468,-0.000503347439,1.13743497e-05
90765.214720,-0.0147584114,0.00253307036,0.00164556064,-0.00114723256,-0.000900424735,0.000567709203
90765.224749,0.0109446259,0.000338446394,0.00210090319,-0.000195951449,-0.00102532697,0.000441208589
90765.234777,-0.00841935137,0.0158674029,0.0199095316,0.000359850281,-0.003131621,0.000214307676
90765.244806,-0.00973212361,0.00223993263,-0.0118206547,0.00303046829,-0.000796028829,0.000452393773
90765.254835,-0.00964412109,-0.00769054628,0.00163328568,0.0020312502,-0.00277502364,-0.000335102794
90765.264863,-0.012450534,-0.0113337616,0.00955063467,0.00177478771,-0.000865271033,0.000904066595
90765.274892,0.00257790511,-0.0055054208,0.0189614371,0.00202299426,-0.00126820728,-0.000108733666
90765.284920,-0.00939289541,0.00660342507,0.000996156817,0.00169036565,0.00157418456,0.000235346253
90765.294949,0.0171895915,-0.00918586287,0.0111674222,-0.00060687722,0.00169615732,-0.000187297245
90765.304977,-0.00636009902,-0.00916620833,0.0402035471,-0.00228679921,0.00175847526,-4.64160787e-05
90765.315006,0.00262957593,0.000351013615,0.000710910135,-0.00185563341,0.00128283473,-0.000634974693
90765.325034,-0.00617829445,-0.00809576608,0.024365342,-0.00329959924,0.0020072144,0.000540810744
90765.335063,-0.0119759113,-0.00304188023,0.00942087081,-0.00398536325,0.00132677686,0.000518706734
90765.345091,-0.0200785332,0.00901761008,-0.00119170862,-0.00219492028,0.000365109348,-0.00167360705
90765.355120,-0.0177210651,0.00544519495,0.00331378611,-0.0017043659,0.000820509906,0.000237477119
90765.365147,0.00303614059,0.00181264713,-0.00730873019,0.000660521138,3.35458227e-05,0.000379423718
90765.375176,-0.00631541506,0.0100310249,0.0115374246,0.00148956319,-3.0636389e-05,-5.54703968e-05
90765.385204,-0.00073766973,-0.0152879426,0.0124200526,0.00488509359,-0.000764603445,-0.000508207721
90765.395233,-0.0235298793,0.000866233128,0.0146394822,0.00458255857,-0.00138538629,-0.000833113571
90765.405261,-0.00723459857,0.00798720758,-0.00707959761,0.00296016065,-0.00172067848,-0.000481576552
90765.415290,-0.00561337916,-0.00736562518,0.0235756529,0.00351466825,-0.000931735218,0.000104867029
90765.425318,-0.0175921895,-0.000455553528,0.0172815212,0.000940723155,-0.000841986688,0.000422050352
90765.435347,0.019838405,-0.00233329357,0.0169787388,0.0015620386,-0.00267956797,0.0008239207
90765.445375,-0.0104734595,0.00586031509,-0.00456673801,-0.00207717084,-0.00111682487,-0.000264513199
90765.455404,0.00207736714,0.0117114157,0.0144536043,-0.00368465502,0.00142010236,-0.000337483254
90765.465432,-0.0160083612,-0.00472950452,0.0186680071,-0.00486416901,0.0012177021,-0.000576902074
90765.475461,0.0100309976,-0.000504178443,0.00716870797,-0.00292325737,0.00224967702,-0.000646943119
90765.485489,-0.00374490927,0.00714812641,0.0160131087,-0.00271366649,0.000972158674,-0.00074414805
90765.495518,-0.0140289805,0.00953703084,-0.0143551416,0.000547906893,0.000734604653,-0.000424834793
90765.505546,-0.000808150284,-0.00606323734,-0.000445274163,0.00145258282,0.00137030117,0.00120342161
90765.515575,-0.00770622325,0.00288550053,0.00597336071,0.00238335766,-0.00115837024,0.00119569815
90765.525603,0.000511569996,0.00182660259,0.00236627613,0.00311466148,-0.00208435133,-0.00113776315
90765.535632,-0.00746566509,-0.00634512302,0.0141759564,0.00160704616,-0.000261151299,3.6676554e-06
90765.545660,-0.000203571987,-0.00130515609,0.0126649673,0.00292957183,-0.00118606707,0.00170356325
90765.555689,-0.0203041541,-0.0135678774,0.015208222,-0.0012481289,0.00119879369,-0.00116066624
90765.565717,-0.00389784851,-0.000638180086,0.0242005068,-0.00209208457,0.000193184058,-0.00232526742
90765.575746,-0.0101022333,0.00293898428,0.0225720288,-0.0032692018,0.00263130786,0.000208464558
90765.585774,-0.00287039146,0.000791158598,0.0225831347,-0.00302978345,0.000607305547,-0.000234419373
90765.595803,-0.00159093697,0.00417375024,0.0134669313,-0.00134666586,0.000230201918,-0.000638420586
90765.605831,-0.0128387113,0.00501600975,-0.000296221081,-0.00013812336,0.00022887036,-0.00117611316
90765.615860,0.00579820288,0.0144188481,0.0125650141,0.00163261236,0.00106377136,8.06330843e-05
90765.625888,-0.017822692,0.0138207726,0.0106109574,0.00186137801,0.000197178733,0.00130568688
90765.635917,-0.00397464007,0.00846669819,-0.00376418945,0.00209040967,-0.00188541326,0.000352274734
90765.645945,-0.00164942798,0.0131486089,0.0066993369,0.00123260559,-0.000789522493,0.000710737067
90765.655974,-0.00662837402,0.0112626125,0.0167221337,0.00050156789,-0.00116156607,-0.000923911934
90765.666002,0.00302345235,-0.0124801917,0.0189643597,-0.000802049428,0.000595587646,-0.000519909789
90765.676031,-0.00254235823,0.00438476264,0.00849206553,-0.00103161387,0.00118228204,0.000314724739
90765.686059,0.00685765794,0.000671039349,-0.00557562279,-0.000184462362,-0.000873944557,0.000519255283
90765.696088,-0.0116237118,-0.00674566665,0.014472309,0.000865622001,-0.000383390297,-0.000577168432
90765.706116,0.00522883061,-0.0100812773,0.0138679134,0.000831267258,-2.97225287e-05,-0.000426965659
90765.716145,-0.00842761916,-0.0121102259,0.0110212917,0.000574804886,0.000902650112,-0.000707396199
90765.726173,-0.0104538894,0.00231869696,0.0146090871,0.00157828389,0.000582005529,0.00013575993
90765.736202,7.76150085e-05,-0.0115362619,0.0120611562,-0.000893395875,0.000148442972,0.000125373821
90765.746230,-0.0191025643,0.00128219352,0.0125129916,-0.00153175551,0.00108294613,-0.00105121069
90765.756259,-0.00524085833,0.00382807861,0.00713422118,-0.00138741227,0.00178522179,-0.000334021528
90765.766287,-0.00564252077,0.00140940009,0.00879017169,-0.00201059198,0.000599848738,0.000433235536
90765.776316,0.00613807952,0.00179934926,0.0129829472,-0.00142842492,0.000337793657,-0.000640551453
90765.786344,-0.0330988679,0.0116649097,0.000264335412,-0.000569555458,0.0018683123,-0.000858131689
90765.796373,-0.00580043301,0.00257318318,0.00549931346,0.000890655719,2.96659328e-05,7.02460436e-05
90765.806401,-0.0208102428,0.00534885843,-0.00108941728,0.00161982926,1.98121907e-05,0.00225723406
90765.816430,0.00888709054,0.0120552242,0.0038421939,0.00148214393,-0.00161616767,-0.000813124594
90765.826458,-0.00279728056,-0.00349309459,0.0125118226,-0.000235062457,-0.00113653235,0.000176772582
90765.836487,-0.0199721388,0.00862039092,-0.00275004397,0.000386253043,-0.0005849916,0.00132539413
90765.846515,0.00917331675,-0.00192358025,0.0324107013,-0.000464626923,-0.00105024578,-0.000731631075
90765.856544,-0.00597698602,0.00955237454,0.00817233206,-0.00119087096,0.00264196079,-0.000238147457
90765.866572,0.00244379843,0.00353015511,0.0176012547,0.000712490218,-0.000264347016,-5.38759399e-06
90765.876601,-0.00286324933,0.00336232426,0.0125153297,0.00021474545,-0.000347171395,-0.000575836641
90765.886630,0.0150873083,0.00032653676,0.0185031719,0.000954038973,0.000428607446,0.00121700355
90765.896658,-0.00872082539,0.000603161745,0.026875279,0.000926874738,-5.84846802e-05,0.000442289854
90765.906687,-0.0109145794,-0.00615456889,0.015795082,0.000627801797,-0.00045929041,0.000744825336
90765.916715,-0.00219604728,0.00816658274,0.000675838822,0.000512220591,0.00102994922,-0.000438683559
90765.926744,-0.0137870753,0.00664459733,0.00666251202,-0.00151764085,0.000959908057,-0.00076785021
90765.936772,0.00273847281,0.000679039993,0.0210353208,-0.00107422443,-0.00036368293,-0.000654932004
90765.946801,-0.0368442696,0.00239702289,0.0252380331,-0.00277491911,0.00165818893,-0.000595278
90765.956829,0.0121805198,0.00213862768,0.0153765643,-0.0032883768,-1.66730696e-05,-0.00111139834
90765.966858,-0.00659313374,0.00562917321,0.0125480629,-0.0031975626,0.00102808506,0.00101407069
90765.976886,0.000587516742,0.0211941874,0.00627088235,0.000392111993,0.00195513135,-0.000390480165
90765.986915,-0.0155591561,0.00093115159,0.0167408384,0.00109438754,-0.000991389921,-0.00088902459
90765.996943,-0.00456697538,0.0113131371,-0.0128909142,0.00153354292,-0.00141323481,0.000821790765
90766.006972,0.00490262401,-0.00493456211,0.0150802117,0.00307178478,-0.0020057881,0.00145056296
90766.017000,-0.00178537955,0.00247366832,0.00743583448,0.00184699676,-0.000162347986,-2.72401143e-06
90766.027029,0.00848333433,-0.0063325558,0.0033856823,0.000726072394,-0.000579931608,0.00109343288
90766.037057,-0.0197830072,-3.23596798e-05,0.0147575557,-0.000499514354,-0.000191110137,0.00141327839
90766.047086,0.00868483683,0.0140347441,0.00622821225,-0.000655575612,-0.000710426431,-0.000398203623
90766.057114,-0.0284573645,0.0149225233,0.0179092977,-0.00235600393,-0.000666750662,0.000160527523
90766.067143,-0.00481789738,0.0137057314,0.0185172005,-0.00180606121,0.00196871353,0.00048862874
90766.077171,-0.0140483885,-0.00765993195,0.00834827315,-0.000796190478,0.000221679851,0.000707807126
90766.087200,-0.0180990704,-0.00619438944,-0.00137641753,-0.000337860475,-0.000346106079,-0.000465582018
90766.097228,0.00313388817,0.00376126045,0.0128344786,0.000649107081,0.000456570639,0.000129634622
90766.107257,-0.00749178592,0.00233097192,-0.00183351365,-0.000892330616,-0.000555696848,0.000761603112
90766.117285,0.0066857126,0.00360716587,0.00803847654,0.0012834721,-0.000717617173,0.00031445838
90766.127314,-0.0209287705,0.00176055162,0.0180583508,0.0014978565,-0.00118340396,0.00115495186
90766.137342,0.0130854304,0.00616364542,0.00892694982,-5.34348804e-05,-0.000232655389,0.0013690699
90766.147371,-0.00530844596,0.00884093833,0.00982594448,-0.00155838714,0.000255501995,-0.00104029187
90766.157399,-0.00263964003,-0.00374337956,0.00428993767,-0.000832942096,-0.00174080354,0.000933643072
90766.167428,0.0049570051,0.000802154916,0.0382629344,-0.00121217624,0.00170612585,0.00119063828
90766.177456,-0.0101029594,-0.00451545991,0.00863936505,-0.000989802313,0.000831011092,0.000239623818
90766.187485,0.00352455886,0.00710918264,0.00834242793,0.00102834117,-1.75933557e-06,-0.000802737554
90766.197513,-0.0149525114,0.0173656786,0.0158289843,-0.00222417731,-0.000921348876,0.000307533997
90766.207542,0.00668575827,-0.000711135724,-0.00107305067,-0.000447582701,-0.00107794285,-8.60811071e-05
90766.217570,-0.0158260155,-0.00699836277,0.0123949182,0.000759894537,-0.00133467146,0.000606340463
90766.227599,-0.00178910131,-0.00457424089,0.0105975134,-0.000161026561,0.000483468573,-0.000689287563
