t,ax,ay,az,gx,gy,gz
90992.702712,0.000886808801,0.023294722,0.000945382324,0.000731432993,0.00211198129,0.00139427094
90992.712739,-0.00448758742,0.00580118741,-0.0113260702,0.000564452793,-0.000471018823,-0.000435320635
90992.722767,0.00782817292,0.00371232537,0.0180023156,0.000827306715,-0.00016848369,6.24237838e-05
90992.732795,-0.00155807901,0.00615222934,-0.0107304424,0.00151253818,1.90028362e-05,-0.000175395955
90992.742823,0.00664929844,0.0190975626,0.00318117855,0.00153890346,-0.000150107881,0.00115352127
90992.752850,0.00375654756,0.00760527769,0.00332847807,-0.000644622362,0.00085789863,2.03466299e-05
90992.762878,-0.00148097521,0.0136858397,0.00243415958,-0.0016752656,0.00270959469,-4.56999731e-05
90992.772906,-0.00159210629,0.0136433157,0.00243649766,0.000769249812,0.000138845192,0.00204807709
90992.782933,0.015039754,0.015369555,-0.00938954921,0.000660859231,-0.000469687264,-0.00112774221
90992.792961,-6.10219847e-05,0.0101275992,-0.00475078349,0.000416647302,0.000171069419,-0.000383122799
90992.802989,0.0113458782,0.00237636406,-0.000113771341,0.0023165464,0.000645644686,-0.000574070935
90992.813017,-0.0079216284,-0.00345979475,-0.00173172793,-0.0227856112,0.000203293646,-0.00658322775
90992.823044,0.0341065252,-0.0305350679,-0.0251225404,-0.000972191096,1.95355527e-05,-0.0176872778
90992.833072,-0.0320753424,0.0931893288,-0.00656572396,-0.00236502452,-0.000627080081,0.0116833933
90992.843100,-0.035513144,0.0617188529,-0.00970519103,0.0028427872,0.00116149896,-0.00680054163
90992.853127,-0.035496686,0.0616747581,-0.00970226842,0.00134795463,0.000422738157,0.00321853629
90992.863155,0.0314073196,-0.0246134227,0.00929820013,0.00159296557,0.000927673434,-0.0027413517
90992.873183,-0.0288748453,0.0388008456,-0.00117467857,-0.000339157813,0.000672009962,0.000583871293
90992.883210,0.0274278078,-0.00872377969,-0.00641550183,0.000294408246,0.000713288973,-0.00265426652
90992.893238,-0.00687261254,0.0108331537,0.016930887,0.00168298046,0.000532194055,0.00201212431
90992.903266,0.0147853482,0.00452397055,0.00196829563,-0.000528774856,-0.000248911078,-0.00105477215
90992.913294,-0.0113256567,0.011796665,0.00975295816,0.00116606087,0.000257355757,-0.000154623736
90992.923321,0.0183854083,0.00450749434,0.00795496882,0.000609460121,0.00103446621,-0.000470740695
90992.933349,-0.0227577392,0.0114937365,-0.00895115779,0.000304974566,-0.00191217415,0.000375323955
90992.943377,0.00528607124,0.0105846588,0.00451739559,0.000431741014,0.00017893991,-0.000758916114
90992.953404,-0.0171691666,0.00535475882,0.0115497784,0.00148954849,-0.00138513475,-0.000280079406
90992.963432,0.0175966816,0.00570393758,-0.00177147542,0.00101417438,-0.000225328011,0.000716208506
90992.973460,-0.00177829193,0.0203791268,0.0127427876,0.000771560307,-0.000898841405,-0.000265432496
90992.983487,-0.00106718223,0.000792528936,-0.0126967741,0.000891402663,-0.000803500284,0.000242698963
90992.993515,0.00613188355,0.00426528308,0.00346233358,0.000805648809,0.00104420086,0.00139398363
90993.003543,0.000152916452,-0.00788276229,-0.00372787018,0.000426681022,-0.00126768915,0.000114867489
90993.013571,0.0165010102,0.0124679153,0.00599857406,-0.000117136477,0.00068147837,-0.000554651928
90993.023598,0.00776927264,0.0166127235,-0.0128528414,0.000751852939,0.00171079011,-0.00115119943
90993.033626,-0.00255685568,0.00733654375,0.00495403344,0.000363830427,-0.000606692731,-0.0011328235
90993.043654,0.00198910806,0.0123758531,0.0101942722,-6.81343288e-05,-0.00176649923,-0.000665172909
90993.053681,-0.00825503878,0.0101692099,0.00719918202,3.12015848e-05,0.000320886392,0.00143845801
90993.063709,0.0052359873,0.00959707256,-0.00311821385,-0.00115150818,-1.01445336e-05,-3.21389851e-05
90993.073737,-0.00789230413,0.0140811592,-0.000723427672,0.00116304501,0.000313429525,0.000413940314
90993.083764,0.00708255646,-0.00262089624,-0.000128384388,-0.000207683965,-0.000717746429,0.00028451069
90993.093792,0.00841608093,0.0151715117,0.0137884973,0.00116544189,0.00115791791,4.66900202e-05
90993.103820,0.0161368673,0.00582858687,-0.009410592,-0.000169867088,0.000642329876,0.000615275491
90993.113847,0.00662438205,0.00337863644,0.00689406159,0.00110099343,-0.000771542415,-0.00139887349
90993.123875,0.0199208662,0.0103084357,0.00883642783,0.00150925597,-4.92930273e-05,-7.92769459e-05
90993.133903,-0.00953081488,0.01752666,-0.00104140758,0.000382206237,0.00065191726,0.000306081984
90993.143930,0.0127121998,0.00847957631,-0.00299195713,0.00157157379,0.000988008177,-0.000172222008
90993.153958,0.00948579937,0.00807906922,0.00613301409,-0.000100358585,0.00133848017,0.0007739994
90993.163986,-0.00614558376,0.0116602156,-0.0199033444,0.000427213622,0.00171771426,0.000699164371
90993.174014,0.016496745,0.0121889522,0.0125721072,-0.00142608023,0.000780814283,0.000155880142
90993.184041,-0.0215664151,-0.00148378197,0.0158676416,-9.47659343e-05,0.000786406875,0.000233111929
90993.194069,0.0182123407,0.0143092323,-0.00374014514,0.000371553594,-1.68024423e-05,-0.0015061991
90993.204097,0.00594251044,0.0116639785,-0.00463154103,-0.0023789592,-0.000271667014,-0.000743735556
90993.214124,-0.00373372543,0.0179446662,0.00285969151,0.000962509025,0.000229539946,0.000425391856
90993.224152,0.0146265381,0.00468080508,-0.0113588035,0.00124080946,-0.000288444906,-0.000472626623
90993.234180,-0.00364149312,0.00984859964,-0.0149553666,0.00142456755,-0.000900439322,-0.000782351915
90993.244207,0.00479567222,0.0146450767,-0.00403240609,0.000643994959,-0.00107274587,0.0011654841
90993.254235,-0.00491304401,0.00215355162,0.00868211406,0.0011944704,0.00139147708,0.000342833835
90993.264263,0.000847783973,0.00286359959,-0.00569011017,0.000102041647,0.000243122005,-0.000610577848
90993.274290,-0.00412314259,0.0201294629,-0.011080571,0.00133694942,0.00135872026,0.00121714969
90993.284318,0.0034931725,0.0135615923,-0.015271593,-0.000104086989,-0.000341974418,-0.000665439267
90993.294346,0.00589592964,0.0154839386,0.00238739783,0.000377678845,-0.00125037866,-0.000709114571
90993.304373,0.0128912285,0.00384826324,0.011363316,0.00202404499,-0.000780596966,0.00151062992
90993.314401,0.000966433354,0.012510695,-0.00330000016,-0.00118453148,0.000847126953,0.000503689076
90993.324429,-0.0019634575,0.0163421264,-0.0149682261,-0.00137228425,0.000904384956,0.000416336607
90993.334456,0.0169997546,0.0138842484,-0.00209530055,-0.000817015177,0.00128441806,-0.000510709335
90993.344484,-0.0138111066,0.0113128635,-0.00044753334,0.000287397657,0.000249247313,-0.000292330023
90993.354512,0.0103477962,0.00202543173,-0.00658209057,0.000752918256,0.000140057658,-0.000659846675
90993.364540,0.00995126831,0.0106874981,0.000900374138,0.000667697118,-0.00113533005,0.000551625181
90993.374567,0.0111203252,0.00829307729,-0.00523418309,-0.000675335052,-0.00112600914,-3.77315772e-05
90993.384595,0.0079053515,-0.00222469999,-0.00777568427,0.00120086195,-0.00061281804,-0.00143376083
90993.394623,0.00498386886,0.014873917,0.00359443553,0.000598721156,0.00011928509,0.00177215229
90993.404650,0.0035213597,0.00625426494,0.00822969411,6.50237282e-05,-0.000498568276,-0.000184206266
90993.414678,0.000159153826,0.01926722,-0.0109239192,-0.000901171114,-0.00045862094,-6.57324912e-06
90993.424706,0.0131114893,0.00304352273,0.00583958411,0.000472487366,-0.000878335079,7.57184136e-05
90993.434733,0.00475255117,0.0115350914,0.00180170689,0.000120683814,-2.18624342e-05,-0.000538938653
90993.444761,0.0148761872,0.0140942013,0.0166152451,0.0011089829,-5.0890944e-05,-0.000377551627
90993.454789,0.0113185912,0.00697183863,0.0118321025,-0.000630860267,-0.000245301737,-0.00173709539
90993.464816,0.0083923547,0.00604584635,-0.0140534494,0.000515630535,0.000772558458,0.000109274897
90993.474844,0.018386736,0.00432183557,-0.00192812729,0.00163176144,-0.000821875976,-0.0015629241
90993.484872,0.00676016466,-0.00182452169,-0.011213842,0.00129646948,4.20534192e-05,-6.43636775e-05
90993.494899,0.0252487536,0.00841845724,-0.00687844317,0.000498053684,-0.000672739102,-7.44834286e-05
90993.504927,0.00250454677,0.0108790021,0.00359209744,0.000216823895,0.00160772576,0.000391037229
90993.514955,-0.00359649978,0.0307149717,-0.00613025515,-0.000857495229,-0.00112574278,-0.000462772299
90993.524982,-0.00247084533,0.0103782495,-0.0159981537,-0.000765083582,0.00123807906,0.000115400206
90993.535010,0.0147301292,0.00870268101,-0.0109087216,-0.00059304339,-0.000839452827,-0.000940809932
90993.545038,0.00433393817,0.0192402224,0.0022558804,0.000647723392,0.00170120272,-0.000119225096
90993.555065,0.000629913143,0.00759928634,-0.0236337631,0.00127969148,0.001031684,-0.000376486194
90993.565093,0.00813553211,0.0164691868,0.00225120423,0.000546523204,-0.000430125031,0.0014805361
90993.575121,0.00437569723,0.0130466285,-0.00957133552,-0.000935792216,0.000738736314,0.000166532609
90993.585148,0.0130962284,0.0172906227,-0.00942520504,-0.000101690143,0.000104637714,-0.000750393581
90993.595176,0.00908751848,0.0138032555,-0.00298786547,-0.000304889333,-0.00123653036,-0.000155176942
90993.605204,0.0210275648,0.00882484608,0.00509490322,0.00112975558,0.00177843439,0.00058864339
90993.615231,0.00924906914,0.00339412627,-0.0125594114,-0.00037812627,0.000595990873,0.000107144031
90993.625259,0.00483006768,0.00506881802,0.0139246909,0.000269288206,-0.00136782402,-0.00035784391
90993.635287,0.0106872824,0.00592890544,-0.00597477233,-0.000356022027,0.000542195004,0.000534314688
90993.645314,0.00149962235,0.0163759921,-0.014203087,0.000442393656,0.00189641248,-5.90374437e-05
90993.655342,0.0121896983,0.00908853852,-0.00552702856,-0.000537915962,0.000380541096,3.01471679e-06
90993.665370,-0.00353245125,0.0114919464,0.00599448241,0.000585938056,-0.000390710295,-0.000119757813
90993.675397,0.00709901383,0.0131298498,-0.00822050543,-0.000146431258,-0.000505492426,-6.64945436e-05
90993.685425,0.00745062487,0.00290115512,-0.000436427424,0.000478079958,-0.00222030199,-3.13408417e-05
90993.695453,0.0196760383,0.00511905037,0.00539184034,0.0012778272,-0.000204555327,-0.00133415868
90993.705480,0.00745662763,0.00354778246,0.010176152,0.00131750829,-0.000900172964,-0.000457712424
90993.715508,0.00503241328,0.00331455823,-0.0142188691,0.000188594401,-0.000309750191,-0.00161592101
90993.725536,0.00764361356,0.0170455254,-0.00434044912,-0.000822075169,6.14944287e-05,0.00228614223
90993.735563,-0.0164313196,0.00377435776,-0.00523184501,-0.000776535124,0.000507307602,0.000245361615
90993.745591,0.00904116316,0.0147049171,-0.0130135849,0.000816567751,-0.000742780147,0.000573730122
90993.755619,0.00160093415,0.0111590612,0.000909141966,-0.00213101878,-0.00019603326,0.000884254489
90993.765646,0.0103400056,0.00443578081,0.00256392344,-0.000560819105,-0.000966485692,-0.000622562107
90993.775674,-0.00470876502,0.0110101908,-0.00461809702,0.000839737311,0.000107034473,0.00103179368
90993.785702,0.00458714118,0.00600317626,0.000464320808,0.000377678845,-0.000348366085,-0.00113042721
90993.795729,0.0149322037,0.0167485883,0.0106414314,4.6914219e-05,-0.000320935491,0.000435777965
90993.805757,-0.00164843388,0.0158156183,0.00675319182,-0.000947776475,0.000341392718,0.000934588283
90993.815784,0.00295094568,0.00382919322,-0.00147570734,0.000654114943,0.000323016909,0.000289304208
90993.825812,0.00416701835,0.00474539475,-0.0131486095,-0.000677465569,-0.000214409069,-0.000583147604
90993.835840,0.00880401452,0.00708764702,0.00211734871,0.000358237777,-0.000635987483,0.00109464398
90993.845867,-0.00472937741,0.00170065676,0.0015187983,-0.000736854031,0.000426613856,-0.000703788337
90993.855895,0.00806880586,0.00974667363,0.0143899703,0.00108128595,-0.000132916248,0.000972937818
90993.865923,-0.00255298094,0.0128588508,0.0106507838,-0.00110357137,0.000919298632,-0.000655053158
90993.875950,0.00916209069,-0.00249230142,-0.0183730661,0.00151831075,-7.69899786e-05,0.000643504809
90993.885978,0.00532083659,0.0161301276,-0.0162822313,-0.00109132076,-0.000252225888,-4.67868266e-05
90993.896006,-0.00408821969,0.0118078074,0.00406731374,0.000467161074,0.000718496288,-0.00116451548
90993.906033,0.0114771627,0.0083796596,0.00960273603,0.000216291294,-0.000121198348,-8.77994788e-05
90993.916061,0.00107204402,0.00121181379,-0.00640907209,0.000306306124,0.000242323047,-0.000769568582
90993.926089,0.00725604272,0.00942116801,-0.0101488431,-0.00219946214,0.000520090761,-0.00125959047
90993.936116,0.00884845531,-0.00107399559,0.00347870019,-0.00018645048,-0.000640071565,-0.00123130528
90993.946144,0.00986757607,-0.000578467156,-0.0141814597,-0.00066475418,0.000735983674,0.000781511914
90993.956172,-0.00104277273,0.0136916849,0.00377213018,0.00155472407,-7.44162686e-05,6.53139083e-06
90993.966199,-0.00318523497,0.0170182355,-0.00191643685,0.000491856664,8.21777061e-05,0.000223845269
90993.976227,0.00353909628,0.00954534238,-0.0144865801,0.000606106312,0.000497897053,-0.000164177243
90993.986255,0.0124758886,0.00326421628,-0.00131847096,-0.000285253735,-0.00032501969,0.000102139104
90993.996282,0.0109955041,0.00605242223,0.00377213018,-0.000266877926,-0.000762577038,0.000730378579
90994.006310,0.00126111116,0.014715402,-0.0120882868,-0.000594979376,-0.000490135616,1.42548489e-05
90994.016337,-0.000179734727,0.0128631982,0.00691919604,-0.000398171766,0.000361809521,0.00110348782
90994.026365,-0.00357748798,0.00801024176,0.0073722005,0.000436995536,-0.00094287294,0.0019397205
90994.036393,0.0118059374,0.0209979894,0.0088703301,0.000272678511,0.000899235441,-7.44284806e-05
90994.046420,0.00142672665,0.00276229464,-0.00759097535,0.000619155771,0.000566340357,-0.0010683201
90994.056448,0.0194544223,-0.00632738607,-0.00834150146,0.000338991181,-0.000106374137,0.00100867918
90994.066476,0.0189153721,0.0141266423,0.009468296,-0.00168581027,-0.000843004426,0.000378308843
90994.076503,-0.000333527916,0.0186999415,0.00827528682,-8.55133723e-06,0.000663279395,6.32573175e-05
90994.086531,0.0230420659,0.0152348593,-0.00938078138,0.00126630395,-0.000257109045,0.000110927995
90994.096559,0.00811978941,0.00536710684,0.00737863024,-0.000128393548,-0.000903191846,0.0013967017
90994.106586,0.0132368185,0.00890525437,0.0138159698,-0.00230819079,0.00103239356,-0.000806531843
90994.116614,0.00839945202,0.00911122527,0.0162160167,-0.000800309112,0.00117034525,-0.000415845749
90994.126642,0.00494032654,0.00578215392,-0.0228370598,0.000855378175,0.00148326672,-0.000177226004
90994.136669,0.00084522726,0.0174732858,0.0069396543,0.000929946612,0.001009224,0.000639032598
90994.146697,-0.00306555298,0.00657092967,-0.00652889908,0.00146151358,0.000309877926,-0.000254724149
90994.156724,0.0233180412,0.0135028844,0.00229679693,-1.62707031e-06,-0.000615570564,0.00020014311
90994.166752,0.00268972147,0.0125785361,0.0180099144,0.000238590009,-0.000788942315,0.000153271507
90994.176780,0.0104561285,0.0114631222,0.011271546,0.000251639526,0.00164279005,-0.00121399478
90994.186807,-0.00110193617,0.00316451876,0.000791653067,0.000826882265,-0.000492798733,-0.000494941112
90994.196835,0.0150463932,-7.98699843e-05,-0.000857283184,0.000720888559,0.000306948451,0.000532772418
90994.206863,-0.00334377169,0.00277968417,-0.0186559747,-0.00185998086,-4.0860367e-05,-0.000657660861
90994.216890,0.0170221371,0.00210821464,-0.00518391421,0.000769358079,0.000562878223,0.00163265786
90994.226918,0.00443258423,0.00944831174,-0.00712978758,0.000263890085,0.000597499325,0.000736770246
90994.236946,0.0107484683,0.00523858509,-0.00817608177,-0.000823744914,-0.00118202494,0.000404408227
90994.246973,0.0174042084,0.00711227001,0.0114311205,-0.00122028961,0.000491505503,6.2724601e-05
90994.257001,-0.0168914319,0.00973593304,0.00244760358,0.00182796457,0.000751163708,0.000955682273
90994.267028,0.0233633417,0.00891146492,-0.00144706577,-0.000151563049,-0.000138598364,-0.00140920465
90994.277056,-0.00385597156,0.0123712865,0.00393871892,-0.000390448599,0.000448362334,0.000599085379
90994.287084,0.00524112128,-0.00382091968,-0.00967654946,0.00146763889,0.00121189062,-0.000949010227
90994.297111,0.00291365957,0.00569776357,0.0132121587,0.0010428647,-0.000377750243,-0.000439547908
90994.307139,0.00386164705,0.00815326696,-0.0054960489,0.000484932397,-0.00149281589,-0.00139189416
90994.317167,0.0163418992,0.00244811412,-0.00609343027,-0.00156650063,-0.000186801641,-0.000255789582
90994.327194,-0.00477064671,0.00103974516,-0.00594028554,0.000796522313,0.000519468696,0.0015426432
90994.337222,0.0156277134,0.00595444174,-0.0141779525,0.00153714722,0.00016420301,-0.000708260548
90994.347250,-0.00795336155,0.0096886233,0.000187841954,-0.000130524094,-0.0028158744,-0.000181487736
90994.357277,0.0158608189,0.00355476019,-0.00953860229,-0.000633861512,-0.000253380612,0.000726384136
90994.367305,0.000933565985,0.00772722357,-0.000559177021,0.00081756124,0.000132777742,0.00130455618
90994.377332,0.00944522676,0.000778865737,-0.00595139145,-0.00135398027,-0.000299187014,-0.000607592959
90994.387360,-0.00183176426,0.00458483389,0.00228393745,0.000223942633,0.00131096017,0.000195615951
90994.397388,-0.0023512364,0.0162294963,-0.0194123461,-0.000805635462,6.16712635e-05,-0.000781231534
90994.407415,0.0213516674,-0.00801833483,0.0105157592,0.000664695815,0.000140234609,0.00155196388
90994.417443,-0.00580615007,0.0203246567,-0.0180597624,-0.00144053296,0.000102684032,-0.000455526609
90994.427471,0.0160472254,0.0093007565,-0.00503486113,-0.000607496235,0.000652893053,-0.00123822966
90994.437498,0.00707072931,0.0123553948,0.00739032068,0.000371481766,0.000355950571,0.00039801656
90994.447526,0.0113217712,0.013694571,0.0132267717,0.000584801027,5.42145129e-05,-0.000848875355
90994.457553,0.0121100966,0.00662218494,-0.0042784898,-0.000797113279,-0.00044432933,-0.00103396547
90994.467581,0.0126189571,0.00430462871,0.00529364066,0.000723551676,-0.000750859138,-2.70241615e-05
90994.477609,0.0150654627,0.00967466784,-0.00817257463,0.000716361167,0.000156479785,0.00112266236
90994.487636,-0.00175939086,0.0225864276,0.00663921005,0.00063273783,0.000101086115,-0.00179163457
90994.497664,0.00947210306,-0.00266911929,-0.0107210901,-7.29998198e-05,0.00119351481,-0.00103423183
90994.507692,0.00581952139,0.00825468151,0.0124727385,0.000824751748,-0.000132739414,-0.000917851899
90994.517719,0.00672063123,-0.00577384384,-0.0084788641,0.000563495743,-0.000186801641,-0.00151839477
90994.527747,-0.00157074384,0.00993492621,-0.00518683682,-0.000815755446,0.00141322556,0.000343155141
90994.537774,0.0201975095,0.00716626522,-0.0216422971,-0.00115424324,0.000767675301,0.00121001436
90994.547802,0.011916637,-0.000566119131,0.0124815063,-0.000803504829,-0.00107070488,0.000376977052
90994.557830,0.00968422828,-0.00208236891,-0.000535796145,0.00027986902,-0.00137723457,0.0006816434
90994.567857,0.0194332266,-0.00108444392,0.00724828186,-0.000145704099,0.00183933137,-0.000354859021
90994.577885,-0.00243711888,0.0123411471,0.00126570032,-0.000404030716,-0.00153036635,0.000686436917
90994.587913,0.0176794303,0.0090282597,-0.00247407073,0.00057787676,0.000515740262,3.87560832e-05
90994.597940,-0.00378756537,0.0116078279,-0.0133999539,0.000939800354,-0.000441399855,0.00041266347
90994.607968,0.00343871207,0.000490806043,-0.00471805027,0.000611432545,-9.78520699e-05,0.000511201124
90994.617995,0.00977542625,-0.00551917496,-0.00531484712,1.6748739e-05,0.000306415851,4.22178092e-05
90994.628023,0.00551284861,0.0119745058,0.00321508082,0.000463893471,0.00185104927,-0.000568711173
90994.638051,0.0187548923,0.00253560974,0.00425377622,0.00100344985,0.000961287136,-0.000630496044
90994.648078,0.000514104743,0.0253166563,-0.017595652,0.000680142149,0.00211416943,-0.000651801911
90994.658106,0.0125073957,0.00899749923,-0.00337949514,0.00120824699,-0.000411306145,-0.000206255328
90994.668134,-0.00382885522,0.0129350579,0.0124791683,0.000724350635,0.00114664309,-0.000629165184
90994.678161,0.015056821,0.00558601029,-0.00278269829,0.00054778305,-0.00145340092,-0.00071092413
90994.688189,0.00537768734,0.013397707,0.0204093767,0.00169134444,0.000238238848,-1.82352704e-05
90994.698216,-0.00645451614,0.018110159,0.00693731621,0.000380003891,-1.36961322e-05,-0.000888823506
90994.708244,-0.00435519892,0.00667420739,0.00648314271,0.00133527979,-0.00203130707,-0.000838489246
90994.718272,0.0125913205,0.0111438636,-0.00908735139,0.0003749439,-6.50562346e-06,-0.000297334951
90994.728299,0.0105547261,0.0247343994,-0.0125272627,0.000257498477,0.00182734711,-0.00045099945
90994.738327,-0.00776215782,0.00970531871,-0.00175861594,0.00263889694,0.000515207662,0.000539696801
90994.748355,0.0193695593,0.0136638471,0.000920832404,0.001083611,0.000984989237,-0.000680031229
90994.758382,0.000617117022,0.0162400908,-0.00596425093,-0.000496442421,-9.91836283e-05,0.000328508231
90994.768410,0.00822231592,0.0046849698,-0.00895524944,-0.000241311579,0.00078551851,-0.000392409947
90994.778437,0.00341978361,0.0123475403,0.00705422059,0.00161837368,0.000801231144,-0.000521839571
90994.788465,0.00160741869,0.00653067073,-0.00252375509,0.00140851667,0.000556752973,-0.00168377624
90994.798493,0.00626511544,0.00145596128,0.000767687669,0.00103647303,-0.000460041906,-0.000527165805
90994.808520,-0.00299986162,-0.000969183507,-0.00506642531,-0.00106209783,-0.000160702607,-0.000754865792
90994.818548,0.0136563773,-0.000740050926,0.00749845723,0.00168175694,0.000331183211,-6.59059477e-05
90994.828575,-0.0014962721,0.00889787478,0.00749436558,0.00101969514,0.000726928948,0.000830780275
90994.838603,0.0160805711,0.0159954318,-0.00656630848,0.000448713437,0.00011599985,0.000241954837
90994.848631,0.00475898747,0.0159128316,-0.0115084411,0.000272145853,-0.000424089245,-0.000486952227
90994.858658,0.0165066944,-0.00424919156,0.00255515561,0.000699050558,-0.000124217346,9.46133165e-06
90994.868686,0.00648531551,0.00367283361,0.000460813677,-0.000357958014,-0.000443796613,0.000674719017
90994.878714,0.0111682369,0.0113843578,-0.000740963328,0.000132329887,0.00137141395,0.000179903607
90994.888741,0.013139189,0.0108731934,-0.010613538,-0.000458092886,0.00120975998,0.00137246682
90994.898769,-0.00558945456,0.00101884851,0.00434905329,-4.98303186e-05,-0.000680019017,-8.53473064e-05
90994.908796,0.0145117087,0.0116163765,0.00315370602,0.000361095424,-0.000439269338,1.5320282e-05
90994.918824,-0.00316043618,0.0123531298,-0.00477650245,-0.000119871451,-0.000337270191,-9.67988488e-05
90994.928852,0.010425454,0.004892402,-0.00537622191,1.0360466e-06,-0.00152104521,0.000839302342
90994.938879,-0.00183500996,0.0065608832,0.0167683899,-0.000272418364,-0.000287602176,0.000513391595
90994.948907,0.00859903885,0.00896158767,-0.00732326433,0.000732392372,0.000399493393,-0.00175988299
90994.958934,0.00990425197,0.0209878698,0.00928300256,0.000258615947,0.000344365966,-0.000282361147
90994.968962,-0.00569633873,-0.0114657353,-0.0122659814,0.000262877039,0.000378720709,-0.000946553398
90994.978990,0.0312389796,0.000990133867,-0.00417853656,-0.00131531222,0.00225891232,-0.00059341823
90994.989017,-0.00850058021,0.0163862212,-0.0034291795,-0.000438599606,-0.000338734929,-0.000455199715
90994.999045,0.00198464879,0.0159743525,0.0143753573,-0.00060957454,0.000849034942,-0.000678372544
90995.009072,-0.00166534049,0.0138959388,-0.0121116676,0.0003108139,-0.00120293068,0.000465987276
90995.019100,0.0155602827,0.00894299257,-0.0131673142,0.000702032304,-0.00108521896,-0.0011630682
90995.029128,0.00895009704,0.0102493625,-0.000146504566,-0.000862042178,0.000642639948,-0.000618984897
90995.039155,0.00082614753,0.0101989109,0.0112288759,0.000288443357,0.00105010359,0.000525375854
90995.049183,0.00098756519,0.00996882848,0.00420116925,-0.000803452675,0.00129724493,-0.000425105889
90995.059210,0.00596138211,0.0121726221,-0.0174939452,0.000648769035,-8.25387985e-05,0.00137092967
90995.069238,0.00948833525,0.00998271088,0.00735174223,-0.00112249934,0.00139311877,-0.000436824721
90995.079266,-0.0121539984,0.00878192025,0.020669489,0.00120563602,-0.000381345381,-0.000871186119
90995.089293,0.0141963945,0.00303154003,-0.00971220529,0.00140670478,-3.17661092e-06,0.000498744685
90995.099321,-0.00906801283,0.00441477455,-0.00776925453,-0.000445257515,0.000709485335,-0.000486358975
90995.109348,0.00652515889,0.00246988756,-0.00208302559,-0.000305441549,-0.00116537999,0.000259059507
90995.119376,0.0167763325,0.00818826521,-0.00477825602,0.00156143448,0.0005156072,0.00126653353
90995.129404,0.0170428974,0.0103046363,-0.0148144969,0.00131482562,0.00105995733,-0.000868788895
90995.139431,0.0273863136,0.0100340757,0.00822794055,-0.000820763168,-0.000360040213,-0.000444813606
90995.149459,-0.013790388,-0.000657487209,0.00134870243,0.0001438337,0.000659417899,0.00010219964
90995.159486,0.0139784369,0.00915389537,-0.00419314961,0.00127967192,0.00033557754,0.000959470894
90995.169514,6.80367497e-06,0.0109856043,-0.00673932696,-0.00101916875,0.00150071051,-0.000273039539
90995.179542,0.0144746149,-0.00912709979,0.010322867,-0.000302512074,0.0006714021,-0.000151067015
90995.189569,0.0032199616,0.00283203541,-0.00209588507,-0.000533940786,0.000256481594,-0.000495679651
90995.199597,0.00455176904,0.0085869822,-5.63479102e-06,0.000858359804,0.00245332312,0.000448943141
90995.209624,0.0173693614,0.00500210946,-0.00284874926,0.000421068814,-0.000546195065,0.00102019126
90995.219652,0.00623857877,0.0141554665,-0.00300014043,0.00108632638,-0.000762710101,0.000503538202
90995.229680,-0.000857777836,0.0115421787,-0.00225721311,0.00152175339,-0.000161634628,-4.53395513e-05
90995.239707,0.00625696039,0.0156735429,-0.00734079998,-0.00115712044,0.000172592015,0.000394348081
90995.249735,0.0108859884,0.00656734948,-0.000898784238,-0.00128681643,-0.000404248699,-0.000115380597
90995.259762,0.0084856299,-0.00209614171,-0.00404234296,0.000916150465,-0.000878291423,-3.44207254e-05
90995.269790,0.0210555043,0.0136990645,-0.0027002807,0.00181736425,-2.42155371e-05,-0.00130261758
90995.279818,-0.00764067316,0.0114206347,-0.00359635276,-0.00114087515,0.000296162688,0.00024387988
90995.289845,-0.00613960839,0.00376379983,-0.00613843846,0.000879398847,-0.000854056547,-0.000353201267
90995.299873,0.0185259458,0.01786097,0.0212434895,0.000195232752,0.000152352047,8.24919227e-05
90995.309900,-0.00703322477,0.00468361809,-0.000303740955,-0.00041276693,-5.96355973e-05,0.000376504872
90995.319928,0.00832560219,0.00681858429,-0.00897629223,-0.00136884185,0.000882058127,-0.000344412376
90995.329956,0.00135485671,0.00890726367,-0.00972389573,-7.29475784e-05,0.00086847601,-0.000961466667
90995.339983,0.0109513442,0.0189973536,-0.023335657,-0.00155712733,-0.00165779864,0.00015812556
90995.350011,-0.00249018479,-0.000599765673,0.00510425557,-0.00116724054,-0.0002734874,-0.00109062993
90995.360038,0.00665883517,-0.000543432375,-0.00311996742,0.000860490321,-0.000408509732,-7.41015864e-05
90995.370066,0.0029920072,0.0122094105,0.0167800803,0.000929199924,-1.22313946e-05,0.000109390381
90995.380094,0.00275435053,0.00937608676,-0.00461926607,0.000281252849,-0.000316896928,0.000526441287
90995.390121,0.014427308,0.00104347149,-0.00836312877,0.00026926859,0.000586713562,-0.00037051176
90995.400149,-0.000788005673,-0.00516853489,-0.00642193157,0.00106795057,-0.000867905081,-0.00184217465
90995.410176,0.0182688932,0.00715325961,-0.00103848497,0.00097979996,0.000466338722,-0.00071432532
90995.420204,0.000287168686,0.000677962646,-0.00717070411,-0.000827687435,-0.000414102324,0.000812997136
90995.430231,0.00433712107,-0.0105255684,-0.00118636901,-1.00969835e-05,0.00051081345,-0.000299405281
90995.440259,-0.00169191911,0.00828025434,0.000462567243,-0.000807713709,0.000355284908,-0.000239483987
90995.450287,-0.000807907387,0.0137543384,0.0094443306,0.000901236731,0.000280982712,-0.000836831492
90995.460314,0.0127913506,0.0139804022,-0.0092556937,-0.000452181723,0.000731056919,1.11190858e-05
90995.470342,0.0140596255,0.00623234537,-0.0200313547,0.000910291515,0.000621867264,-0.000254663613
90995.480369,0.0216981918,0.0139005054,-0.000730441934,-0.000243389883,-0.0002734874,0.000678241279
90995.490397,-0.00369732296,0.0254046634,-0.00447021298,0.00066181861,0.000792043298,0.000593019675
90995.500425,0.011270774,0.00417811625,-0.0192860893,-0.000108900268,-0.000962447128,-0.000667720076
90995.510452,-0.00107961702,0.00626098694,-0.00357355641,0.000218402254,0.00132494177,0.000734699916
90995.520480,0.00248751914,0.0149375203,-0.00477007271,0.000558487905,0.000339305974,-0.000407529038
90995.530507,0.0100014088,0.0103768613,0.000920247882,-0.00041809328,0.000251687961,-0.00178012249
90995.540535,0.00555108741,0.0100198646,-0.0155363814,0.000343570785,0.000683386358,-0.000674111743
90995.550562,0.00556531516,0.0186001344,0.0111055418,-0.00035843846,0.000125454054,-0.000813661118
90995.560590,-0.00978183164,0.00522583521,-0.00146050977,0.00141469413,0.000296961647,0.000998086787
90995.570618,0.0203514123,0.00353583629,-0.00908910496,0.000302291833,-0.000905189184,-0.00147572343
90995.580645,0.0021479633,0.0239054012,-0.00968882442,-0.000225014074,-0.000111567192,0.000274772781
90995.590673,0.0115066029,0.0192014248,0.00288482595,7.00641624e-05,-0.00109001271,0.0010124678
90995.600700,0.000747302719,0.0100957063,0.00677423461,0.000692178562,0.00104690781,-0.00178065521
90995.610728,0.00943636731,0.0149742721,-0.0086442838,0.00101069263,-0.000638340586,0.000566388506
90995.620755,-0.00615224297,0.0053505941,-0.00534933391,-0.000618362965,-0.000622095293,0.000795686643
90995.630783,-0.00241549385,-0.00412910884,0.00767264475,0.00100510004,0.000585115645,0.000696617204
90995.640811,0.0257164487,0.00679582447,-0.000856698662,0.000559553221,0.0010682131,-0.00051938181
90995.650838,-0.00405180808,0.0118516831,-0.00220168353,-0.000181071917,-0.000640470986,0.000840427845
90995.660866,0.0115449364,0.00844315329,0.00813032539,-0.000666832485,0.000542505076,0.000528571222
90995.670893,0.00708324772,0.0114380608,-0.0114722007,-0.000646059859,0.000906825545,-0.00151087714
90995.680921,0.025762852,-0.00514551934,-0.0225471369,0.0017795472,0.000780325397,-0.00119289567
90995.690948,0.00762057061,0.0108048409,-0.0030901568,-0.00174168427,0.00114411315,-2.24364665e-05
90995.700976,-0.00026440592,-0.00462763295,-0.0168468795,0.000223994846,0.00165970113,-0.0014320472
90995.711003,-0.00121887993,0.004221517,-0.0238810159,0.000272198065,-3.08734458e-05,0.0011309786
90995.721031,-0.00113254651,0.00429344973,-0.0238851076,0.00129804784,-0.000426352941,0.000275304567
90995.731059,0.0111719675,0.0150888018,0.00499378093,0.00034650026,-0.000859382781,0.000619385417
90995.741086,0.00121822757,0.000524196856,-0.0138669869,0.00191883068,0.000575262019,0.00125454928
90995.751114,0.0315781644,0.00959309051,0.00572969399,0.000467407817,-0.000519297305,-0.000887697537
