t,ax,ay,az,gx,gy,gz
92462.073790,0.00363082736,-0.0660219454,-0.00388698581,-0.00151788277,-0.00214010929,-0.00110984871
92462.083814,-0.0276561155,-0.00583840255,-0.0164635588,-0.00480049531,-0.00100959754,-0.001400399
92462.093839,-0.00158524962,0.00628576875,-0.0308287688,0.000503456426,0.00575270122,0.00136023343
92462.103863,-0.0169324997,0.00264757665,0.0188497467,-0.00022465181,-0.00512764333,-0.00307632701
92462.113888,-0.0148261272,0.0156933563,0.024826483,-0.000488038434,0.00299260104,-0.000196916962
92462.123913,-0.00159211319,0.0517236692,-0.0493890923,0.000891478997,0.00363415656,0.000702166019
92462.133938,-0.0139792897,0.0211782723,0.0263263661,-0.00113145818,-0.00321283038,-0.000264028998
92462.143962,0.0287475252,0.0229510723,0.00672734718,-0.000249685528,-0.00028921231,0.00245985251
92462.153987,-0.0220769911,-0.0126232769,-0.0309766528,0.00281721089,0.00306823468,0.00267610142
92462.164012,0.00185717788,-0.0498472931,0.00568514465,0.00350670322,-0.000704665531,0.0010707481
92462.174037,-0.0189246051,-0.0561193043,0.0173633075,-0.0020739508,-0.00707095219,-0.000671758296
92462.184062,-0.0404289417,-0.0972887154,0.0137626526,-0.00982880973,0.0200884965,0.0227763085
92462.194086,-0.0360110088,0.000743514858,-0.0510310143,-0.00953319864,0.00154277615,-0.0042419927
92462.204111,0.00584495289,-0.027061479,0.0243758166,-0.000269126603,-0.000557392699,-4.85786959e-05
92462.214136,-0.00639244669,0.0096751372,0.0165999219,0.00342361248,0.00110548516,-2.46101781e-05
92462.224161,-0.0064585616,0.00953614885,0.0165958302,-0.00200444236,-0.00222479794,-0.00136657709
92462.234186,0.0110644594,0.0158323081,0.00776370449,-0.00457572433,0.00178565646,1.93314836e-05
92462.244210,0.0151513017,0.0401429206,-0.0203664114,0.00082916106,0.00106740186,0.00030349104
92462.254235,-0.0105464383,0.0205887089,0.0204864079,0.00151891975,-0.00260376544,0.000106683022
92462.264260,-0.0144763821,0.0170349619,-0.0124291887,0.00281587933,0.000504409682,0.000936257674
92462.274285,-0.0145893501,-0.0220640544,-0.0167610804,0.00262919153,-0.000598138993,0.00115064254
92462.284310,-0.0192839468,-0.043462597,0.0314181363,-0.0039280435,0.000619458172,-0.000257903689
92462.294335,-0.00639682604,-0.00470243906,-0.0134772365,-0.000682449228,0.00482112718,0.00295306977
92462.304359,0.0164372955,0.00936559632,-0.00988593396,0.001196411,-0.00507171741,-0.00152237246
92462.314384,0.0930409282,0.00664400761,-0.0053979749,0.00190640977,0.00340592363,-0.00146511381
92462.324409,-0.0044920336,-0.0458021276,-0.0350197907,0.00115859407,-0.00128416936,0.000863287619
92462.334434,-0.122927726,-0.0917703903,-0.00897934051,-0.00175650205,-0.0010354301,-0.00191705299
92462.344459,-0.131615256,-0.0198144305,0.0574468961,-0.00236689843,0.000814135265,-0.00238390451
92462.354483,-0.0598914246,0.0215067918,-0.00390861312,0.000986287518,-0.000766450868,0.000718943796
92462.364508,-0.0150836981,0.0177853236,-0.0348754138,0.00193517181,-0.00203597974,0.000365275911
92462.374533,0.0444950152,-0.0322714505,0.0159990334,-0.00278847696,0.000946494364,-0.000486935468
92462.384558,0.043114475,-0.0190075894,0.00641638154,-0.0012736709,-0.000638086445,-0.00208163632
92462.394583,0.0167421488,0.0139730353,0.00536658022,-0.00312296985,0.00287195984,-0.00212264897
92462.404607,-0.024796623,0.0698691466,0.0080547964,-0.00292270034,-0.000134748968,-0.0025988221
92462.414632,-0.00868725223,0.0963900555,-0.0127436615,0.00252399678,0.00123038739,-0.000518360154
92462.424657,0.00994407476,0.0520877715,0.014199875,0.00303292685,0.000446352663,0.000550366028
92462.434682,-0.00439505776,-0.00723573866,0.00986681425,0.00118176363,-0.000280690242,-0.000624886693
92462.444707,0.00694514182,-0.0271694329,0.0125637983,0.00192637593,0.00095611772,0.000715584515
92462.454731,0.00111791752,-0.0147401229,-0.0224461403,0.00321854154,0.000721759591,0.00290097485
92462.464756,-0.0133103203,-0.0356807292,-0.0185462103,0.00153249424,0.000581943567,0.00314864891
92462.474781,-0.00755434149,-0.0815505731,0.0187153066,0.00047468665,-0.00225565452,0.00120347647
92462.484806,-0.00707554957,-0.100687345,-0.00851932179,-0.000380720693,-0.00144578724,-0.000798155533
92462.494831,0.00439168078,-0.070527093,-0.0173537856,-0.00409636282,0.0020299043,-0.00206049436
92462.504855,-0.0230032299,-0.0104264793,-5.17594133e-06,-0.00252403258,0.00101310942,-0.00246529465
92462.514880,-0.00760410349,0.00326706025,-0.0224490629,0.00246033972,-0.00199786071,0.000637820943
92462.524905,-0.0503276053,-0.0530215757,-0.00553767563,-0.00173626965,-0.00158879904,-0.00204691196
92462.534930,-0.0494763587,-0.044970426,0.0107640554,-0.00381752997,0.00316361189,-0.00315558629
92462.544955,-0.0400710476,0.00462125134,-0.0131797148,0.00116311378,0.00247039124,0.00166100731
92462.554979,0.00990951034,0.0290561478,0.018844486,-0.00138819459,0.00171911334,0.00103889315
92462.565004,0.0313660554,0.0384995738,0.0115081517,-0.00060602414,-0.00197096272,0.00113902802
92462.575029,0.0497342859,0.0728437785,-0.0125852561,-0.00192775097,0.00175266925,0.00177658817
92462.585054,0.0298268037,0.0895039127,0.00178170748,0.0029317191,0.00152576787,0.000904402717
92462.595079,-0.0211427767,0.044580008,-0.00658572338,0.0060356333,-0.00219599959,0.00121386258
92462.605103,-0.0425146163,-0.0323639876,0.0037503772,0.000972697776,-0.00170890752,0.00180934511
92462.615128,-0.0553753445,-0.0964939117,-0.011061992,-0.000461680783,0.00137503296,0.00120960178
92462.625153,-0.0235628046,-0.0793458113,-0.0320124256,-0.000223860506,0.000904718726,0.000979770927
92462.635178,0.00672253031,-0.0529195036,0.000606818477,-0.00268222447,0.001730565,0.000264445341
92462.645203,0.0108966422,-0.0333656572,0.00434249787,-0.00130403865,0.00136011922,-0.00362217145
92462.655227,0.00578239535,0.0026701538,-0.00314405849,-0.00302204382,0.00207544435,-0.00109722836
92462.665252,0.0137205268,0.0354945833,0.00852533652,-0.000777798033,0.00102349571,-9.42824199e-05
92462.675277,-0.00429915507,0.0478768576,0.00852884365,0.00216259822,-0.000321933281,-0.000903882997
92462.685302,-0.0136799848,0.0402645925,-0.00074401161,0.00295355698,0.000783012269,0.000532093479
92462.695327,-0.0317403161,-0.0119129915,-0.00447910648,0.00160599736,0.000159299953,0.000931833892
92462.705351,-0.0469032911,-0.053642886,0.00360132412,-0.00154265793,-0.00191450361,0.00183650946
92462.715376,0.0022597856,-0.0451954852,0.0034540246,-0.000455821833,0.00333591844,0.000927306733
92462.725401,-0.0282132516,-0.0812651255,-0.0285690071,0.000473355033,-0.00075869167,-0.00135156045
92462.735426,-0.0168316994,-0.0127282899,0.0181097419,-0.00336985252,0.00228956239,-0.00283307673
92462.745451,-0.00169557813,0.0371258378,-0.00269689924,-0.00223774285,-0.000543241834,-0.000708407701
92462.755475,0.00735368152,0.059334546,-0.00239587047,0.00195487161,0.00127223497,0.00246874385
92462.765500,0.0209859307,0.0186857979,-0.0107697311,0.000865904995,-0.000132582479,0.000303859843
92462.775525,0.00348299584,-0.0199648536,0.00928463045,-0.00140204301,0.00180912823,-0.000405339503
92462.785550,-0.0372663221,0.006160608,0.0104805622,0.00249016696,0.000177409404,0.000790686368
92462.795575,-0.0225585001,0.00281688707,-0.00672483959,0.000774558549,0.000483939328,0.000860993771
92462.805599,-0.0325385926,-0.0117643951,0.00614633243,0.000322087525,7.70082904e-05,0.000752336367
92462.815624,-0.0093528811,-0.0615409458,-0.0302097601,0.00198123689,0.00085385239,0.00118882863
92462.825649,0.0022034934,-0.0675493376,-0.00162956227,-0.00123293217,0.000983282013,0.000502532369
92462.835674,0.00332221578,-0.0452566956,0.0107862672,-0.00138233564,0.00132896031,0.000277228674
92462.845699,-0.0149150795,-0.00738533973,0.000308127792,-0.00189073299,0.000233868507,-1.35889067e-05
92462.855723,-0.00287644934,0.0320554392,-0.00912079481,0.000471224516,-0.00174113175,0.000395739472
92462.865748,-0.00275117215,0.00133952626,-0.0142061353,-5.18203134e-05,-0.000811155865,0.00261947887
92462.875773,-0.0209439456,-0.0374243946,0.0131775462,-0.000848105437,-4.52308243e-05,-0.00212707275
92462.885798,-0.0212802421,-0.000898973386,-0.0124139911,-0.00135996504,0.00152709954,-0.00101280676
92462.895823,0.00327182817,0.0175798824,-0.0161572693,-0.00147554624,-0.000496103873,-0.000278839821
92462.905847,0.0370054769,0.0248924705,0.000451920176,0.000713305812,-0.000413279727,-0.000815732384
92462.915872,0.0501451134,0.0252194191,-0.00912488646,-6.80655768e-05,-0.00133366811,0.000513983911
92462.925897,0.0523087851,-0.0185970906,-0.0184018334,0.000483475075,-0.000429258661,0.00135287924
92462.935922,0.0219526751,-0.0583772941,0.00285138253,0.000464300308,-0.00200132244,0.000297735466
92462.945947,0.00597481722,-0.0744028019,3.00736512e-06,-0.00430542146,-0.00105616681,0.000425833298
92462.955971,-0.0419811396,-0.0317868636,0.00597857464,-0.00414057131,-0.000581058886,-0.000503609867
92462.965996,-0.0285685473,0.0312076998,-0.0104903296,-0.000901635006,0.00110099374,-0.000439960489
92462.976021,-0.0183012491,0.0194068421,-0.00914242212,-0.000136508822,-0.000888920136,0.00205462242
92462.986046,-0.0375659055,0.00784041432,0.0342454687,-0.000983394069,-0.00448045936,0.00188311471
92462.996071,-0.0376017714,0.0143005685,-0.0534415826,-7.49898146e-05,0.00453727031,0.00129775193
92463.006095,-0.0788546801,0.0183834722,0.0150912709,-0.00220791538,0.00239156154,0.000443942866
92463.016120,-0.070955264,0.0205875581,0.0195827371,0.00297033499,-0.00467513651,-0.000814933309
92463.026145,-0.0512438,-0.0651594468,-0.0275455093,0.00271760105,-0.000679329483,0.00101945179
92463.036170,-0.0447643702,-0.136234057,0.0260247529,-0.00411820094,0.00222990769,-0.00266955884
92463.046194,-0.00125808861,-0.0666048963,0.0146382664,-0.00385641199,0.00720202913,-0.0030826153
92463.056219,0.0402241239,0.00967552079,-0.000928720527,0.000365497052,-0.00418538098,0.00242719848
92463.066244,0.00736551352,0.0505634663,-0.00122799573,-0.00132853965,0.00152656683,0.00172439033
92463.076269,0.00333611416,0.0567589051,-0.0193364839,-0.000241437371,0.000266358975,0.00138430486
92463.086294,-0.00783670438,0.0286945296,-0.00571303219,0.00390563711,-0.00224233894,0.00183571039
92463.096318,-0.0027544441,-0.024787287,-0.00286348798,9.06588128e-05,-0.00121302691,0.000211981146
92463.106343,-0.0291070564,-0.0557929584,0.0132962042,-0.00171975812,0.00160752693,-0.00120082589
92463.116368,-0.0271622972,0.000604270784,-0.0133433809,0.000461903432,0.0021984823,-0.000909741947
92463.126393,-0.00435623272,-0.00667792211,-0.00495724539,0.00305236029,0.000192855738,-7.46359816e-06
92463.136418,-0.0138363649,-0.0176537636,0.0194360221,-6.96634935e-05,-0.00234114202,-0.000651415417
92463.146442,0.00955966713,-0.0255494671,0.00551621783,-0.00424523381,-1.82129705e-06,-0.00127139965
92463.156467,0.00169227878,-0.00336404833,-0.0272626007,0.00106377786,0.00207970538,-0.00058297252
92463.166492,0.040940291,0.00249196596,0.0197253604,-0.00154532105,-0.00303942301,-0.0017233379
92463.176517,-0.0151643507,-0.00390204593,0.0194225781,-0.00327131556,0.00546884434,0.000475367552
92463.186542,-0.0357179944,0.0225794808,-0.0191885998,-0.000354089088,-0.00169718962,-0.00208978912
92463.196566,-0.0431621387,0.0498332889,0.00385676018,0.00305821924,-0.00232942412,0.000537153354
92463.206591,-0.0487317098,0.025745361,-0.00930258112,0.000906917648,0.00376761695,-0.000800819115
92463.216616,-0.0327019071,-0.0362075479,0.0234727303,0.000232338995,-0.000467341838,-0.000218652168
92463.226641,0.0206206525,-0.0449151887,-0.0170749687,0.00209362238,-0.000335515456,0.00179815993
92463.236665,0.0361710947,-0.0455467463,-0.0224584153,-0.000469670279,0.00189461573,0.00135474375
92463.246690,0.047445458,-0.0284792186,0.016294217,-0.00156502842,0.000232004232,-4.36818018e-05
92463.256715,0.0295791217,-0.0140215081,0.00551855592,-0.000390308077,-0.00293715773,-0.0013198694
92463.266740,-0.0286819103,-0.0120782833,-0.0275472629,0.00161851433,0.00237371833,-0.0010266546
92463.276765,-0.0760522766,-0.0430196573,-0.00554936607,-0.000779129591,0.00139447408,-0.00126394255
92463.286789,-0.0909231346,-0.00711054138,0.0221300835,-0.000190570992,0.00249382704,-0.00057871172
92463.296814,-0.0555949786,0.0147607334,0.0173428492,0.00215301095,0.000479678178,0.00145567723
92463.306839,-0.0292579247,0.0277228351,-0.00404831385,0.00266034311,0.00112815797,0.00148923325
92463.316864,-0.001102946,0.0285776435,0.00508308711,0.000407042363,0.00300914878,0.0026559639
92463.326888,0.0235206254,0.0224068642,-0.00643082507,0.0034566281,-0.000232717351,0.00320803749
92463.336913,0.010491653,-0.0240959255,-0.0204874075,0.00446942813,-0.00105190578,0.00268818859
92463.346938,0.0281531166,-0.0854564579,0.0241086901,-0.000651031526,5.30397726e-05,0.00366876416
92463.356963,-0.00314947587,-0.058384144,-0.0121041945,-0.0012518407,-0.000294502804,0.00221228136
92463.366988,-0.0206813925,-0.0319629326,-0.00567094662,-0.00221936716,0.00455032,0.00135287924
92463.377012,-0.00864168692,0.00933728354,0.0241034294,-0.000861687612,0.00010071045,-0.00309593135
92463.387037,-0.0243223063,0.0183748687,-0.00881508986,0.00187897161,-0.000390909126,-0.00118165089
92463.397062,-0.0392006968,0.0322912024,0.00301095701,0.00136764455,0.00227278461,-0.00198512709
92463.407087,-0.0760616153,0.00111172712,0.0142366999,0.00207045293,0.000855716548,-0.00058590153
92463.417112,-0.090485693,-0.0020254384,0.0374357892,0.000301314841,0.00108448209,0.000882298707
92463.427136,-0.129831478,0.00610014652,0.00467099918,0.00198043805,0.000675154288,0.00103383234
92463.437161,-0.14475698,0.0327161133,-0.0370738006,0.00206113179,0.00372181032,0.00124981536
92463.447186,-0.132286753,0.0133217683,-0.0107305681,0.00257209307,0.00220805071,0.000361080302
92463.457211,-0.0957927956,0.00192751874,0.0172557555,0.00152307391,0.0015222867,0.00176030493
92463.467235,-0.0396452417,-0.0177993826,0.019954493,0.00210124618,-0.000176277457,0.00114564693
92463.477260,-0.00964862634,-0.0112613774,0.0196593095,0.00087805631,0.00212256321,-0.000256240347
92463.487285,-0.0128344396,-0.00841435398,0.0263930016,3.67636848e-05,-0.000107301611,0.00104178397
92463.497310,-0.0291347938,0.0171444319,-0.00397992479,0.000972864832,0.00132947382,-0.000197650844
92463.507335,-0.0451457205,0.0435072824,-0.0190880621,0.00287755757,0.00262669953,-0.00207225045
92463.517359,-0.0702057837,0.0456587066,-0.00800377348,0.00217528214,0.000346767388,-0.00111617518
92463.527384,-0.115663681,0.0161336109,-0.015628277,0.00280352184,0.00157661517,-0.00133695172
92463.537409,-0.10769736,-0.0317897131,-0.0202547678,0.00280432069,0.00271671442,-0.00195746774
92463.547434,-0.114291872,-0.0905749152,-0.0190524062,0.000515866358,0.0015222867,-0.00158702207
92463.557458,-0.249319552,-0.149891831,-0.0544978136,0.0119378985,-0.00717559746,0.00359735361
92463.567483,-0.0926219744,-0.135778294,0.0819646667,-0.0133781108,0.014017838,-0.00829738842
92463.577508,-0.0467616838,-0.0197228433,0.0672879066,-0.00108069865,-0.00670235334,-0.00260488221
92463.587533,-0.173131617,0.0029545237,-0.324427684,0.0293810711,-5.05762667e-05,0.00829863178
92463.597558,-0.0749616136,-0.0855224541,0.285049783,-0.0204788978,0.00600225609,-0.0140841724
92463.607582,-0.0777968051,-0.00297389823,0.10740832,-4.78162576e-06,-0.00519180866,0.00256378066
92463.617607,-0.218904869,-0.0434858866,-0.488843755,0.026104317,-0.000736872878,0.00540723747
92463.627632,-0.0301109613,-0.0460183824,0.463881917,-0.0191228158,0.0142966713,-0.013598944
92463.637657,-0.101422773,0.00409861571,-0.0423561249,-0.00803660889,-0.00240214784,-0.00218010785
92463.647681,0.085673596,0.144503568,-0.275167102,0.00895089648,0.0104281631,-0.0046059815
92463.657706,0.00275002137,-0.00705930438,0.273395001,-0.00177471849,-0.00460032057,-0.0139768468
92463.667731,0.0598926872,0.0943555723,-0.173562,-0.000638613969,0.0105786323,-0.00735170113
92463.677756,0.0249894559,-0.00992245699,0.0957856868,-0.00379818826,-0.00297712405,-0.0142697943
92463.687781,0.0590599308,0.0302948227,0.051637333,0.00582993767,-0.00052648315,-0.0107855806
92463.697805,0.00517500633,0.00354399576,-0.140782012,0.00185064264,0.00775674674,-0.00973123589
92463.707830,-0.0418470192,-0.0230664729,0.0978876275,-0.00358034167,0.00328742983,-0.0147563545
92463.717855,-0.0319743965,0.00272040442,-0.0134409961,0.00296304506,-0.000600519104,-0.00980793403
92463.727880,-0.0658885963,0.0102241676,-0.016121029,0.0045558814,0.00334069309,-0.0090129813
92463.737904,-0.12402829,0.0037583509,0.011715657,0.00252788459,0.00386320511,-0.0104590775
92463.747929,-0.219497191,0.146559989,0.000792111916,-0.0091269073,0.0153582077,-0.0191700114
92463.757954,-0.361683711,0.405541199,0.30432147,-0.044864134,0.012599172,-0.0218145298
92463.767979,-0.479796113,0.399068971,-0.02022145,-0.0194722219,0.0248513118,-0.0399000542
92463.778003,-0.101559278,0.204994241,-0.363471408,0.0570316044,-0.0274483777,-0.0105267213
92463.788028,-0.356875361,-0.139855974,-0.457878123,0.0813076523,0.00779802575,-0.0247413432
92463.798053,-0.0968064479,-0.283318725,-0.0290781257,0.0889791575,-0.0696496247,0.00127001714
92463.808078,-0.186698206,-0.393525615,0.308696616,0.0504485359,-0.027816427,-0.0164770214
92463.818103,-0.219840287,-0.279703969,0.236174985,-0.0128875571,0.0106231066,-0.00698764713
92463.828127,-0.142109388,-0.179248311,0.178961983,-0.0257106769,0.0104798292,-0.00782308073
92463.838152,-0.0912974569,-0.0248152528,-0.0536619473,-0.039470167,0.0199316544,-0.00904120968
92463.848177,-0.0314856198,0.0397595107,0.0661036653,-0.0329920287,0.0183049952,-0.0120902629
92463.858202,-0.0417577928,0.0313581959,-0.0256843916,-0.010459819,-0.00077682033,-0.0136862946
92463.868226,-0.0539815064,-0.0208434996,-0.164249982,0.00995943594,-0.00727253696,-0.00674796195
92463.878251,0.00078718773,-0.164305027,-0.0162379333,0.00150176863,-0.000428745037,-0.0131299617
92463.888276,-0.0490493952,-0.203854107,0.0150281425,-0.00893302922,0.0109000755,-0.0187588176
92463.898301,0.0742342286,-0.110934562,0.00498371839,-0.00736948763,0.00523792896,-0.02025232
92463.908326,0.209789933,-0.0448106506,0.0316098595,-0.00202345775,-0.00536917532,-0.021002532
92463.918350,0.29548497,-0.00914180974,-0.0803219907,0.00315905377,0.00118592942,-0.0204749601
92463.928375,0.361265493,-0.0294228379,0.0126070529,-0.00898948786,0.0146756395,-0.0272625563
92463.938400,0.341124403,-0.00119404734,0.148165278,-0.00283572179,-0.00835031746,-0.0316892611
92463.948425,0.258143374,0.0382382195,-0.0188302879,0.00331112035,-0.00428180686,-0.033044544
92463.958449,0.180597448,0.0275619819,-0.0423210536,-0.0018740544,0.00266185323,-0.036619571
92463.968474,0.0339307776,0.0118225793,-0.0456089893,0.00256783204,0.00446907421,-0.0372829707
92463.978499,0.0297186215,-0.0275210229,0.0404378936,0.00118458612,-0.0033275961,-0.0307369185
92463.988524,-0.0817361995,-0.0569152404,0.0773977972,-0.000312110407,-0.00997724301,-0.0248606531
92463.998548,-0.0383051385,-0.0299190787,-0.0300496011,-0.00423601185,0.00400275495,-0.0260936981
92464.008573,-0.0221572464,0.0204799878,-0.0127085902,-0.00751942358,-0.00160240031,-0.0273211477
92464.018598,-0.00991760459,0.0217840196,-0.0276793648,0.00291430918,-0.0050701025,-0.0191737385
92464.028623,0.00391345967,0.0193128254,-0.0384474271,-0.000267102984,0.00426534274,-0.0184062151
92464.038647,-0.0164962889,0.0203313914,0.0395014895,-0.00776336909,0.00572928218,-0.0186448348
92464.048672,0.0679331557,0.100218875,0.00612002894,-0.00304051893,0.00386080835,-0.014769935
92464.058697,0.0187219359,0.19507211,-0.0200694743,-0.00207592195,0.00511382557,-0.00975520441
92464.068722,-0.00991232335,0.198177382,-0.0263507466,0.00078298143,0.00224506845,-0.00417934356
92464.078747,-0.058641525,0.120832478,-0.0148192987,0.00289593349,0.0004232001,0.00282237355
92464.088771,-0.0949214378,0.0217762016,-0.0246866127,0.000802955156,0.00306212636,0.0067420141
92464.098796,-0.141319479,-0.0162812332,0.0237953864,-0.00248045622,0.00276678186,0.0118528865
92464.108821,-0.114532257,-0.0073955506,-0.0297760448,-0.000689746664,0.00261258487,0.0164580243
92464.118846,-0.103282987,0.0123458908,-0.0332171252,-0.000436480038,0.00488372836,0.0177943995
92464.128870,-0.121817792,0.0228745,0.0222972568,-0.00140693594,0.00311166132,0.0204088232
92464.138895,-0.113392713,0.0282112214,0.0202011613,-0.000550196998,0.00213960735,0.0216953969
92464.148920,-0.116579335,-0.000344463042,-0.000891895648,0.00178805847,0.000665015096,0.0237992956
92464.158945,-0.138501545,-0.000246793088,-0.0278237417,0.000913742612,-0.000388531459,0.0273594083
92464.168969,-0.131468486,-0.0283304943,-0.0563986788,0.000300682938,0.00158886567,0.0284102923
92464.178994,-0.105025282,-0.0384865804,-0.0152512604,-0.00185567859,0.001130802,0.0312702609
92464.189019,-0.050372602,-0.0498804282,0.0220032422,-0.00178617003,-0.001857531,0.0314987591
92464.199044,0.0252779265,-0.0732844106,-0.00568555967,-0.00396969574,0.00200485149,0.0297993971
92464.209068,0.0479683859,-0.0774749394,0.00792386349,-0.00186207014,-0.000465763014,0.0281732707
92464.219093,0.0557077662,-0.0840171824,0.0138982617,-0.00423468052,-0.000296652296,0.0239886446
92464.229118,0.114268142,-0.0421886133,-0.0158854666,-0.0024096161,0.0034986184,0.0222522645
92464.239143,0.135409084,-0.0318589059,-0.0106463969,0.0012181419,0.00264614066,0.0222567907
92464.249168,0.124382919,-0.0408593922,0.054295154,-0.00156060033,-0.00442268802,0.019363801
92464.259192,0.146983732,-0.0456205057,0.0286989405,-0.00469274408,-0.00165406566,0.0183131835
92464.269217,0.172039427,-0.00304847957,-0.0482212176,0.00170816356,0.000262345208,0.0170652261
92464.279242,0.116130511,-0.0196933614,-0.052103612,0.00394761554,0.00355614293,0.0128497081
92464.289267,0.0417519179,-0.075204492,0.0524936576,-0.00204849147,-0.000777619172,0.00948347247
92464.299291,0.00830767376,-0.0606355761,0.045602729,-0.00154781711,-0.0025720574,0.00578833606
92464.309316,0.0330281023,-0.00782144786,-0.0583994972,0.00122293565,0.00418891003,0.00540004719
92464.319341,0.0264170044,0.0716623136,0.0102824093,-0.0043934049,0.00693782456,-0.00138755141
92464.329366,0.0553163603,0.189135541,0.0342174117,0.000152078605,0.00132148436,0.00067293646
92464.339390,0.0460939657,0.216032444,-0.0302693813,0.00393190273,-0.000567495802,0.0040255897
92464.349415,-0.0500345634,0.117850795,0.0113421475,0.00493245237,-0.00166897916,0.00161969012
92464.359440,-0.088564744,0.00021322564,-0.0242640034,0.00171908262,-9.93121442e-05,9.21013043e-05
92464.369465,-0.126443525,-0.110076721,-0.0149829648,0.000381376742,0.000576331883,0.000610086157
92464.379489,-0.11514184,-0.135764138,0.00581432399,-0.00286714718,0.00217422857,-5.09107276e-05
92464.389514,-0.0554845496,-0.0494614173,-0.00392030356,-0.00418914025,0.00703289956,0.00147374861
92464.399539,0.0174613779,0.078454458,0.0117840461,-0.002548633,0.00561503265,0.0038836431
92464.409564,0.0644417608,0.150319853,0.00715171008,0.00417371784,0.000505491763,0.00688396024
92464.419588,0.052414305,0.190549609,0.0149410488,0.00158246237,0.00264534158,0.00762458567
92464.429613,-0.0255620179,0.166083276,0.0406810547,-0.000608253901,-0.00143355571,0.00554785274
92464.439638,-0.0556422884,0.143985773,0.0207757463,-0.00181226906,-0.00210174276,0.00383730421
92464.449663,-0.0284624201,0.146580813,-0.0113992611,-0.000768717521,-0.00164786619,0.00205310762
92464.459687,-0.0515763084,0.118263321,-0.0555347555,0.00432777396,0.00218708571,0.00188346442
92464.469712,-0.122024403,0.0454836971,-0.0383147406,0.00242601047,0.00559486672,-0.00412702372
92464.479737,-0.154767529,0.0157684856,0.0285756064,-0.000337818053,0.00282065188,-0.00758966522
92464.489762,-0.136218412,0.0313717495,0.0450374964,-0.000583894112,0.000152697109,-0.00830365995
92464.499786,-0.130832435,0.0133637078,0.0128677496,-0.000165511531,-0.00131656891,-0.0110294046
92464.509811,-0.171834892,0.0212776044,0.0124135761,-0.00283959167,0.000553502838,-0.0128091955
92464.519836,-0.223759049,0.0170318201,-0.0492388702,0.00143265145,-0.00269502085,-0.0108381891
92464.529861,-0.291644874,-0.0201794827,-0.0540220128,0.0029021836,-0.00225613229,-0.00767009424
92464.539885,-0.35158226,-0.121880702,0.000600973258,-0.00111492848,0.0015567156,-0.0071228137
92464.549910,-0.346898632,-0.111238148,0.0315648513,-0.00764819522,0.00456715272,-0.00797396058
92464.559935,-0.308047836,-0.0293066459,0.0273603854,-0.00235143429,-0.00289023072,-0.00353127436
92464.569960,-0.300925839,0.0182715545,-0.00945104968,-0.00279751359,-0.00130112246,0.00160223434
92464.579984,-0.267242729,0.0369311555,0.00744806267,-0.00520873963,-0.00212909919,0.00188319806
92464.590009,-0.189895888,0.0541516087,-0.00962757529,-0.00429820464,-0.00261139786,0.00244246193
92464.600034,-0.136591528,0.00630757873,-0.0464460246,-0.00117484954,-0.000428138397,0.00364727576
92464.610059,-0.13852615,-0.0121640436,0.027456247,-0.0128850351,0.00180838434,-0.00518270114
92464.620083,-0.088860366,0.160341134,0.057939648,-0.0151441946,0.00227683447,-0.0103542926
92464.630108,-0.0599466665,0.249316033,-0.0558088962,-0.00520314704,-0.00872734757,-0.0122805582
92464.640133,0.0674772834,0.226863452,0.0110592389,-0.00674351919,-0.00854279017,-0.0190897276
92464.650158,0.208580521,0.209949872,-0.0449145772,0.000846489714,0.00239055129,-0.0208380939
92464.660182,0.188797889,0.203445897,-0.0239618056,0.000519453463,0.00870623803,-0.026714093
92464.670207,-0.0170203538,0.167329331,0.134199296,-0.00266488836,-0.00668443656,-0.0338684069
92464.680232,-0.126740892,0.161812705,0.0230162187,0.00347156744,-0.00875957134,-0.0333277853
92464.690257,-0.137245745,0.147434416,-0.0915997561,0.000169514157,-0.00150192492,-0.0388631644
92464.700281,-0.193768711,0.169669994,-0.0161835728,-0.00106166521,0.00518101165,-0.0421119602
92464.710306,-0.238365996,0.16642787,0.0206284468,0.00164730221,-0.00587989539,-0.03832334
92464.720331,-0.287560308,0.150260086,0.0373855203,-0.00131466551,-0.00825223895,-0.0396386804
92464.730356,-0.250498734,0.1538578,-0.0383410441,-0.00365798114,0.000580667073,-0.0406778427
92464.740380,-0.261625528,0.16333522,-0.089823394,-0.00306888981,0.00405902173,-0.0405217828
92464.750405,-0.297566427,0.142057436,0.0195482503,-0.00580954886,-0.0024436187,-0.0458544986
92464.760430,-0.305349757,0.114063458,0.0271651551,-0.0037597137,-0.00893347627,-0.0468084411
92464.770455,-0.297987429,0.0623413266,-0.0505107898,-0.00248965234,-0.00462394869,-0.0472161742
92464.780479,-0.311533067,-0.00261648136,-0.0505207267,-0.00341323655,-0.00101643065,-0.0481498735
92464.790504,-0.345429911,-0.113837096,0.0362579776,-0.00153091419,-0.00707086092,-0.0463786097
92464.800529,-0.36180299,-0.256138914,0.0369985668,0.00295677842,-0.0124001122,-0.0394812869
92464.810554,-0.360149707,-0.388372214,0.043585544,0.00454721824,-0.00299835494,-0.03388678
92464.820578,-0.474365686,-0.484282758,0.0626286826,0.0296637573,0.00210133209,-0.0335480319
92464.830603,-0.775700566,-0.570055755,-0.0333918972,0.122040558,-0.0468968405,-0.00818807909
92464.840628,-1.05712491,-0.845891525,-0.243979352,0.181969668,-0.105473864,0.0132471724
92464.850653,-0.839423315,-0.864209199,-0.278915641,0.142892311,-0.0759005277,0.0404668106
92464.860677,-0.834228669,-0.847991128,-0.216319192,0.03652539,0.0151867735,0.055742438
92464.870702,-0.923061091,-0.79980402,0.307253432,-0.0667131144,0.0573938833,0.0680124192
92464.880727,-0.855361912,-0.842595772,0.785259651,-0.132885208,0.00234101657,0.0796733303
92464.890752,-1.03206281,-0.600001652,0.0892331964,-0.137997945,0.0170635031,0.0886045126
92464.900776,-0.618621998,-0.18075603,-0.581925943,-0.129614581,0.0757758141,0.104929152
92464.910801,-0.720402603,-0.0294969078,-0.115797793,-0.0943103853,0.0489223645,0.112477618
92464.920826,-0.782291781,-0.00021807845,0.18511466,-0.0148168924,-0.00713078222,0.115978341
92464.930850,-0.673747746,-0.0367902796,0.141118282,0.00695098742,-0.0541265189,0.112921032
92464.940875,-0.669529033,0.392328666,-0.0922199338,-0.0405739183,0.0151705285,0.0956781311
92464.950900,-0.32563241,0.727542179,-0.2300689,-0.0978720981,0.0811751083,0.099771942
92464.960925,-0.56316848,0.83983161,0.479578083,-0.166755562,0.0617814408,0.0742705791
92464.970949,-0.288798197,1.06334533,0.655712064,-0.195070018,0.0489284889,0.0473063393
92464.980974,-0.163996947,1.40016745,-0.408960071,-0.0501250821,0.0104412873,0.0352592645
92464.990999,-0.287964925,0.909353621,-1.23166469,0.107569205,-0.026997964,0.0622144519
92465.001024,-0.513945891,0.596197626,0.129067779,0.116659905,-0.0242818064,0.0045796484
92465.011048,-0.377632318,0.197017508,0.774437228,0.0626536635,-0.0619897722,0.0202038819
92465.021073,-0.563857631,0.226919639,0.214465842,0.0152238309,-0.0212183717,0.00778955689
92465.031098,-0.571649637,0.393230985,-0.251220994,-0.0274418733,0.0306892999,-0.0126310298
92465.041123,-0.528833773,0.690582348,-0.119638102,-0.0387126367,0.0227650654,-0.0126970755
92465.051147,-0.390569066,0.812056738,0.0951310223,-0.0267704903,0.000649909277,-0.0299466355
92465.061172,-0.387355365,0.763649119,-0.0222088244,0.0111667709,-0.0158020343,-0.029061134
92465.071197,-0.269408949,0.445205502,0.0572884906,0.00766071948,-0.00845197598,-0.0439591231
92465.081222,-0.408240916,0.390191727,0.2052567,-0.0191993891,0.00807347046,-0.0702623697
92465.091246,-0.211480783,0.633728681,0.0813181855,-0.00107391571,0.016862967,-0.0709523978
92465.101271,-0.0861767529,0.67613684,0.0734253865,0.0185913992,0.00303157409,-0.0745319472
92465.111296,-0.294365933,0.65338564,0.106090223,0.00891959566,0.00385662159,-0.0892757447
92465.121321,-0.371781254,0.530758537,-0.0647684478,0.0100796688,0.0103131895,-0.100218137
92465.131345,-0.321050562,0.359892779,-0.137902073,0.0106921959,-0.00259089154,-0.103836042
92465.141370,-0.300458386,0.0969311766,-0.149524122,0.024352082,-0.00865277844,-0.108866219
92465.151395,-0.319585988,-0.0372010341,-0.333985202,0.104383538,-0.0398836686,-0.103721526
92465.161420,-0.0780864585,-0.257508065,-0.235720642,0.172048072,-0.068799208,-0.104436849
92465.171444,-0.0531013717,-0.327560237,0.0164467772,0.169877331,-0.0635663598,-0.09868629
92465.181469,0.0720196578,-0.423099244,0.260400495,0.087037566,-0.0350606843,-0.101895933
92465.191494,0.203495728,-0.391437593,0.512002682,-0.0378290015,0.016919692,-0.110920851
92465.201518,0.219266092,-0.239093415,0.222896401,-0.0914834413,0.0487977312,-0.096822341
92465.211543,0.0946801285,-0.181042884,-0.00372448873,-0.0746077868,0.0441204206,-0.108735193
92465.221568,-0.0738456517,-0.180838375,-0.112645467,-0.0254956345,0.00662311343,-0.10438252
92465.231593,-0.0766880264,-0.203637359,-0.184780729,0.00888497467,-0.0186769172,-0.0943519966
92465.241617,-0.0471985317,-0.284380509,-0.0171795981,-0.00288060432,-0.0107276478,-0.0989707159
92465.251642,0.0992379196,-0.344402432,0.021557252,-0.00803302237,0.00454371692,-0.089266424
92465.261667,0.269934203,-0.435279365,-0.0231709475,0.021068138,-0.0173639777,-0.0757159935
92465.271692,0.35759623,-0.48618976,-0.172405816,0.0660089803,-0.026468794,-0.0700338678
92465.281716,0.351467773,-0.492873695,-0.302829016,0.0824774382,-0.00423033359,-0.0673328908
92465.291741,0.219718001,-0.403890649,0.303487357,0.00555362684,0.0109904314,-0.0703294845
92465.301766,0.223862169,-0.173971448,0.649654664,-0.0806385177,0.0178520651,-0.0703337462
92465.311791,0.333069581,0.0439990663,0.189844611,-0.117717971,0.0491545917,-0.0807975651
92465.321815,0.286341166,0.268836799,-0.383697035,-0.0870849612,0.0642698974,-0.0706714289
92465.331840,0.237508819,0.242304145,-0.271317441,-0.0194025888,0.0178680447,-0.0730419131
92465.341865,0.186637751,0.0350659826,-0.169386176,0.0303479237,-0.0245627697,-0.0522138597
92465.351889,0.0789709017,-0.107446171,-0.11016534,0.0539232892,-0.0304824422,-0.0731550948
92465.361914,0.235286376,-0.289464114,-0.164018511,0.0671831695,-0.0284627016,-0.0574070262
92465.371939,0.167730039,-0.349558061,-0.0547409747,0.0754813132,-0.0288904059,-0.0570610808
92465.381964,0.230851937,-0.516287633,0.0941905266,0.073923367,-0.0399441226,-0.0491219284
92465.391988,0.221008314,-0.586241276,0.0710183253,0.0653623668,-0.0325714304,-0.0435977326
92465.402013,0.278206576,-0.679085929,0.0543921847,0.0444333804,-0.0110267206,-0.037393366
92465.412038,0.269861485,-0.724763392,0.141999156,0.00780905775,0.00773072187,-0.0295125423
92465.422063,0.179515809,-0.618015776,0.136595252,-0.0211746554,0.00951637132,-0.0268472498
92465.432087,0.223306947,-0.503690492,0.0169652481,-0.0376258018,0.0124999107,-0.0115633691
92465.442112,0.17908403,-0.394589444,-0.0184398273,-0.0380532379,0.0208521158,0.00153272601
92465.452137,0.290384268,-0.400329778,-0.0195697081,-0.0257178443,0.010605107,0.0100224652
92465.462162,0.311523958,-0.366065105,-0.116262488,0.00652424843,-0.000644086025,0.0216682023
92465.472186,0.280204344,-0.509633983,-0.148392487,0.022000675,0.000290150891,0.0351081109
92465.482211,0.0585804858,-0.617807796,-0.0455055289,0.0475521077,-0.0206268477,0.0334673366
92465.492236,0.021494225,-0.790089778,-0.111204036,0.0710782138,-0.0373917139,0.0448824456
92465.502260,-0.0898080312,-0.813907511,-0.130058374,0.0568129857,-0.023381888,0.0568538858
92465.512285,-0.120442668,-0.827867866,0.0329776407,0.00638070415,0.00160202409,0.0666178344
92465.522310,-0.166647918,-0.682513931,0.301673001,-0.0473895828,0.0139393833,0.0683768494
92465.532335,-0.0737021059,-0.563962517,0.17269357,-0.0659451532,0.0232660406,0.0833552657
92465.542359,-0.170991445,-0.506215115,-0.0776144853,-0.0259561977,0.0148413972,0.0915705888
92465.552384,-0.194906099,-0.63629995,-0.2977314,0.0237873913,-0.012883707,0.106762852
92465.562409,-0.397116551,-0.761743754,-0.177778156,0.0549013679,-0.0227115705,0.105971093
92465.572434,-0.320974136,-0.825673571,0.055470043,0.0278223463,-0.0136743999,0.124464351
92465.582458,-0.35654138,-0.566871974,0.331373727,-0.0460771779,0.00816804813,0.10913227
92465.592483,-0.250011736,-0.347589902,0.184992495,-0.106799108,0.0538804055,0.129098522
92465.602508,-0.372359675,-0.0925036548,0.0708201724,-0.137491514,0.0739545197,0.121932487
92465.612532,-0.456889979,0.0602617987,0.0943711438,-0.156561081,0.058215768,0.113693732
92465.622557,-0.639927529,0.433755376,-0.0743692198,-0.123316039,0.0489727342,0.109821494
92465.632582,-0.653489313,0.617355565,-0.378359765,-0.0342868316,0.0199320287,0.102948139
92465.642607,-0.59856771,0.542497271,-0.246063757,0.0404244241,-0.0295545637,0.105129006
92465.652631,-0.646526854,0.34604973,-0.0580142973,0.0226922994,0.00166354307,0.0871563954
92465.662656,-0.854272583,0.480265673,0.132166329,-0.0271506245,0.0309316841,0.0603170609
92465.672681,-0.70107166,0.724498354,0.270909614,-0.0613461445,0.0112599776,0.0736863939
92465.682706,-0.65959406,1.04567479,0.173437082,-0.0678644973,0.0263862004,0.047285947
92465.692730,-0.502451414,1.09536295,-0.332015363,-0.00346446977,0.0141580299,0.0499405889
92465.702755,-0.454795381,0.647518648,-0.369178096,0.0516030443,-0.0161846961,0.0641160561
92465.712780,-0.729799158,0.234966423,-0.0319890447,0.086802314,-0.0386966645,0.0288520782
92465.722804,-0.640386963,-0.0343066644,-0.046350163,0.115969251,-0.0545629776,0.0430840133
92465.732829,-0.85357912,-0.12533877,-0.020874361,0.115917857,-0.0597572095,0.0338755986
92465.742854,-0.719119066,-0.266048259,0.0711194476,0.079983021,-0.0400985508,0.0398772983
92465.752879,-0.655002056,-0.280119819,0.202490742,0.0221242466,-0.000245943412,0.0414155415
92465.762903,-0.558581956,-0.156760073,0.366782894,-0.0255505974,0.0224061058,0.0296020275
92465.772928,-0.459326924,-0.0395592694,0.363840411,-0.0503672632,0.000871252697,0.044940236
92465.782953,-0.468176366,0.130655788,0.0529232812,-0.0319954465,0.00247607347,0.0401721103
92465.792977,-0.339218891,0.201736463,-0.452897412,-0.00334649192,0.00669239033,0.0454888484
92465.803002,-0.463546259,0.207274899,-0.390779102,0.0100449472,-0.000734633396,0.0509344777
92465.813027,-0.401621425,0.113808187,0.0494681723,-0.000604501253,-0.00535575077,0.0506383358
92465.823052,-0.34208988,0.0246471539,0.251184923,0.0116681437,-0.0220508399,0.0503709531
92465.833076,-0.222931421,-0.13604195,0.13510589,0.019752168,-0.0197045962,0.0494971713
92465.843101,-0.0465901723,-0.14365385,0.118535863,0.00700255196,-0.0013628731,0.0431886753
92465.853126,-0.15527219,0.0234645018,-0.0191377464,-0.00813379054,0.0130946291,0.0393630443
92465.863151,-0.165900424,0.260080004,-0.189593682,-0.00653962194,0.0129939624,0.0468574455
92465.873175,0.0226997717,0.236692662,0.0115367933,0.0165995182,-0.00415466503,0.0506487219
92465.883200,0.0292466292,-0.0588654612,-0.0647251931,0.0184117992,0.000928510641,0.0521283737
92465.893225,-0.214932897,-0.248812571,-0.12093691,0.0239506428,-0.0152472622,0.0453261277
92465.903249,-0.220030366,-0.387639516,-0.381555347,0.0250918073,-0.0557981535,0.0496500386
92465.913274,-0.0958230902,-0.328442281,-0.918101433,0.0277267386,-0.0251371778,0.0511757611
92465.923299,-0.0118707274,-0.221256894,-0.474362225,0.00910085617,0.0425811456,0.0451687342
92465.933324,-0.0184947464,-0.0225080718,0.597026067,-0.0344625982,0.0169183956,0.0436158469
92465.943348,0.236177753,-0.00158134789,1.22042158,-0.0459373603,-0.053246311,0.042947392
92465.953373,0.400702271,0.152383727,-0.0142640029,0.0354736065,-0.011382484,0.0658521755
92465.963398,0.301575396,0.0381742326,-0.504088086,0.00895651328,0.0324784451,0.0504633663
92465.973422,-0.208100439,-0.0893579772,0.406556102,-0.0323421928,-0.0180321309,0.041964422
92465.983447,-0.102087475,0.047634555,-0.195775585,0.0156844565,-0.0262005786,0.0662934585
92465.993472,0.0439014652,-0.019900611,-0.176278858,0.0155339883,-0.0220130245,0.0539837992
92466.003497,0.191689299,-0.146251502,0.410773427,0.00309915692,0.010165152,0.0457940465
92466.013521,0.310417532,-0.0980104538,0.225539609,-0.000281992475,0.00232480596,0.0495592235
92466.023546,0.274297148,-0.00220622006,0.319642958,-0.00662990295,-0.00533737485,0.0507975919
92466.033571,0.166871705,0.188496622,-0.0923046895,0.0101690506,0.00183025691,0.0575902527
92466.043595,0.0830885571,0.18803295,-0.4979395,0.0031265874,0.00654991101,0.0560695855
92466.053620,0.0252992844,0.0117697897,-0.014600103,0.00848273645,0.00107897925,0.0489016874
92466.063645,0.236355558,0.0321437202,-0.0519890457,-0.00178960801,0.0108032458,0.0501182219
92466.073670,0.184465266,0.144593895,0.164199882,-0.0251441999,-0.00703966767,0.0303690164
92466.083694,0.352682117,0.301361643,-0.0784141113,-0.000499306419,-0.00431924835,0.0352449967
92466.093719,0.538928364,0.373160805,-0.314367478,0.00946331202,0.0233986665,0.0316827549
92466.103744,0.369142473,0.280458026,0.179579238,-0.0195723335,0.00892651537,0.0132789789
92466.113768,0.333812801,0.31246997,0.257333509,-0.0167808077,-0.00495228181,0.0144406492
92466.123793,0.316863931,0.322165544,-0.0493049212,-0.00436808038,0.000372708912,0.00861711523
92466.133818,0.313677885,0.247000267,-0.0611169395,0.00765555902,0.00888843266,0.0141884489
92466.143843,0.214987502,0.0753286176,0.0114713268,-0.00230492963,0.00371364448,0.0112906629
92466.153867,0.325632856,-0.00809003567,0.22931679,-0.0152241905,-0.00453815991,0.00475926047
92466.163892,0.413713473,0.0422121463,-0.0641359951,0.0138290328,0.00321217128,0.0119468654
92466.173917,0.350036718,-0.0941851598,-0.267007176,0.0138375544,0.0153780234,0.0118046524
92466.183941,0.0772696234,-0.261938924,0.0991630543,-0.00750102297,-0.0145282085,0.0126041342
92466.193966,0.327078817,-0.246764845,0.028964898,-3.56500797e-05,-0.00228778888,0.0188958524
92466.203991,0.375770549,-0.241923305,-0.102410488,0.00632025014,0.00408888412,0.0222160137
92466.214016,0.315061229,-0.331029995,-0.0781370479,0.0154588864,-0.00188565171,0.0266704178
92466.224040,0.223638882,-0.321237464,0.00525201393,0.0060749733,-0.00380898649,0.0328241838
92466.234065,0.286208078,-0.185045252,0.222356888,-0.0166428565,-0.000566321754,0.0240693083
92466.244090,0.250931963,-0.00811968189,-0.0205324157,0.00267225216,0.00385346045,0.0365225179
92466.254114,0.250251744,0.0779741454,-0.128993375,0.00516550374,0.00701729571,0.0407659961
92466.264139,0.119651689,-0.0175060075,0.189886697,-0.000202896595,-0.0159870899,0.0369736543
92466.274164,0.0882610735,-0.0805664757,-0.13242861,0.00666992311,-0.0121990099,0.0394844851
92466.284189,0.121073429,-0.0150580846,-0.0715220137,-0.00402932646,0.0138123509,0.0290720565
92466.294213,0.0809194968,0.0965769381,0.181063339,0.000914565785,0.00699918614,0.0283503412
92466.304238,0.125491355,0.0667730437,0.039820054,0.00874692193,-0.0160723097,0.0339136822
92466.314263,-0.0439851044,-0.0145118306,-0.0756896547,0.00147888952,-0.00429341579,0.0286832368
92466.324287,-0.0530844343,0.00439354353,-0.139594264,-0.0121469079,0.025223731,0.0260741366
92466.334312,-0.0623104775,-0.0113240857,0.0614935411,-0.00668582934,-0.00485214694,0.0289985528
92466.344337,-0.0417925879,-0.00570155136,-0.0486391507,0.00771441488,-0.00509502702,0.0375941722
92466.354362,-0.22362766,-0.0335953378,-0.179705325,0.0025140605,0.0150054478,0.0359438127
92466.364386,-0.255059247,-0.0882296855,0.0267951527,-0.00790236154,0.00657547721,0.0349248862
92466.374411,-0.24033282,-0.0564344895,0.170427963,-0.00248522553,-0.00991694732,0.0391297518
92466.384436,-0.237690508,0.0619821014,-0.0199122379,0.00169673612,-0.00924982419,0.0425806744
92466.394460,-0.202806753,0.0494987779,0.00387604941,-0.00245672962,-0.00747456178,0.0396719715
92466.404485,-0.0949369459,0.0308234862,-0.0212724204,-0.00424078162,1.2915835e-05,0.0402749097
92466.414510,-0.0618256349,0.160132003,0.00789229931,-0.00548767353,0.0024196146,0.036670587
92466.424535,-0.138811835,0.18070058,-0.0117119803,0.000989933181,-0.00376477801,0.0370735256
92466.434559,-0.120528045,0.0755907939,0.0376690134,-0.000371740997,-0.00761171393,0.0353837488
92466.444584,-0.0639091403,-0.0536373148,0.103489685,-0.00735960909,-0.0140970434,0.0308531774
92466.454609,0.00259742691,-0.0405432572,-0.227077902,-0.00282181226,-0.000646678361,0.034538432
92466.464633,0.0239740454,-0.0608269157,-0.204778391,0.00247681295,0.0032705652,0.0344758472
92466.474658,0.110492478,-0.14013817,0.206120623,-0.00209769871,-0.0120364866,0.0341163194
92466.484683,0.333968941,-0.0950151627,0.16105457,-0.0111258143,-0.0174741271,0.0324768787
92466.494708,0.421791602,0.18543939,-0.109514183,-0.00486285853,0.0185951934,0.0346516175
92466.504732,0.416441984,0.323098149,0.00481712965,-0.000504063178,0.0118584604,0.0339698447
92466.514757,0.316089549,0.260755108,0.2344939,-0.00779127059,-0.0167034092,0.0270925006
92466.524782,0.22808366,0.258522746,-0.0912841142,0.000576647612,-0.0053618053,0.0209914623
92466.534806,0.164629991,0.0765306138,-0.310942764,0.0041420878,0.0107423299,0.0157026919
92466.544831,-0.0612634162,-0.204001333,-0.00328375922,-0.00732974484,0.00314353234,0.0050913268
92466.554856,-0.0565924744,-0.310507523,0.17759011,-0.0139317215,-0.0105392571,-0.000164154896
92466.564880,0.0828019861,-0.387298155,0.10438868,-0.000966654244,-0.0175862472,-0.000596919076
92466.574905,0.0918251774,-0.337060617,-0.114239458,-0.00544049832,0.0108296824,-0.00452801117
92466.584930,-0.0453095807,-0.0476583317,-0.0460467961,-0.0326377648,0.025391315,-0.0156094245
92466.594955,0.120293083,0.168086634,0.264334327,-0.0491858507,-0.000188614687,0.0121052945
92466.604979,0.0322139546,0.229644424,-0.0708007137,-0.0130994833,-0.00613678489,0.00569027199
92466.615004,0.140322264,0.0349331683,-0.412387123,0.0318141942,-0.0128588705,0.0248218877
92466.625029,0.0585973822,-0.174063035,0.0750714001,0.038854259,-0.0233309521,0.0140768318
92466.635053,0.156231836,-0.267292432,0.189573393,-0.013125849,-0.0123914844,0.0224910891
92466.645078,0.0848387617,0.0748406149,-0.0258065567,-0.0192117049,0.0177152854,0.010716456
92466.655103,0.40485972,0.203086197,-0.0596509586,-0.00655982512,0.0131066841,0.0235318532
92466.665128,0.180033823,0.2281456,0.115430298,0.0149430697,-0.00782549484,0.0239781989
92466.675152,0.100632342,-0.0163425897,-0.0429897467,0.0203042802,-0.024304337,0.0339698447
92466.685177,0.0490518383,-0.170274292,-0.0513402264,0.0040813679,-0.00680337437,0.0248668967
92466.695202,0.135622581,-0.24726452,0.0451853804,0.00420307406,0.00367989312,0.0279252706
92466.705226,0.0618236873,-0.141961093,-0.00927160146,-0.00493795992,0.00649378905,0.0267681247
92466.715251,-0.0386195588,0.145870875,0.145565909,-0.0248781118,1.80466074e-05,0.0219635172
92466.725276,0.105649431,0.317357085,0.120939417,-0.0264310009,0.0045832376,0.0171503863
92466.735301,0.149367248,0.311623436,-0.316169559,0.011243673,0.000872654977,0.0247302754
92466.745325,0.152080288,-0.0646375966,-0.160323748,0.0367929739,-0.0158056571,0.0142270345
92466.755350,-0.00228970581,-0.236486484,0.107819239,0.0710055408,-0.0337678819,0.0161620872
92466.765375,0.0894893001,-0.358537048,0.145702687,0.0627500069,-0.0347929328,0.0130097037
92466.775399,-0.115964427,-0.323384924,0.143093381,0.000184630279,-0.00506539513,0.0221882882
92466.785424,-0.190010673,-0.0759770838,0.024680937,-0.0359488736,0.0294249383,0.0185570671
92466.795449,-0.061313064,0.0329891216,0.0525515252,-0.0564648035,0.0369787262,0.0340731768
92466.805473,-0.280875003,0.0925326312,0.216257986,-0.0522775139,0.00710258763,0.0316267973
92466.815498,-0.152521613,0.173251652,-0.120368754,-0.00571293998,-0.00248212889,0.0298432773
92466.825523,-0.214655943,0.198596028,-0.346444286,0.0176397869,0.0019469741,0.0381262405
92466.835548,-0.233887553,0.0485310837,0.0088427319,0.00573439189,0.0112507277,0.0347887678
92466.845572,-0.334430195,-0.0707805929,0.214308606,0.00828010767,-0.00752881971,0.0382540738
92466.855597,-0.338008346,-0.210447879,-0.0772912447,0.0239416258,-0.0206462192,0.0452539278
92466.865622,-0.419102502,-0.215787779,-0.167314045,0.0232550622,-0.00702947621,0.0372577859
92466.875646,-0.331196182,-0.169105047,-0.0478769342,-0.00715983528,0.00836093062,0.0321466467
92466.885671,-0.303380776,0.134012697,0.0852572785,-0.0217302564,0.0110057172,0.032428409
92466.895696,-0.244159229,0.250164412,0.0316133666,-0.0276057209,0.00437311353,0.0278802617
92466.905721,-0.285688997,0.422676604,-0.198873551,-0.00271635115,0.00517658973,0.0317437118
92466.915745,-0.0589414121,0.21566129,0.0109475952,0.0262401988,-0.0231352086,0.034486766
92466.925770,-0.103378118,-0.102133324,0.00908063231,0.0339804095,-0.0138330544,0.0266493475
92466.935795,-0.136218768,-0.188059576,-0.103806327,0.0294000403,-0.0186477817,0.0270560151
92466.945819,-0.0870067009,-0.218107509,0.136693451,-0.0040101149,-0.00657087993,0.0218820246
92466.955844,-0.213382854,-0.0380952248,0.0515210132,-0.0137202666,0.00655530803,0.0246767467
92466.965869,-0.193457471,-0.0580581269,-0.0895843246,0.0129883102,-0.00652667191,0.0411180398
92466.975894,-0.333530653,-0.291262414,0.122489569,0.0206835129,-0.0201527356,0.029815848
92466.985918,-0.414673835,-0.370710191,-0.0791529469,0.030692472,-0.0197183742,0.0459042704
92466.995943,-0.384336419,-0.30934195,0.000939411432,-0.00362422279,-0.00314978333,0.0363696208
92467.005968,-0.416557932,-0.147869057,0.0969541461,-0.0272909357,0.00268653398,0.0313990964
92467.015992,-0.25209141,0.0444126155,-0.0256510739,-0.0121628494,-0.00192792514,0.0447178325
92467.026017,-0.192974893,0.0710045256,0.0406173418,-0.00244284453,-0.00849022074,0.0350753246
92467.036042,-0.0226658421,0.116955289,0.0457044358,0.00259292676,0.00104043408,0.0308480887
92467.046066,-0.218678805,0.240468071,-0.101241445,-0.0100160754,0.0192077205,0.0298435455
92467.056091,-0.335438678,0.29361481,0.102947249,-0.0491208705,0.0189938684,0.0298137171
92467.066116,-0.334094899,0.201404162,0.21176652,-0.0224682177,-0.00145947524,0.022975252
92467.076141,-0.157198263,0.0649984718,-0.289916927,0.0473401574,-0.0060670102,0.0486918008
92467.086165,-0.493228755,-0.159030758,-0.094067023,0.0404665385,-0.00589789925,0.0217352836
92467.096190,-0.401514056,-0.274420238,0.322420606,-0.0051531434,-0.0222547679,0.0346755861
92467.106215,-0.2450256,-0.103397079,0.2185271,-0.0168763782,-0.00415113205,0.026087421
92467.116239,-0.147209241,0.0635591963,-0.415644079,0.00922313231,0.0119021357,0.0384213207
92467.126264,-0.206424651,0.0666005185,-0.163633311,-0.00126146615,0.00791005874,0.0352332508
92467.136289,-0.255644499,-0.00561036595,0.249502669,-0.00942165786,0.000391954344,0.0332052512
92467.146314,-0.0729809338,-0.117727163,-0.00820660258,-0.00373287973,-0.0305715549,0.0446219584
92467.156338,-0.0756628983,-0.26651878,-0.297615665,0.00137399804,0.00203911951,0.0491440064
92467.166363,-0.158727939,-0.234621165,-0.136312173,-0.0152699594,0.0318180517,0.0403696886
92467.176388,-0.250171128,-0.161420576,0.291460235,-0.0198687064,-0.0069240151,0.0339352256
92467.186412,-0.15605218,-0.116730334,0.296651958,0.0037740389,-0.0424364722,0.0390218636
92467.196437,0.0103221714,-0.161499815,-0.176927677,0.0115115875,0.00703174751,0.0451255618
92467.206462,-0.0488256078,-0.215190196,0.0232891904,-0.0130840373,-0.00016224941,0.032186593
92467.216487,0.0615174434,-0.121112092,-0.146122204,0.0068055153,-0.00762762279,0.0450850828
92467.226511,0.106622386,0.125460594,-0.226316854,-0.00487271239,0.0213552927,0.0444864026
92467.236536,0.0825053778,0.323607962,0.310063228,-0.065866557,0.0227526546,0.0537243774
92467.246561,0.0493461222,0.363373424,0.173949123,-0.0899306136,0.00053177031,0.0294741644
92467.256585,0.0524283884,0.431284821,-0.708708741,0.0287486305,0.0080626578,0.0498595974
92467.266610,0.0979109362,0.0229214079,-0.358703463,0.0684281317,-0.0134626078,0.0346156648
92467.276635,-0.12562924,-0.270587199,0.534090595,0.089697997,-0.0847487702,0.0435987739
92467.286659,0.333948849,-0.420884271,0.204643536,0.0873850462,-0.0598391621,0.037588018
92467.296684,0.159546349,-0.266995074,-0.149707662,0.0115099893,0.0171403074,0.0381478137
92467.306709,-0.0436441546,-0.131553973,0.268780201,-0.0576754744,0.0422400654,0.024947322
92467.316734,-0.0214096954,0.0158818098,0.579663428,-0.111256947,0.0445514255,0.0241078949
92467.326758,-0.158946696,0.203105267,0.208399674,-0.118009922,0.025868819,0.0151239867
92467.336783,-0.0212812193,0.305392652,-0.624825758,-0.0205904237,0.00838676365,0.0159847206
92467.346808,0.0524865072,0.155723703,-0.706032215,0.0384720964,0.0118129206,0.0344875632
92467.356832,-0.18274534,-0.0350109767,0.193856769,0.0381977921,8.11635025e-05,0.00610758925
92467.366857,-0.0657195964,-0.284668313,0.407034241,0.0393991423,-0.0567706703,0.0193789201
92467.376882,-0.0274439614,-0.322319414,-0.0922047362,0.0441499566,-0.0427312843,0.0207147626
92467.386906,0.0863028703,-0.261041299,-0.372996193,0.010402114,0.020925193,0.0235193363
92467.396931,-0.0415468763,-0.185515591,0.164625414,-0.0312606442,0.0326963634,0.0136129102
92467.406956,0.00151087378,-0.145444149,0.306678262,-0.0397990058,-0.00476472462,0.0236088177
92467.416981,0.0285082502,0.136400835,0.0870903392,-0.00882830572,0.0152561207,0.0161138838
92467.427005,0.18494494,0.191939145,0.00178053843,-0.0124802981,0.0192330209,0.0167032415
92467.437030,-0.121726187,0.270159591,0.0149194215,-0.0203802987,0.0166316451,0.020669221
92467.447055,-0.186542267,0.223932056,-0.0189571292,-0.0148750125,0.00208306163,0.00925251564
92467.457079,-0.125292985,0.385934325,-0.10605849,0.00337779025,0.00651603183,0.0159050292
92467.467104,0.0329804455,0.305224894,0.0268343157,-0.000174600265,-0.0135207932,0.012252504
92467.477129,-0.008517097,0.168487305,-0.165438315,0.0136879514,0.0146072478,0.017829164
92467.487154,-0.152925481,-0.0571605935,-0.133847829,-0.00186251171,0.00631922427,0.00715441445
92467.497178,-0.237244189,-0.14392326,0.177381435,-0.00882028704,-0.00391104268,0.00438233001
92467.507203,-0.14668424,-0.236388138,0.0314678207,0.00326753539,-0.0289396971,0.00970199427
92467.517228,-0.0679801481,-0.267525601,-0.305007529,0.0515522425,-0.0134805786,0.0111949621
92467.527252,0.0411822968,-0.347170873,-0.235997121,0.0673919273,-0.00546925804,0.0277433126
92467.537277,0.00808673134,-0.396579851,0.400539618,0.0226905019,-0.0334202006,0.0300581334
92467.547302,-0.0679096995,-0.241956495,0.350978592,-0.0363403271,0.00726677701,0.0175777609
92467.557326,0.0164476092,0.0397431441,0.00384974592,-0.0604051846,0.0266569861,0.0351724653
92467.567351,0.0184642279,0.20362898,-0.0109953565,-0.0714804727,0.0407517672,0.0151630724
92467.577376,-0.026638472,0.231008716,-0.120843386,-0.0476792688,0.0217455839,0.0141129876
92467.587401,-0.00285988408,0.277513862,-0.262910262,0.00424198612,-0.00584769352,0.016207031
92467.597425,0.0748964463,0.0876435987,-0.186094149,0.0283840736,-0.0189903929,0.0178616541
92467.607450,-0.0442273476,-0.0133982068,0.0113205202,-0.00273096873,0.00610776935,0.00435756289
92467.617475,0.0307143774,0.0419349551,0.121273179,-0.0135620451,-0.00109448363,0.00327392251
92467.627499,0.234088106,0.186257994,0.0237088771,0.0167228905,-0.0106925155,0.0162602952
92467.637524,0.239476722,0.14301976,0.0110376116,0.0107712577,-0.000546138829,0.0156600187
92467.647549,0.0996282524,0.00408234042,0.137183281,-0.00412726411,-0.00184336454,0.0070801126
92467.657574,0.207995871,0.109358149,0.0307880217,0.00554453806,-0.00180847696,0.0109840399
92467.667598,0.331484796,0.170069131,-0.0598648936,0.0133135113,0.00749314567,0.0126881972
92467.677623,0.145318374,0.123944143,0.0829244517,0.00565559222,0.0142562435,0.00723723883
92467.687648,0.0615783616,0.0785940308,0.0706646896,-0.00137062589,-0.00428814637,0.00749769623
92467.697672,0.0677308015,0.0323492345,0.0645248716,0.00224754462,-0.0102498989,0.00187123569
92467.707697,0.164517215,0.070962988,-0.107254421,-0.000465683782,0.0103712239,0.00264115541
92467.717722,0.199947424,0.0289026925,-0.095589118,-0.00134905425,-0.00374379624,0.00106855856
92467.727746,0.168947671,-0.0765186799,-0.179682529,0.00586278588,-0.004986161,0.00570006205
92467.737771,0.0664858704,-0.107108062,-0.234428849,0.000159093851,0.00735146543,0.00289602021
92467.747796,0.0552059085,-0.0864742567,0.175977414,-0.0268309778,-0.0101132794,-0.00643170157
92467.757821,0.2516731,0.138876559,0.00996559845,-0.00883466759,-0.0124280985,-0.000603905858
92467.767845,0.313351539,0.222271904,-0.274627588,0.0114644784,0.00670431731,0.00556796978
92467.777870,0.135845731,0.105564273,0.208117935,-0.00684288898,0.0149752972,-0.00832946969
92467.787895,0.0520465723,0.0487061845,0.443915234,-0.00597336711,-0.0206293027,-0.0101100597
92467.797919,0.033520635,0.0699886996,7.256547e-05,0.00578901629,-0.0257084846,-0.00122096108
92467.807944,-0.0351947674,0.0957424418,-0.192778742,0.00452401481,0.0187159729,-0.00719895771
92467.817969,-0.224825583,0.179453612,0.118307315,-0.016469949,0.02456241,-0.0184220532
92467.827993,-0.0907093731,0.291987063,0.362605316,-0.0239015008,-0.0166478782,-0.0171210961
92467.838018,-0.149604758,0.432653954,-0.018111326,0.00449658456,-0.00103722569,-0.0278885262
92467.848043,-0.048061012,0.492258492,-0.332461938,0.00893953527,0.0178917245,-0.0316840606
92467.858068,-0.152493629,0.393958167,0.0944401174,-0.0191320452,-0.0034910623,-0.0464329133
92467.868092,-0.133546672,0.448303651,-0.0791850956,-0.00782586177,0.00582946874,-0.0439495155
92467.878117,-0.169505591,0.53948702,-0.149365132,-0.00428066178,0.00922712953,-0.0562927322
92467.888142,-0.269656347,0.527033489,0.0598200549,0.0062838317,0.00554131521,-0.0689382227
92467.898166,-0.318354346,0.335492022,0.0501210832,0.0139015372,-0.0111828047,-0.075617698
92467.908191,-0.31645675,0.123645544,0.18691148,-0.000761294648,0.00461080661,-0.08300211
92467.918216,-0.506801171,0.194789749,0.271139331,-0.0136446032,0.011577635,-0.0986921238
92467.928241,-0.337579015,0.556465372,0.23458567,-0.0204151562,0.0227503953,-0.0970175313
92467.938265,-0.346243456,0.610057079,0.258307322,-0.0274887784,0.0108346147,-0.119940688
92467.948290,-0.30841309,0.578514195,-0.377513962,0.0234007676,0.00889130579,-0.107102384
92467.958315,-0.428342734,0.336371728,-0.405260047,0.0222428245,0.00284353262,-0.105263737
92467.968339,-0.677429723,0.219681723,0.0741747435,-0.0221920173,0.0222518508,-0.116387491
92467.978364,-0.497141983,0.410519389,0.280012373,-0.0189514822,0.0173620217,-0.116732647
92467.988389,-0.274063368,0.496543914,0.295074918,-0.0167032435,-0.00566180479,-0.121207287
92467.998413,-0.293722356,0.373411565,-0.0608124036,-0.00515551035,-0.0230112347,-0.131691349
92468.008438,-0.428480863,0.0452749497,-0.796231542,0.046363606,-0.0100994307,-0.129769874
92468.018463,-0.523493983,-0.138962678,-0.727609256,0.110719959,-0.0034676265,-0.134718296
92468.028488,-0.163122192,-0.424061148,0.218009214,0.144085373,-0.0768744676,-0.112197016
92468.038512,0.0151273295,-0.627412075,0.333439428,0.156060005,-0.118431228,-0.0924810963
92468.048537,0.151659158,-0.667120328,-0.353512324,0.134232472,-0.0319786287,-0.0704157473
92468.058562,0.10717274,-0.72990492,0.175835375,0.0440623713,0.00998639771,-0.0619002851
92468.068586,-0.119005238,-0.704459148,0.932189165,-0.0958984616,0.00554078249,-0.0666833268
92468.078611,0.00579776645,-0.386207401,0.586319964,-0.193361645,0.0471374922,-0.0713691534
92468.088636,0.235738284,0.00219585082,-0.190491507,-0.190125634,0.10248251,-0.0828029038
92468.098661,0.192518078,0.192903278,-0.429697738,-0.113090498,0.0948357702,-0.0786196114
92468.108685,0.00669423123,0.252098705,-0.0550420035,-0.0315133492,0.018631284,-0.0812074067
92468.118710,0.202125609,0.243666373,0.19157012,0.03308349,-0.0416416443,-0.0612363638
92468.128735,0.24677751,0.0592679836,-0.149379745,0.0276730106,-0.0120749633,-0.072624308
92468.138759,0.311003259,-0.0100207297,-0.401284129,0.0244093062,0.0280703259,-0.0616012113
92468.148784,0.339473896,-0.12038997,0.0840438111,0.00212477302,0.025506501,-0.0626116143
92468.158809,0.1676527,-0.0767589731,0.101563101,0.00171065147,0.0122966886,-0.0639591785
92468.168834,0.120759623,-0.0694220727,-0.101780374,0.00343824402,-0.000341075335,-0.067812507
92468.178858,0.0940702347,0.211087315,-0.078727415,-0.00738830454,0.0348142468,-0.0812308388
92468.188883,0.127277115,0.440598484,0.090450171,-0.0447718958,0.0201274482,-0.0781050892
92468.198908,0.128756312,0.465227533,0.056964081,-0.0256495989,0.00101953369,-0.0828945162
92468.208932,0.135334804,0.316345789,-0.469874266,0.048806793,-0.00132245021,-0.0628734054
92468.218957,-0.0789591908,-0.0658000462,-0.119520613,0.0951537815,-0.0138656731,-0.0968074025
92468.228982,-0.0648240495,-0.36761438,0.329980812,0.107953201,-0.058962579,-0.0705369161
92468.239006,-0.237947825,-0.326586095,0.282909264,0.0590802011,-0.040707673,-0.0852727191
92468.249031,-0.225355817,-0.245549624,0.0276795343,-0.014722651,0.0347266317,-0.0897590862
92468.259056,-0.219856489,0.00928619268,0.172153472,-0.0629759329,0.0551155255,-0.0687683122
92468.269081,-0.290571107,-0.0470549042,0.420643079,-0.0878096419,0.015711394,-0.0826633544
92468.279105,-0.432354344,0.101570015,-0.170165928,-0.0388841788,0.00434662113,-0.0774323763
92468.289130,-0.157689115,0.304670183,-0.484117311,0.0112506271,0.0222204261,-0.0658289837
92468.299155,-0.171744858,0.128542705,0.149623075,-0.00526523273,0.0142607697,-0.073338029
92468.309179,-0.419740983,-0.0339869675,0.187147043,-0.00679655009,-0.0251617367,-0.0716394679
92468.319204,-0.424781351,-0.235752635,-0.436792665,0.0494070676,-0.0155876736,-0.074700241
92468.329229,-0.416865719,-0.325421179,-0.405757475,0.0970174623,-0.0323823645,-0.0661839815
92468.339254,-0.166212504,-0.512141582,-0.0507352462,0.0748162893,-0.0466212212,-0.0600925358
92468.349278,-0.190748157,-0.423631889,0.316578309,0.0157463093,-0.0201930768,-0.0557401301
92468.359303,-0.177440073,-0.3804054,0.0437632386,-0.0333112488,0.0311151174,-0.0624757977
92468.369328,-0.289645188,-0.329235367,0.110098874,-0.0532407473,0.0175905199,-0.0459953556
92468.379352,-0.227684662,-0.2390449,0.264247818,-0.0398980427,0.00336870821,-0.0474883253
92468.389377,0.0919555167,-0.154581724,0.0168232093,-0.0149628679,0.00481746802,-0.0374801652
92468.399402,0.121354913,-0.030772572,-0.118320005,-0.00163134929,0.0205801846,-0.0385566139
92468.409427,-0.0334550247,0.102391378,0.0745652041,-0.0160728722,0.0370795325,-0.0343727888
92468.419451,-0.20913559,-0.00981284087,0.27829914,-0.0408573161,-0.00273845308,-0.0375312986
92468.429476,-0.197283989,-0.028742564,-0.133903943,-0.0214271574,-0.0224530353,-0.0313418442
92468.439501,-0.156273166,0.231790715,-0.643282621,0.00754936636,0.026794671,-0.026812342
92468.449525,-0.11599674,0.308385185,0.0915864816,-0.0288677636,0.0302607761,-0.0419686558
92468.459550,0.12059118,0.225914699,0.636264437,-0.0731886896,0.013067997,-0.0452296035
92468.469575,0.0127278945,0.308793474,-0.0236537626,-0.0215393445,0.00622900007,-0.0503063882
92468.479600,-0.0423158377,0.166659706,-0.558695874,0.0468445075,0.0211307191,-0.0296144234
92468.489624,-0.360956274,-0.16583304,0.222863084,0.0498149981,-0.0229864094,-0.054077954
92468.499649,-0.2147803,-0.270136131,0.43002524,-0.00479818097,-0.0298411186,-0.0430713789
92468.509674,-0.18042804,-0.0591766643,-0.260324922,-0.0300380244,-0.000390286653,-0.047951621
92468.519698,0.0702689417,0.066107182,-0.734089266,0.018441894,0.0370335177,-0.0220784778
92468.529723,-0.0999826759,0.104276735,0.0561878359,-0.00833326121,0.0320581988,-0.0315931523
92468.539748,-0.124717532,0.0267392126,0.54135854,-0.0367068472,-0.0542465962,-0.0380358742
92468.549773,0.0306842426,0.0771245063,-0.390173537,0.019604097,-0.00948657943,-0.0269033285
92468.559797,0.0989593767,0.0120405512,-0.430193998,0.0147198596,0.0514143192,-0.0376529107
92468.569822,-0.107989767,-0.137425934,0.746396544,-0.0318689468,0.00181294642,-0.0456666285
92468.579847,0.0533958543,0.00869980762,0.546557862,-0.0104012062,-0.0287417668,-0.0321468236
92468.589871,0.0273212233,0.138856923,-0.357237482,0.0187026178,-0.0131835799,-0.0251435088
92468.599896,-0.0605774523,0.0243579435,-0.42183475,-0.0026332972,0.0414676786,-0.0371485064
92468.609921,-0.0207808023,0.0374752723,0.134496818,-0.0219787667,0.0392428757,-0.0468637207
92468.619946,0.0636039857,0.139199251,0.412150561,-0.0316052931,-0.0171231936,-0.0339324744
92468.629970,-0.294295772,0.366819254,-0.109124307,-0.00909705562,-0.00252054921,-0.0548777068
92468.639995,0.0086300901,0.378454089,-0.542267887,0.0261759804,0.0199754395,-0.0429720403
92468.650020,0.293818717,0.150268653,0.467061132,-0.00856042941,0.00666575869,-0.053694197
92468.660045,0.326077494,0.094368103,0.341332227,-0.0017600469,-0.0266075089,-0.0464506643
92468.670069,0.147516779,0.0116260521,-0.708773623,0.0263224532,0.0112852779,-0.0366512956
92468.680094,0.0227201021,-0.122546399,-0.216069016,0.0347095457,-0.00457011825,-0.0485516311
92468.690119,0.370285981,-0.310092915,0.175479401,0.0243820743,0.0122722452,-0.0393994124
92468.700143,0.15459565,-0.20623775,0.376308848,-0.0151064788,0.000635030234,-0.0400556149
92468.710168,0.28227346,-0.223656229,0.313874311,-0.00504771908,-0.017093367,-0.0387788946
92468.720193,0.364865928,-0.163085367,-0.2451671,0.00586937685,0.00495121525,-0.0338911945
92468.730218,0.329864319,-0.120129255,-0.252357889,-0.0160883862,0.0190481272,-0.0458501214
92468.740242,0.346444063,0.0681465423,0.00527364124,-0.0114414367,-0.00014048219,-0.0366739305
92468.750267,0.544127321,0.161874573,-0.14496602,0.0160490432,0.00337062929,-0.0352384867
92468.760292,0.774534123,-0.0542416191,0.162743838,0.0115355178,0.00938218264,-0.0306072505
92468.770316,0.765655162,-0.22680534,0.247922706,0.00727206414,0.000701342963,-0.0320759835
92468.780341,0.579090972,-0.0649659152,-0.000925213396,-0.0046043029,0.00423296066,-0.0314165847
92468.790366,0.53538291,0.0650596457,-0.0766465171,0.00182137211,-0.000331963508,-0.0296889925
92468.800391,0.633281047,0.0880803097,-0.143049957,0.0214432766,0.00864102496,-0.021204696
92468.810415,0.541682302,-0.0961873483,-0.110670367,0.00945825214,0.00739706252,-0.023534962
92468.820440,0.469702925,-0.189911451,0.101522185,0.000110291151,-0.00968258744,-0.0286959009
92468.830465,0.493010808,-0.110263384,-0.135043761,0.0145544772,-0.00307821539,-0.0229256311
92468.840490,0.435648716,-0.132889076,-0.207571822,0.013406122,0.0209911679,-0.0213011028
92468.850514,0.30619922,-0.189416507,0.248219059,-0.00811887634,-0.00263373377,-0.0252223396
92468.860539,0.482072248,-0.111238093,0.0237801888,0.0151259917,-0.00881200014,-0.0116684492
92468.870564,0.453983159,-0.0939493966,-0.134355779,0.00586405062,5.99168445e-06,-0.0106657687
92468.880589,0.263183158,-0.0535104735,0.0296546338,-0.00197656193,0.0136424423,-0.0105214249
92468.890613,0.252327582,0.062480041,-0.0403582291,0.00727446089,0.0101891206,-0.00588832421
92468.900638,0.191746984,0.124314219,0.212840287,0.00327519179,-0.0248727269,-0.0108979959
92468.910663,0.298288483,0.14578895,0.0154782244,0.00929926141,-0.0018805916,-0.00272635275
92468.920687,0.27351966,0.0653903937,-0.142355545,0.0126037122,0.00673207119,-0.00123391764
92468.930712,0.0943705511,-0.089342944,0.0104484135,0.00270847106,0.0091720595,0.000708592145
92468.940737,0.011587095,-0.206555328,0.0955957172,-0.00198934503,-0.00950016184,0.00140048146
92468.950762,-0.0215046711,-0.183960434,-0.0254716256,-0.000135252293,0.00110587724,0.00429933241
92468.960786,-0.0259834696,-0.0890459155,-0.154600694,0.000315887187,0.0184004464,0.00493636078
92468.970811,0.0528276031,-0.0199908648,0.159192868,-0.00279841324,0.0156230339,-0.00232634598
92468.980836,0.11683749,-0.0212019942,0.34190915,0.0124833369,-0.0112629077,-0.00112765746
92468.990861,0.010973121,-0.0622340791,-0.0855657366,0.0168320135,0.00286169923,0.00141086804
92469.000885,-0.167193396,-0.0874746111,-0.144638103,0.00491889465,0.0210066148,-0.00611043161
92469.010910,-0.213428739,-0.0618036701,0.0684528587,-0.00203754831,0.0106288091,-0.000569990815
92469.020935,-0.0704565801,0.0157260165,-0.0163951697,0.00191458283,-0.00506866174,0.00148011001
92469.030960,0.0013668622,0.0118757708,-0.17664886,0.00295001982,-0.00529636219,-0.00124483647
92469.040984,-0.0418847483,0.0057843951,-0.372368416,0.00270873742,0.0174369131,-0.000220584662
92469.051009,-0.185797915,-0.0790659349,-0.0573730768,-0.000623676021,0.0130056803,-0.000530842671
92469.061034,-0.228668851,-0.192504792,0.317764889,-0.00304528823,-0.00250350507,0.00320530592
92469.071058,-0.234714834,-0.184592339,0.235611506,0.00189274494,-0.0121934163,0.00359173075
92469.081083,-0.273550999,-0.200518715,-0.0578237432,0.00420543403,-0.00224890663,0.00804932976
92469.091108,-0.364836951,-0.204916859,-0.200569834,-0.00176430793,0.00868949471,0.0101383133
92469.101133,-0.369764836,-0.121871295,0.0231354611,-0.00016108497,-0.000946887399,0.0131207872
92469.111157,-0.311603556,-0.0761875665,-0.0358001274,0.0173180391,-0.00455014417,0.0242171129
92469.121182,-0.385506485,-0.184158569,-0.0320083339,0.0174056579,-0.00260124319,0.0271045147
92469.131207,-0.482495216,-0.301617073,0.123494947,0.00281047021,0.00554057294,0.0257268613
92469.141232,-0.481065731,-0.227252317,0.138758567,-0.000310488305,-0.00274132528,0.0238866164
92469.151256,-0.424700468,-0.12035373,-0.0514144607,0.0144149278,-0.0117313574,0.0328406943
92469.161281,-0.507580631,-0.0786035233,-0.199817554,0.00722572478,0.0102274706,0.0366141303
92469.171306,-0.694298805,0.018322006,0.082692981,-0.0150492211,0.0211174031,0.0315703666
92469.181331,-0.681129673,0.0748330161,0.224965609,-0.00277923848,-0.0098130825,0.0400709128
92469.191355,-0.573533624,-0.0642555202,-0.0689232293,0.0190347125,-0.0372937127,0.0531877792
92469.201380,-0.501371108,-0.232892807,-0.448917403,0.0383484912,0.00227713529,0.0447426317
92469.211405,-0.546078521,-0.249975843,-0.117627931,0.0462522199,0.00855234163,0.0403502798
92469.221430,-0.551770778,-0.357990374,0.500012969,0.0239887265,-0.0199975438,0.0383792734
92469.231454,-0.541893235,-0.189899487,0.383729353,-0.013756523,-0.00450939788,0.0260674795
92469.241479,-0.482432051,0.109892657,-0.253473741,-0.0290595787,0.0325799146,0.0405667937
92469.251504,-0.566617634,0.1064604,-0.165846311,-0.0422954905,0.0164547403,0.0328103369
92469.261529,-0.659074932,0.0716342018,-0.0794013687,0.00663503577,-0.004580238,0.0368753849
92469.271553,-0.483813678,-0.0833359952,-0.0851811212,0.0419000824,-0.015201456,0.0385129629
92469.281578,-0.939284935,-0.38721603,-0.0166728176,0.104085694,-0.0736674323,0.0498460448
92469.291603,-1.61187023,-0.642354866,-0.467339779,0.183709945,-0.0488339878,0.0413604146
92469.301628,-0.4310083,-0.502817435,0.76801684,0.166216175,0.00504362713,0.0430624401
92469.311652,-1.34868429,-0.68363351,0.499434292,-0.0432758006,-0.059849619,0.0396421431
92469.321677,-0.793218175,-0.380573084,0.742812256,-0.189229284,-0.0115396111,0.0283141202
92469.331702,0.0541020846,0.235261296,-0.0549391277,-0.314070542,0.171043788,0.0274491264
92469.341727,-0.255733091,0.531534088,-1.03874909,-0.217825775,0.175355975,0.0336263282
92469.351751,-0.161339464,0.293552285,0.420625544,-0.104352196,0.0229176999,0.0273854761
92469.361776,-0.364233798,0.539541709,-0.146323864,0.0158801981,-0.0935167699,0.0313993944
92469.371801,0.121738624,0.478503924,-0.56116431,0.0510501702,-0.0281907591,0.0254411018
92469.381826,0.139427197,0.401936964,-0.305112743,0.0586564233,0.0216745351,0.0281934804
92469.391850,-0.0783557998,0.106841617,0.525457791,-0.00341759817,-0.0142983786,0.0121042589
92469.401875,0.0130444907,0.259275154,0.62669406,-0.037637354,-0.0295806612,0.00834494086
92469.411900,0.373616184,0.22884615,-0.297143956,0.0529029322,-0.0222774754,0.0315807527
92469.421925,-0.0801828462,0.0534398985,-0.847567761,0.112679715,0.00014580765,0.0117018549
92469.431949,-0.139568882,-0.154685678,0.0253811942,0.0831284848,-0.0577068395,0.0164470757
92469.441974,0.0786218691,-0.18816585,0.529997188,0.0531239723,-0.0282291072,0.0174188642
92469.451999,0.170108952,-0.00488188728,0.255752377,-0.0293679732,0.0482020163,0.00297201287
92469.462024,-0.215585314,0.0534107637,0.72352771,-0.0780453357,-0.00608002497,0.017864014
92469.472048,-0.326147155,0.267160957,-0.0284328135,-0.040399694,-0.00629414302,-0.000208463499
92469.482073,0.223815536,0.391970244,-0.640776192,0.0249947597,-0.011004475,0.0313627785
92469.492098,0.171690632,-0.0996894381,-0.357699839,0.0550373484,-0.0104127211,0.0126687186
92469.502123,-0.133940174,0.00618426287,-0.381210479,0.0216879127,0.0416094669,0.00742868336
92469.512148,0.0402762194,-0.0722663562,0.740324531,-0.0226172331,-0.0331380061,-0.0114517966
92469.522172,0.216447308,0.0307715916,0.344347191,0.00705064825,-0.0288292795,0.00766650357
92469.532197,0.135064865,0.190123036,-0.901946417,0.0135839143,0.0249828183,0.0151217571
92469.542222,-0.0133662381,-0.082313502,0.190107062,-0.0257757428,0.0409402148,0.00217559796
92469.552247,0.131353379,0.00660939295,0.573141918,0.000294740838,-0.00201497562,0.00581747109
92469.562271,0.0132967713,0.0865264496,-0.0186572694,0.0122557961,-0.0390938996,0.0129688569
92469.572296,-0.213864318,-0.21649231,-0.48532318,0.0303671555,-0.0206158246,0.00475220617
92469.582321,0.0380915414,-0.171120789,-0.507845977,0.0146837997,0.0299046067,0.00984789899
92469.592346,0.297812025,0.103959815,0.396369639,-0.0449552956,0.0286140394,-0.00859395878
92469.602370,0.440264905,0.209788617,0.498583813,-0.050865383,-0.00241711326,0.00554929024
92469.612395,0.18565422,0.293735258,-0.287222866,0.010525274,-0.00153667198,0.0116300862
92469.622420,0.0743676183,0.0587641988,-0.356878001,0.0343906608,0.00882781846,0.00924096445
92469.632445,0.00996459011,-0.149723507,0.20646023,0.038845594,-0.0154855103,0.00795226081
92469.642470,0.262623789,-0.383064828,0.266849525,0.026112222,-0.0461459487,0.0165619934
92469.652494,-0.0529485375,-0.248295927,-0.212558962,-0.00509496414,0.0115969739,0.0238683773
92469.662519,-0.0462888673,-0.0667063474,0.0544968141,-0.0346691023,0.0437818103,0.00946706629
92469.672544,0.34576631,0.0521677232,0.717877721,-0.0530494424,0.0100307687,0.0196699044
92469.682569,0.315758199,0.240174111,0.29833012,-0.0205700613,0.0176468761,0.00935175179
92469.692593,0.0203580469,0.158343695,-0.290486252,0.0126486122,0.00636386163,0.0251181973
92469.702618,-0.0686596593,-0.133158266,-0.00959016589,0.0011570724,0.00826402744,0.0153941978
92469.712643,-0.0647503176,-0.233646347,0.0168471747,-0.0312983385,-0.00553700617,0.0197442053
92469.722668,-0.0513460045,-0.051106408,-0.600783788,-0.020064327,0.0162383308,0.0194238266
92469.732692,-0.150355713,0.0788761905,-0.497421029,-0.0137739406,0.0176354245,0.0101451073
92469.742717,-0.00706783662,0.0905731859,0.159760439,-0.0134200063,0.0176005372,0.00334099729
92469.752742,0.210198897,0.0665336455,0.604139114,-0.0149957986,-0.00428185854,-0.000181299613
92469.762767,0.0881031156,-0.0881166719,0.167312461,-0.00492665273,-0.0272431011,0.0112082409
92469.772792,-0.0876747364,-0.218183606,-0.637561321,0.0150955244,0.00182423743,0.0187713532
92469.782816,-0.276832559,-0.242185627,-0.458862458,0.00635503038,0.038369202,0.0133126714
92469.792841,-0.213652118,-0.148409794,0.398998818,-0.0182869333,0.00871383482,0.00790858457
92469.802866,0.215835277,0.21186314,0.808592011,-0.0600429001,-0.00252070986,0.0128056053
92469.812891,0.157387984,0.525079725,0.0449696918,-0.053138123,0.0229790573,3.36179719e-05
92469.822916,-0.195607178,0.557347817,-0.796359552,0.014793788,0.0410022669,0.0224739453
92469.832940,-0.20149377,0.0959400285,0.00801680247,0.0270009198,-0.027038836,0.0246936893
92469.842965,-0.152592358,-0.168101606,0.216445618,0.0677081374,-0.0456860206,0.0127771097
92469.852990,-0.0434182369,-0.175757327,-0.149697725,0.0435988036,-0.0224510088,0.0163321635
92469.863015,-0.164744706,-0.0339362967,0.179526046,-0.0310826237,0.0134963402,-0.00359627137
92469.873039,-0.19378674,0.136359206,0.234780316,-0.0415712158,0.00255447617,0.00766810125
92469.883064,0.13746861,0.156769742,-0.220908858,0.0126696508,-0.0158831208,0.00903243853
92469.893089,0.178608795,-0.10316148,-0.317655998,0.0314657082,0.00136564104,0.0131424954
92469.903114,-0.0777130951,-0.170472884,0.0188304574,0.0336782624,0.0129455988,0.0108820042
92469.913139,-0.00510656475,-0.237763738,0.351810366,-0.006325611,-0.0043367195,0.00691735653
92469.923163,0.256008133,-0.0285452696,0.32348502,-0.0103664259,-0.0242419849,-0.00108517611
92469.933188,0.368895111,0.244610029,-0.616501582,0.0312816863,0.0358919286,0.0174360434
92469.943213,-0.0494029259,0.14362432,-0.255234321,-0.0150503936,0.0270598185,0.00387229773
92469.953238,0.0918554082,0.0167156851,0.680971009,-0.0270255628,-0.0268060762,0.013454618
92469.963263,0.428834652,0.0803374587,-0.274022024,0.0320095261,-0.0168370652,0.026594122
92469.973287,0.255805761,0.00268873064,-0.594450494,0.0290888389,0.0368312233,0.0087272404
92469.983312,0.128471586,-0.190690345,0.362969474,-0.00992833552,-0.0012309409,0.00296415996
92469.993337,0.237311927,0.0243595326,0.365606836,-0.0211623489,-0.0252175006,-0.00433875991
92470.003362,0.209953508,0.361757185,-0.382740757,0.0120824239,0.0201869988,0.00576846862
92470.013387,0.191145913,0.231550294,-0.0799929049,0.00315044835,0.015252428,0.0109035755
92470.023411,-0.0377312681,0.116573213,0.583767941,-0.0238436191,-0.0240941784,0.00408668259
92470.033436,0.0814588644,0.120238421,-0.0637361821,0.0142864565,-0.0445344701,0.0121866865
92470.043461,0.2828816,-0.0923694887,-0.51513438,0.0224479799,0.0174860199,0.00708620066
92470.053486,0.432576907,-0.113239477,0.196585318,0.00253046458,0.0283951283,-0.0055531617
92470.063511,0.334780806,0.0442468488,0.394550607,-0.00291916201,0.00481203794,-0.00582267342
92470.073535,0.30961765,0.0625791175,0.120132777,0.0116382091,-0.0324618286,-0.00509616358
92470.083560,0.424688711,0.270572318,-0.158911543,0.0100291268,0.0340311759,-0.00488284414
92470.093585,0.129058245,0.347547786,-0.257817908,-0.0196653857,0.0328980022,-0.00671563202
92470.103610,-0.0289418148,0.282282885,0.186210054,-0.0422210294,0.00485757775,-0.0033336831
92470.113636,-0.0927975136,0.308032572,-0.000165334939,-0.00741670801,-0.00656365473,-0.00634891445
92470.123660,-0.011529579,0.224059902,-0.348484267,0.0246123307,-0.00119152617,0.00342675114
92470.133685,-0.241798363,-0.028281431,0.0826830441,0.0172002212,-0.0212288844,-0.0219001779
92470.143710,-0.059333745,-0.0358778227,0.0387024481,-0.00511147603,-0.0118604154,-0.0274062631
92470.153735,-0.0725220019,0.239142083,0.0184674693,-0.0189095802,0.0227867764,-0.0371078895
92470.163760,0.0516720673,0.426759416,0.277089179,-0.0569850589,0.0253679127,-0.0381649034
92470.173784,0.0147452074,0.60976774,0.311597014,-0.0835599425,0.0236709462,-0.0531907202
92470.183809,0.104536958,0.694654712,-0.14169562,-0.0357964198,0.00727599431,-0.0529907169
92470.193834,0.161186152,0.589880114,-0.445007536,0.0281519377,-0.00708270502,-0.0450491728
92470.203859,0.0664236736,0.222704852,-0.000634121495,0.0392666412,-0.00553567484,-0.071004075
92470.213884,-0.0240121216,0.00865081738,0.134750501,0.0354854864,-0.0257836889,-0.0676040174
92470.223909,0.123237649,-0.0524972961,0.0603186521,0.0273218312,-0.02099719,-0.0753245251
92470.233933,-0.016743617,-0.0605232018,-0.190408505,0.0202029356,0.00917695919,-0.0600518258
92470.243958,-0.143285418,-0.00831509486,-0.236752323,0.00703040781,0.0233345897,-0.0551212476
92470.253983,-0.162909827,-0.152243308,0.257813986,0.0085076633,-0.0174562513,-0.0491813319
92470.264008,-0.121695856,-0.157139172,0.192918027,0.0268696257,-0.00689255502,-0.0406485619
92470.274033,-0.240738625,-0.0859874047,0.0637006958,0.0139399794,-0.00553620709,-0.0407050224
92470.284057,-0.350878532,-0.105485338,0.140624945,0.000817519295,-0.0105855606,-0.0356386276
92470.294082,-0.391563995,-0.148978224,-0.135440067,0.0111391329,-0.0319355904,-0.0241430914
92470.304107,-0.185723589,-0.241026667,-0.385715973,0.0408986275,-0.0140183755,-0.0244978247
92470.314132,0.109358021,-0.274683346,-0.0445328845,0.0670508695,-0.0135318154,-0.01676933
92470.324157,0.125541569,-0.296666191,0.417089186,0.0397686464,-0.00781480698,-0.0266291527
92470.334182,-0.233673107,-0.421488155,0.287570826,0.00889834846,-0.0235285248,-0.0123146614
92470.344206,-0.243011757,-0.297549879,0.079849282,-0.0222574408,-0.00331007093,-0.0204745875
92470.354231,-0.0819577333,-0.159996918,-0.384068791,-0.00292049357,0.0118318646,-0.00435101053
92470.364256,-0.229162187,-0.171945696,-0.362805638,0.00243965086,0.0123309408,-0.00377949605
92470.374281,-0.254468916,-0.230921726,0.205807904,-0.0106537809,-0.0215143758,-0.00959637293
92470.384306,-0.0813745037,-0.116431131,0.151011899,-0.00882179205,-0.0239090893,-0.00591908021
92470.394331,0.126528525,0.165097553,-0.184363964,-0.0196217104,0.026855287,-0.00854682082
92470.404355,0.302518705,0.173462463,0.276730868,-0.054730163,0.0257679195,-0.00683574097
92470.414380,-0.162649916,0.136865639,0.0760855456,-0.040031911,0.0154628185,-0.00986029299
92470.424405,-0.181545883,0.139936187,-0.193026579,-0.00667262086,-0.0068014754,-0.0115292957
92470.434430,0.0884403664,0.0194693312,0.00915662016,0.018018077,-0.0081972369,-0.00878091248
92470.444455,-0.0182201273,-0.0722231198,-0.136558842,0.00279305215,0.0274214753,-0.016047881
92470.454480,-0.33345704,-0.0593026288,0.119889616,-0.0260612323,-0.00893626465,-0.0221561072
92470.464504,-0.20797915,0.128410822,-0.041009971,-0.000632031265,-0.0237164266,-0.0139774522
92470.474529,0.0676916477,0.141688091,-0.262600466,0.0153296254,0.00835948428,-0.00733872408
92470.484554,0.117703121,-0.0145104058,0.172560883,-0.00210875409,0.0144599871,-0.0166936097
92470.494579,-0.155119785,0.0428542254,0.245572928,-0.00358228091,-0.0168292253,-0.0201274911
92470.504604,-0.141301734,0.122072048,0.000161412797,0.0013213974,-0.0216463516,-0.0151260746
92470.514629,-0.00568823253,-0.0104049981,-0.10503733,-0.00432503651,0.00534398705,-0.0122914044
92470.524654,-0.119824719,-0.0350034693,-0.154728705,-0.00374579904,0.0151643929,-0.0128770349
92470.534678,-0.184034942,0.01688105,0.0763199388,0.00565888771,0.00130716748,-0.0188949788
92470.544703,-0.0534878708,-0.0139366245,0.389963279,-0.0035260884,-0.0146198674,-0.036385023
92470.554728,0.199710894,0.00810282811,0.253638746,0.00330119152,-0.00649616085,-0.0315465936
92470.564753,-0.0414350454,0.106714667,-0.394879523,0.0100520383,-0.00249662539,-0.0222620154
92470.574778,-0.363845858,0.0925288866,-0.543723931,0.0104752145,0.0276705966,-0.0178132029
92470.584803,-0.413417113,-0.0799200493,0.335547798,-0.00783241968,0.00712803881,-0.0243280949
92470.594827,-0.283885455,-0.10897634,0.296484785,0.00901420499,-0.0290688473,-0.0196715565
92470.604852,-0.172809601,-0.0454517615,-0.081638334,-0.00153803869,-0.00537550273,-0.0295236567
92470.614877,-0.289140636,0.191987752,-0.12388933,-0.0384816761,0.0249365968,-0.0442312294
92470.624902,-0.206410933,0.227524984,-0.0901904738,-0.0454322594,-0.0105132732,-0.0285593243
92470.634927,-0.169600192,0.142069126,-0.368385484,0.0446638119,0.0173045089,-0.00475412698
92470.644952,-0.0873415909,-0.199776537,-0.113218883,0.0857404051,-0.0298930976,-0.0265963087
92470.654977,-0.284869096,-0.41945654,0.3932442,0.0755807114,-0.0616832516,-0.00594003217
92470.665001,-0.0329779407,-0.276532426,0.308228414,0.00552865948,-0.00665861331,-0.0135303074
92470.675026,-0.066339628,-0.248675848,-0.168814513,0.00796545195,0.00583054675,-0.0135694565
92470.685051,-0.107623281,-0.255756034,-0.559173429,0.033639389,0.00371626289,0.00323828591
92470.695076,0.168542159,-0.0269936562,-0.106771606,6.86109968e-06,0.0247443159,-0.00565773712
92470.705101,0.218159775,-0.0672376778,0.662497779,-0.0159326914,-0.011188916,-0.00418740602
92470.715126,0.223215323,-0.00881456882,0.194845196,-0.00687368176,0.00573973255,-0.00271174868
92470.725151,0.241440916,0.0382185466,0.0632792555,-0.0150490534,-0.0081188242,-0.000543668845
92470.735175,0.370798716,-0.127292845,0.11759829,0.0135817918,0.0252449912,0.00974518715
92470.745200,0.061317747,-0.250053182,0.102203737,-0.00871179541,0.024625006,-0.0004810849
92470.755225,-0.0240342261,-0.494334123,0.212611154,0.00160182829,-0.049493163,0.0093124239
92470.765250,0.107446644,-0.519571659,-0.56457558,0.0213995007,-0.00939234821,0.0145466002
92470.775275,0.232797317,-0.289573347,-0.733948396,-0.0178456391,0.058474318,0.0134051694
92470.785300,0.30413257,-0.172714196,0.448258232,-0.0468562516,-0.00116051766,0.0266701086
92470.795325,0.39981789,0.019489826,0.200043934,-0.0353748324,-0.00557790287,0.0218817452
92470.805350,0.0655870858,0.0806201299,-0.321615549,0.0159930167,-0.00828154488,0.037736076
92470.815374,0.214572491,-0.196964292,0.210092449,0.0152393439,-0.0104682661,0.0270136567
92470.825399,0.387464641,-0.265900356,0.380690424,-0.00125654248,-0.0180401663,0.0302581853
92470.835424,0.148892488,-0.319750878,-0.0519072126,0.00858437075,-0.00110752075,0.0313125318
92470.845449,0.260102344,-0.222726072,-0.0550408345,-0.00985136171,0.0178459295,0.0254956549
92470.855474,0.333578554,-0.146405505,0.106846595,-0.00432317247,0.0138466609,0.0333016468
92470.865499,0.0371921723,0.089313523,-0.105786102,-0.00411038575,0.0305028697,0.0406772709
92470.875524,-0.235104966,0.19951601,0.0825743231,-0.0341484445,0.0146275003,0.033040124
92470.885549,-0.128458591,0.0859504763,0.243943281,-0.0203940189,-0.0164073809,0.0233435547
92470.895573,-0.0692694801,0.233865384,-0.511428512,0.0144262807,0.0261480686,0.0348590641
92470.905598,-0.171112222,0.118459063,-0.0280803468,-0.00630909166,0.00870303148,0.0176411933
92470.915623,-0.130547718,0.140162781,0.458954982,-0.0120655141,0.00917787375,0.0153197162
92470.925648,0.132436041,0.0829745292,0.0534435057,0.0183722851,-0.026364674,0.023067384
92470.935673,-0.134423592,-0.140447875,-0.270621275,0.0137301301,0.00903299721,0.0175330704
92470.945698,-0.194761521,-0.148221268,-0.10887647,-0.026031931,0.0176163659,0.0108991349
92470.955723,-0.0658743349,0.0101181683,0.128525927,-0.0207263819,-0.00614648741,0.0123316497
92470.965748,0.0506355547,0.228400415,-0.29211473,0.015309384,0.00409150207,0.00978113992
92470.975773,0.068571344,-0.0143905058,-0.248364435,0.0199845628,0.000888252244,0.0152446153
92470.985797,-0.0106726961,-0.270353463,0.106317602,0.0145264155,-0.0155732791,0.0180758229
92470.995822,0.0769941309,-0.211053754,-0.0723245622,0.00383275832,0.0033617964,0.0216630986
92471.005847,0.0262079237,0.0483999864,-0.0383562416,3.18947886e-05,0.0105560598,0.0157697899
92471.015872,0.279879112,0.243190938,0.216933694,0.00788422572,0.00379216312,0.0230777702
92471.025897,0.195307453,0.213320755,0.190917793,0.00684878827,-0.0144076134,0.0187826259
92471.035922,0.145962846,0.202331177,0.0559663021,0.00832444607,0.00335726877,0.0157564758
92471.045947,0.0500869215,0.0998019098,-0.0225653828,0.00946268058,0.00766626363,0.0191677166
92471.055972,-0.141607786,-0.0947869982,-0.0568136894,0.000500611119,-0.0105670682,0.0178904655
92471.065997,-0.175234271,-0.171498811,-0.0448514489,-0.00225895628,-0.0147745973,0.0117705213
92471.076021,-0.0622283476,0.0386850134,-0.139430598,-0.00643639089,0.030819253,0.0060045114
92471.086046,-0.0205295527,0.160372991,0.235665867,-0.0318549323,0.000541242326,0.000313868767
92471.096071,-0.171525315,0.111994635,0.197273884,-0.0232425361,-0.0289008032,0.000415868147
92471.106096,-0.168080344,0.240695176,-0.661352531,0.0229270895,0.00432133293,0.0165463677
92471.116120,-0.106954068,0.00218894616,-0.251108181,0.0354130556,0.0174706903,0.00647935273
92471.126145,-0.171718353,-0.192471347,0.541604039,0.023188346,0.00271784388,0.0096431887
92471.136170,-0.229472185,-0.146021767,0.705464814,-0.0194025236,-0.03210112,-0.00728918889
92471.146195,-0.204823536,0.194381351,0.000154398535,-0.0181287332,-0.00869033961,-0.000766042599
92471.156220,-0.0813743302,0.341727264,-0.646121644,0.022067421,0.0312594724,0.00818643907
92471.166245,-0.24623061,0.234908044,-0.201045635,0.00553505114,0.0382460103,-0.00408833658
92471.176270,-0.151939685,0.179262637,0.708260582,-0.0342650908,-0.0137775104,-0.0144786602
92471.186294,0.0307342877,0.175071597,0.129988985,-0.00878876084,-0.0310164179,-0.00572618002
92471.196319,-0.152542117,0.175367164,-0.859553967,0.0135540952,0.0115930949,-0.00120146943
92471.206344,-0.276702996,0.0474583399,-0.265746363,0.0116565925,0.0451891393,-0.0119206933
92471.216369,-0.2230231,-0.234908677,0.554284657,-0.000278896097,-0.0254384271,-0.0116636986
92471.226394,-0.0654623383,-0.340878568,0.400623205,0.0197147847,-0.0721247076,-0.00424759367
92471.236419,0.0406977601,-0.238489531,-0.476765779,0.0598374372,0.00737278294,-0.00234103666
92471.246444,-0.201899648,-0.260276507,-0.502037583,0.0480391038,0.035263271,0.00778243786
92471.256469,-0.258875298,-0.348014704,0.894406254,-0.0301451824,-0.034352026,0.00425827692
92471.266494,-0.0610307262,0.00333119326,0.544270628,-0.0607763278,-0.0166515942,0.00878458565
92471.276519,0.107983664,0.257229638,-0.818730958,-0.0143081621,0.0236502894,0.0109747686
92471.286544,0.0668071382,0.198420507,-0.507475975,0.00707568965,0.0253113032,0.0198215237
92471.296569,0.195209308,0.0998148058,0.443471582,-0.00535221779,-0.0166697028,0.0107249646
92471.306593,0.340263475,0.163831278,0.465897933,-0.00594397224,-0.0196218166,0.00904237947
92471.316618,0.297373706,0.129710196,-0.291543067,0.0266219591,-0.0025687973,0.0139242197
92471.326643,-0.0969263022,-0.0652827992,-0.252425693,0.012450748,0.0253909313,0.00690332802
92471.336668,-0.156312265,-0.151665873,0.498429499,-0.0345500494,0.00923672961,-0.00755444074
92471.346693,0.186834955,0.123882202,0.361732041,-0.0218992374,-0.0149527631,0.0042928979
92471.356718,0.200901766,0.197798502,-0.277071474,0.0177299314,0.0152623978,0.0127146123
92471.366743,0.0906909036,-0.133080215,0.106197191,0.0136720733,0.0189042696,0.00669826476
92471.376768,0.00149528006,-0.348341159,0.384237887,0.00193019622,-0.057088229,0.018984492
92471.386793,0.188588557,-0.371572726,-0.563250469,0.0144494501,-0.0362860142,0.0191088608
92471.396818,-0.132409841,-0.113955827,-1.10058449,-0.00360758099,0.0468387016,0.00717044344
92471.406843,-0.0293654915,0.13333109,-0.159223678,-0.0143513056,0.0679051028,0.0115947528
92471.416868,0.207535268,0.00912015193,1.24710793,-0.0690872568,-0.0252317666,0.00549691266
92471.426893,0.188934484,0.199688225,0.428889514,-0.0252537551,-0.0433045059,0.00238580818
92471.436918,0.342808885,0.220882313,-1.0386994,0.0545241674,0.00866068797,0.0293465862
92471.446942,-0.157970773,-0.0419104174,-0.327343864,0.0329443057,0.0297193666,0.00816326963
92471.456967,-0.170447055,-0.229521705,0.748122053,-0.0132660671,-0.0321605085,0.0183621114
92471.466992,-0.0110268148,-0.0508067492,0.47439805,-0.00599140543,-0.0362437508,0.0190151474
92471.477017,0.0200920255,-0.0105186511,-0.608498308,0.0230623492,-0.00400432255,0.0267436421
92471.487042,-0.228974482,0.051109976,-0.525416705,-0.00551283554,0.0441962303,0.00846263862
92471.497067,-0.248210477,0.0926127837,0.535909042,-0.0403589654,-0.00703579849,0.0111196749
92471.507092,-0.0553806783,0.159221702,0.43448748,-0.0276178728,-0.0404182552,0.000333872645
92471.517117,0.0179721199,0.262494335,-0.407670031,0.0282368724,-0.00580781522,0.022350491
92471.527142,-0.127647567,-0.0167867167,-0.0712034492,0.0196907883,0.0196988759,-0.00200065503
92471.537167,-0.297497472,-0.153828184,0.68027309,-0.0225251085,-0.0315834834,0.00503967798
92471.547192,-0.16066667,-0.102073612,0.394538332,-0.0191040124,-0.0434843517,-0.00140943283
92471.557217,0.123708033,-0.0270322895,-0.479818737,-0.000407822006,0.0143057088,0.00419652092
92471.567242,-0.0160729306,-0.261311659,-0.537243921,0.0265793194,0.00151800832,0.00750816196
92471.577267,-0.331177331,-0.321164106,-0.27276121,0.0239515797,0.0048355082,0.0101247179
92471.587292,-0.411050019,-0.253806197,0.278939191,-0.0299132495,-0.0198336198,0.0111753345
92471.597317,-0.018127557,-0.161308932,0.359522548,-0.0113416958,-0.0294494956,0.0195893264
92471.607342,0.411490682,-0.0973682834,-0.276861631,0.0213640527,0.0196887561,0.0477535865
92471.617367,-0.0292535499,-0.175742476,-0.0101893008,-0.0163612227,0.0137123567,0.0309391869
92471.627392,-0.224322309,-0.0056316462,0.0189216428,-0.0365019116,-0.00448795278,0.0438403366
92471.637417,-0.168978772,0.221594443,-0.0967090619,-0.0426519486,0.0155683131,0.0294819055
92471.647441,0.0533684137,0.461210333,0.190786861,-0.0438008356,0.0368416467,0.0236543743
92471.657466,0.379365688,0.440133131,0.506560783,-0.0402023728,0.00908271773,0.0109990332
92471.667491,-0.0659988746,0.363922144,-0.00317270006,0.00356934258,-0.0236808221,0.00286227746
92471.677516,-0.178896866,0.231397953,-0.646101771,0.0345554863,0.0104635664,0.0142704612
92471.687541,-0.203925089,-0.050069247,0.0303706731,0.0433100973,-0.00986540793,-0.00805242171
92471.697566,-0.0845119158,-0.180651382,0.29812846,-0.000734325525,-0.0130697229,0.00114560409
92471.707591,-0.23657166,0.0331865073,0.257842043,-0.0176360785,0.0024964536,-0.0103874821
92471.717616,-0.145542933,0.10519796,-0.134511262,0.0178646584,-0.0102310591,0.0101367021
92471.727641,-0.147122622,-0.0559175712,-0.407861754,0.00775450087,0.00405759867,0.0123857418
92471.737666,-0.200911148,-0.164831937,0.0361235375,-0.00123153775,0.00648427093,0.00929141419
92471.747691,-0.104836208,-0.109243412,0.0409172016,-0.000771077143,0.0131019595,0.0127002606
92471.757716,-0.293986523,0.0174517991,0.0516431782,-0.0274951002,-0.0251729908,0.00648524149
92471.767741,-0.0892677686,0.0880021116,-0.115699594,0.00375469859,-0.0194850109,0.00906770865
92471.777766,0.325284006,0.153098725,-0.33128471,0.0174529337,0.0214752042,0.00218610095
92471.787791,0.1585295,0.0262382225,0.170012953,-0.0118658059,0.0219676224,-0.0120895076
92471.797816,-0.0642066894,0.0492337886,0.373036694,-0.00628648381,-0.0198511957,-0.00778930073
92471.807841,0.129157714,0.0719909793,0.00731596073,0.00533102351,-0.0283866274,0.00538508969
92471.817866,0.188801451,-0.0823660359,-0.309301427,0.00328651505,0.0136372549,0.00803733154
92471.827891,0.0548805993,-0.140572927,-0.0627015784,-0.0179125137,0.0438114041,0.00210913552
92471.837916,-0.0589293015,-0.0591654853,0.475349068,-0.0158091496,-0.00541047156,-0.00451121663
92471.847941,0.127933688,0.0243589664,0.288894768,0.0128565849,-0.0376371174,-0.00228055285
92471.857966,0.12758567,0.0870795899,-0.35632972,-0.00128267039,0.00789121901,-0.0125220045
92471.867991,-0.110761945,0.164710253,-0.410814759,-0.00742631693,0.0219572362,-0.0111472811
92471.878016,-0.0127512343,0.09514517,-0.0759141111,0.0099643915,0.000621055623,0.00202204988
92471.888041,0.142698912,-0.0537522464,0.325267812,-0.00638688504,-0.0102808607,-0.0014232816
92471.898066,0.0571197702,-0.261811936,0.160199999,-0.00746067156,-0.0057699984,0.0041531115
92471.908091,0.00610332527,-0.258941313,-0.124716428,-0.00835389559,0.0114068574,0.00386602294
92471.918116,-0.00777105298,-0.162236404,0.0533382917,-0.00109305334,0.0093833887,-0.00218121705
92471.928141,0.193749301,-0.0101468586,0.128451108,0.0016057941,-0.00502244905,-0.000486114973
92471.938166,0.0981771037,0.136277172,-0.167541424,-0.00403052018,-0.0144180815,0.00367028035
92471.948191,0.21635963,0.27604295,-0.317773487,0.00521038231,0.0124329737,0.00414112725
92471.958216,0.317529081,0.234369352,-0.152079651,0.0237952516,0.0242976219,0.00508841362
92471.968241,0.164886523,-0.0045795068,0.344011091,-0.00129571996,0.00347303496,-0.00189998744
92471.978266,0.158174696,-0.118557111,0.509206329,-0.00145151486,-0.00995302582,-0.00187841521
92471.988291,0.221268372,-0.054430511,-0.101011143,0.00234162543,-0.00392069957,0.00286733734
92471.998316,0.134603996,-0.0639628757,-0.453093227,0.0104118026,0.0195279018,0.00725249855
92472.008341,0.0334808008,-0.154208215,-0.0405213107,0.000125342837,0.0187390734,0.00467375947
92472.018366,0.0594840745,-0.130542896,0.30183959,-0.00743856755,-0.00397822364,0.00411050117
92472.028391,0.154446122,-0.125896678,0.252298437,0.00408546339,-0.0206898256,0.00789591765
92472.038416,0.105981576,-0.0612557721,-0.288626303,0.000834276349,0.0162958902,0.00750070533
92472.048441,-0.110696277,0.00139958588,-0.168031254,-0.0136061815,0.0229982668,-0.00108958686
92472.058466,-0.10695973,0.0420825469,0.146482439,-0.00197695647,-0.0133227232,0.0075912527
92472.068491,0.0941546616,0.0827504199,0.0412836968,0.00567190853,-0.00774686327,0.00988929441
92472.078516,0.118755553,0.00938210907,0.0861825767,-0.000986793221,0.0130103472,0.00422954422
92472.088541,0.0875427052,-0.0748573408,0.0320295462,0.00409877897,0.0135728064,0.00603596635
92472.098566,-0.0434769539,-0.0918592377,0.0411580246,0.0020982124,-0.0183861918,0.00528628661
92472.108592,-0.0306339063,-0.00364814423,-0.268873555,0.00831749282,0.00891467174,0.0122890687
92472.118617,0.00256185327,0.138079947,-0.212298266,-0.000250961818,0.0253354561,0.0033432441
92472.128642,0.0474790132,0.221099043,0.198009213,0.00178715532,-0.00964409868,-0.00455862095
92472.138667,0.128610391,0.258167905,0.0591624678,0.00828393727,-0.015382412,-0.00389842314
92472.148692,0.203927945,0.239459058,-0.0687624858,0.00334776767,0.00166288428,-0.00710167361
92472.158717,0.0909853199,0.0872129705,-0.185310305,0.010846164,0.00702888742,-0.000462146455
92472.168742,-0.0646381305,-0.110283605,-0.0703710901,-0.000314345057,-0.00651941179,-0.00283555591
92472.178767,-0.0981968976,-0.214304627,0.147632194,-0.011483376,-0.0146343309,-0.00738849675
92472.188792,0.0701721394,-0.139196816,-0.0344954746,-0.00179692681,0.00163092629,-0.00664227826
92472.198817,0.185756786,-0.0550793668,0.0229671188,0.000802851081,0.0040394891,-0.00729448719
92472.208842,0.114980501,-0.0434952754,0.198044869,0.00143135703,-0.00948058078,-0.0067703761
92472.218867,0.0837768225,0.0010938444,0.0445272087,0.00667698533,-0.00342748184,-0.000624598914
92472.228892,0.0838841005,0.00157483285,-0.0376057155,0.00648790077,0.00802357858,0.000539202264
92472.238917,0.00736596105,-0.0626284853,0.0164309951,0.00539121116,0.00262455167,0.00500452427
92472.248942,-0.0161968413,-0.0826823353,0.0246774299,0.00243989603,-0.00251455009,0.00276160987
92472.258967,0.0691242195,0.0563657411,0.0334990343,-0.00533253941,0.00620996523,-0.00315327102
92472.268992,0.122646103,0.206411706,-0.123911542,0.0130288917,0.00756338369,0.00561864909
92472.279017,0.031968871,0.13414363,-0.0949934901,0.0108794541,-0.000489216277,0.0084109735
92472.289043,-0.0374988956,-0.0755842851,0.063186901,0.000410833719,-0.00770292068,0.00944214968
92472.299068,0.0256090491,-0.180915477,-0.0767301037,-0.000530593706,-0.00321309744,0.0064016185
92472.309093,0.0451933271,-0.165293417,-0.157681709,0.00334457183,0.00401445562,0.00197331423
92472.319118,-0.0257566374,-0.113958257,0.0492647587,-0.00303290001,0.00818949276,0.00480718401
92472.329143,0.00514639444,-0.0700831486,0.267874192,-0.00908360173,-0.00538650304,0.00744584391
92472.339168,0.0492946706,-0.0691865286,0.105944093,-0.00686518856,-0.0168005443,0.0138456868
92472.349193,-0.0877703148,-0.12303042,-0.194542829,0.000961309098,-0.00288180039,0.012105044
92472.359218,-0.0873005328,-0.0549653302,0.0275298967,0.00429984779,0.0226432671,0.00483887552
92472.369243,0.0578695245,-0.0588238871,0.441284885,-0.00174925624,0.000329439549,0.00166731702
92472.379268,0.0971815168,-0.00294286377,0.227443397,0.0017029995,-0.027397263,0.00741521737
92472.389293,-0.148621281,0.0949379935,-0.499038986,0.0015706404,0.0168032208,0.0195890581
92472.399318,-0.244519623,0.0298669344,-0.38503559,-0.0201727386,0.0160500788,0.015943992
92472.409343,-0.0541098683,-0.0628654176,0.0143226246,0.00537922691,-0.0241436801,0.0195246106
92472.419368,0.195408685,-0.0758925108,-0.154265179,0.0302832452,-0.00333080916,0.0202087769
92472.429393,0.00534849973,-0.100781672,0.191446786,-0.000350830346,0.0038975425,0.00119300841
92472.439418,-0.128050011,0.113108551,0.258756819,-0.0135060466,-0.00446398426,0.00237598412
92472.449443,-0.0597397137,0.345811026,0.062237053,-0.0203527688,-0.00332814604,0.00585646929
92472.459468,-0.114742603,0.388358703,-0.180190478,0.0115441791,0.0069271544,0.0152411824
92472.469493,-0.15907825,0.0595458324,-0.119224845,0.0310424742,-0.011555222,0.0112491055
92472.479518,-0.294907803,-0.121387347,0.129268854,0.0439332415,-0.0112454957,-0.000406219603
92472.489544,-0.324729835,-0.224360797,0.184714847,0.0105545119,-0.0165345344,0.00190620359
92472.499569,-0.451089038,-0.0724709023,0.240351394,-0.0300256713,0.0104046733,-0.0077797137
92472.509594,-0.349662288,0.113956162,0.0137381027,-0.0143726758,0.0113865797,0.00625887376
92472.519619,-0.460858225,0.0455908838,-0.246173647,0.0155681771,-0.00950352205,0.0132661825
92472.529644,-0.459734701,-0.216714648,-0.0933322789,0.0334763368,-0.0159821949,0.0058338335
92472.539669,-0.479600152,-0.2921988,-0.0568645428,0.0408812565,-0.00819484433,0.0122872051
92472.549694,-0.550807961,-0.209281356,0.134545333,-0.0216164748,0.00420776279,-0.00359402315
92472.559719,-0.561165104,0.0577601911,0.245925395,-0.0529224659,-0.00101709282,0.0113822632
92472.569744,-0.206340882,0.252530246,-0.0895469152,-0.0428674343,0.0293091209,0.0044987905
92472.579769,0.0215349315,0.303836545,-0.0682013448,6.51192266e-05,0.010887769,0.0121037131
92472.589794,0.0119095707,0.00409943769,-0.110938078,0.0414455821,-0.0128899972,0.0223494275
92472.599819,-0.415625948,-0.133704813,-0.213649096,0.0211879806,-0.00813332489,0.00993909596
92472.609844,-0.395998544,-0.0311123436,0.0651234221,-0.0219933121,-0.00273989151,-0.000707423293
92472.619869,-0.157690412,0.28426615,0.138505469,-0.0409009579,0.00491350041,0.00552543907
92472.629895,-0.0978305119,0.419351734,-0.0507042666,-0.00551393683,0.0141996768,-0.000951901057
92472.639920,-0.213176737,0.184523408,0.0575147006,0.0182574381,-0.0232680711,0.0132597918
92472.649945,-0.297023279,-0.0865507194,0.318203865,0.0127526847,-0.0556268088,-0.00833098775
92472.659970,-0.0363717867,-0.186264089,-0.177623258,0.0511496094,-0.018557205,0.000674225411
92472.669995,0.107880058,-0.228433307,-0.380837554,0.0480028157,-0.00831362149,-0.0020049149
92472.680020,-0.0302825139,-0.173475262,0.371729703,-0.0178121488,0.0234823906,-0.0140634421
92472.690045,-0.175511992,0.00572466427,0.339921191,-0.0418269384,0.00496889455,-0.00717730632
92472.700070,0.100493272,0.0395278939,-0.042316962,-0.00528783453,-0.00941936588,-0.00470802372
92472.710095,-0.0367972821,0.0148453064,-0.390350647,0.0184001838,0.0150753249,0.00723785164
92472.720120,-0.296785287,-0.152215671,-0.141613203,0.00331630619,0.0149099425,-0.00440309195
92472.730145,-0.303478117,-0.228243063,0.562830952,-0.0374074216,-0.0248332108,-0.00654400697
92472.740170,0.133199792,0.0613106319,0.208401428,-0.0240785676,-0.0183958179,0.00159168385
92472.750196,0.255256584,0.299522445,-0.323780618,-0.0259901835,0.00758917853,-0.0017913291
92472.760221,-0.0337712899,0.287137157,-0.407288338,0.0102442539,0.024588135,0.00381968452
92472.770246,-0.0632404838,-0.00309739675,0.107049424,0.00866553179,-0.00631678347,0.0111923795
92472.780271,-0.120334203,-0.133721545,0.564026883,-0.0167721855,-0.0142913527,-0.0018254183
92472.790296,-0.0392193421,0.103555983,0.117306614,-0.0166459503,0.00284555591,-0.00857839545
92472.800321,-0.1174996,0.187165611,-0.315452935,0.00293840366,0.00364770032,-0.00273968091
92472.810346,-0.32630114,0.0241063251,-0.170445914,-0.00238285851,-0.0112729269,-0.00529285332
92472.820371,-0.234751239,-0.118104636,-0.0981861487,-0.00465773054,0.00591857768,-0.00531096289
92472.830396,-0.0495824746,-0.147038725,0.217526983,-0.0119468021,-0.00552475928,-0.0162592167
92472.840421,0.0657832111,0.0801749251,0.156594084,-0.0126235113,0.00773059241,-0.0185202407
92472.850447,0.0228581406,0.11937457,-0.113370858,-0.00245636175,-0.0114966325,-0.0092684198
92472.860472,0.0937095573,0.00533252315,-0.227995016,0.00575842514,0.00643363306,0.00507722937
92472.870497,-0.142063201,-0.0686665598,-0.334952585,0.00134583345,0.0338415549,0.00349078423
92472.880522,-0.313027232,-0.0869993583,0.290827782,-0.0114948639,0.0033656714,-0.0117259864
92472.890547,-0.109906661,-0.00374256278,0.490249115,-0.0107254769,-0.0370629794,-0.0128021687
92472.900572,0.125333698,0.178209895,-0.0985859617,0.0095262657,0.00145112492,-0.00180757509
92472.910597,-0.102412323,0.192683132,-0.488212471,0.00043742909,0.0365361393,-0.00232795624
92472.920622,-0.342925381,0.166207524,0.113625295,-0.0101126834,0.00587676596,-0.0136455912
92472.930648,-0.129711706,0.0861887238,0.198448189,0.00296050791,-0.0397314644,-0.00960184818
92472.940673,-0.0806608984,0.0857065115,-0.251339652,0.0129628087,0.00746267838,-0.0175567092
92472.950698,-0.10812333,0.0570553491,-0.0440740348,-0.00953690809,0.0370855526,-0.0274820449
92472.960723,-0.075622854,0.110639439,0.379369404,-0.0121982043,0.00463599935,-0.0196534181
92472.970748,-0.179235341,0.107474856,0.228508396,-0.000751405981,-0.0330077811,-0.0171503136
92472.980773,-0.0650669366,-0.0754770618,-0.223242853,0.00795979417,-0.00104984953,-0.00848198866
92472.990798,-0.240919023,-0.222008882,-0.251509748,-0.0057775896,0.0236435113,-0.0172805423
92473.000823,-0.261364868,-0.128686272,0.0646575581,-0.00805379366,0.0110414335,-0.0204172106
92473.010849,-0.0374003077,0.0490394351,0.408938029,-0.0173096108,-0.0159736714,-0.0229200506
92473.020874,0.135816213,0.320097835,0.0204507521,-0.0010131947,0.0160907869,-0.0160227278
92473.030899,-0.134917293,0.271901411,-0.330431893,-0.00103210317,0.0240658884,-0.0127774011
92473.040924,-0.144924363,0.0336436947,0.293248287,-0.0105150874,0.00744110662,-0.0185548635
92473.050949,0.126794592,-0.184408616,0.401718014,-0.0013412961,0.00694655757,-0.0147558637
92473.060974,0.335968956,-0.172770676,0.39587864,-0.0123910178,0.0344367706,-0.0157454954
92473.070999,0.192950113,-0.161796405,0.227781251,-0.033826002,0.0103607298,-0.0151910241
92473.081024,-0.22685022,-0.0187756073,-0.497911443,-0.0353711705,-0.0229237239,-0.0134237502
92473.091050,-0.380038137,0.0102122763,-1.15635489,0.0163407614,0.0184452877,-0.00336073057
92473.101075,-0.132676912,-0.100761122,-0.359183356,0.0068961274,0.0448169754,-0.0200877795
92473.111099,0.104044352,-0.249713246,0.738097502,-0.0182829956,-0.00765502136,-0.0189572656
92473.121124,0.24123648,-0.241474703,0.571506426,-0.0040744984,-0.0499414942,-0.0180451358
92473.131149,0.253960809,0.0621978265,-0.510824701,0.00311656916,0.0215143141,-0.0238670679
92473.141174,0.230060768,0.359050373,-0.452928976,-0.0241874914,0.0571378217,-0.0208180183
92473.151199,0.00370917841,0.242377631,0.378033772,-0.0592197749,0.0295402826,-0.0274370359
92473.161225,-0.211282375,0.312321721,0.211483612,-0.0366180624,-0.0193492296,-0.0265448773
92473.171250,0.207065294,0.203347935,-0.295933411,0.0422450629,-0.0371958717,-0.008976005
92473.181275,0.246041524,-0.0388252013,-0.284242389,0.0600546849,0.0102656548,-0.0260370122
92473.191300,-0.173590814,0.0181353974,0.131098408,-0.00647187567,0.00940838353,-0.0253991866
92473.201325,-0.181839514,0.137465011,0.542083347,-0.0248221225,-0.031315609,-0.0302333543
92473.211350,0.0836164717,0.116779038,-0.134112618,0.0357554731,-0.0103962134,-0.0013527069
92473.221376,-0.120403332,-0.0157531542,-0.34815109,0.0197227084,-0.000186186496,-0.0316823805
92473.231401,-0.0324415757,-0.154123459,0.106898032,-0.0128317709,-0.0349439002,-0.0264346236
92473.241426,0.271776214,0.0543750422,-0.192249749,0.00115887952,0.0291469348,-0.0281220013
92473.251451,0.117502311,0.276236554,-0.45408633,0.00937419935,0.0560754881,-0.0239879759
92473.261476,0.0338230931,0.137738422,0.664728899,-0.0223749439,-0.0199593595,-0.0317518906
92473.271501,0.405165461,-0.00215595118,0.516871749,0.0234908153,-0.0484868727,-0.0182707021
92473.281526,0.403210601,-0.0427639107,-0.643613461,0.0374843952,0.0277511709,-0.0212326729
92473.291552,-0.0753113723,-0.0446169364,-0.0192867995,-0.013013132,0.0351757974,-0.0373426648
92473.301577,0.0917874301,0.0783418645,0.577396068,-0.0343831378,-0.00536203999,-0.0306030037
92473.311602,0.240464217,0.168583605,0.093427141,0.00993932123,-0.0166834044,-0.02548707
92473.321627,0.372316683,0.0762957821,-0.426648288,0.0262011149,0.0127378673,-0.0149984769
92473.331652,0.0750420653,0.0148866065,-0.191232681,-0.00147205728,0.0241873291,-0.0292682247
92473.341678,-0.112462584,0.149064227,-0.0317482217,-0.0170395664,0.00581285022,-0.0299966009
92473.351703,0.237266243,0.337154257,0.159753424,-0.0114629055,-0.00493327119,-0.0232657278
92473.361728,0.356436429,0.443119746,0.218368695,-0.015062701,0.00456702327,-0.0291574383
92473.371753,0.158168905,0.534434121,-0.085736417,-0.0133915675,0.0079987728,-0.0360904457
92473.381778,0.0512295385,0.453345226,0.250165517,-0.00507717821,-0.0112164664,-0.0415190356
92473.391803,-0.0210007812,0.220694243,-0.0413004784,0.016175379,-0.0278250045,-0.0409736195
92473.401829,0.0109289279,-0.0103026702,-0.30489004,0.0380905298,-0.0158301285,-0.0556279281
92473.411854,0.239243534,-0.142524225,0.0909855931,0.0170507589,-0.00592769552,-0.0516369166
92473.421879,0.187044688,0.211105399,0.063734598,-0.0310864086,0.0418323697,-0.0724825458
92473.431904,0.27754519,0.296561184,0.330553643,-0.0570106852,0.000221010784,-0.0597302625
92473.441929,0.282289078,0.504591502,-0.0128272481,-0.0138040912,0.0172508609,-0.067088847
92473.451955,0.203174698,0.642582945,-0.508418808,0.0102045721,0.0223548085,-0.0631218003
92473.461980,-0.00990947494,0.350279403,0.166884007,-0.0141396495,-0.0319134883,-0.0751046957
92473.472005,0.291009834,0.238089322,0.0293559431,0.0128994984,-0.011022416,-0.0617617713
92473.482030,0.340555517,0.0707859144,-0.344360465,0.0444054929,0.00898884227,-0.0661666365
92473.492055,0.0917355264,-0.208599347,-0.0103278325,0.0905450237,-0.0467417977,-0.0583393397
92473.502080,0.0636793616,-0.422425875,0.0391905239,0.126603688,-0.0763098105,-0.0508087249
92473.512106,-0.0798542262,-0.323387116,-0.0447853979,0.0805456516,-0.0315260916,-0.0496771456
92473.522131,0.0092031613,-0.269986055,0.428275766,-0.0254577427,0.0154043975,-0.0637311758
92473.532156,0.0449739853,-0.145649353,0.479597957,-0.0841434273,0.0220977188,-0.0357016744
92473.542181,-0.0227402704,-0.0559881157,0.0464713286,-0.0772109526,0.0213216738,-0.0411718087
92473.552206,-0.0807311186,0.0132367752,-0.310378701,-0.00111511975,0.0095736728,-0.0270679733
92473.562232,0.0591311876,-0.1651876,-0.2191512,0.0573367392,-0.0118882098,-0.0257292008
92473.572257,0.0397605249,-0.310006332,0.220481742,0.049604251,-0.0467694952,-0.0347325476
92473.582282,-0.019558389,-0.338206646,0.0918664675,0.0120622012,-0.0123385509,-0.0372782619
92473.592307,-0.10632377,-0.18614819,-0.135599641,-0.0264825272,0.021285721,-0.0411134856
92473.602332,0.252596864,-0.0644849633,-0.00414885162,-0.0371543477,0.0117049999,-0.0298602981
92473.612358,0.181738837,0.0706460127,-0.0998438528,-0.0233533132,0.0306448684,-0.0362130003
92473.622383,-0.106383264,0.0649217168,-0.0687735917,-0.0244161813,-0.000694411553,-0.0285473568
92473.632408,-0.210894362,0.0052802815,0.101450873,-0.0157385376,-0.0114538484,-0.0334092276
92473.642433,0.177897377,-0.0506911052,0.0442928155,0.0116366278,-0.0181514333,-0.0262170909
92473.652459,0.0358211305,-0.251145837,-0.0806177588,0.020769407,0.00351444809,-0.0331194745
92473.662484,-0.168033819,-0.283398257,0.086550241,-0.0129653877,-0.00137884401,-0.0311612515
92473.672509,-0.203741239,-0.161830526,0.193186907,-0.0168842292,-0.0158443368,-0.0322342412
92473.682534,-0.06200185,-0.00738097408,-0.24091938,0.0129591533,-0.00148723459,-0.0127777168
92473.692559,0.0852771988,-0.03494741,-0.124458654,0.0113878883,0.0100911249,-0.00797949822
92473.702585,-0.0209504758,-0.0684633654,0.31323426,-0.0135813766,0.00621755691,-0.0128624057
92473.712610,0.126872681,0.0528489286,0.229977884,-0.0329755816,-0.0217554896,-0.00396025644
92473.722635,-0.00737666739,0.212158707,-0.273492447,-0.0245437465,0.00358235873,-0.0182593008
92473.732660,-0.0847960026,0.373275444,-0.590759823,-0.0111610965,0.0416186907,-0.0191506604
92473.742686,-0.10182076,0.247946846,0.310002438,-0.0331367004,0.00283028222,-0.0367674725
92473.752711,0.0939229717,0.0951130213,0.392996363,0.00406259802,-0.0443116642,-0.0293572238
92473.762736,0.133572571,-0.131274115,-0.310392145,0.0425628525,-0.0124932799,-0.0259864619
92473.772761,-0.0226261402,-0.159816721,-0.151626062,0.0558054213,0.00836699353,-0.024884182
92473.782786,0.0988150546,-0.347737275,0.446578316,0.0211078943,-0.0198617159,-0.0240737786
92473.792812,-0.0694800769,-0.341286126,0.166758335,-0.00981992864,-0.0287859674,-0.0175120169
92473.802837,0.0919253133,-0.0946632622,-0.381694463,-0.00743187134,0.0252548967,-0.0200071325
92473.812862,0.30496734,0.153717223,-0.103375534,-0.0196168973,0.0409246729,-0.0107174953
92473.822887,0.0323642041,0.0950149678,0.444050258,-0.0541951145,0.000946628242,-0.0245965598
92473.832913,-0.106987148,0.114044681,0.10767077,-0.0301880493,-0.0192100397,-0.0313615175
92473.842938,0.117795156,0.189506201,-0.453308331,0.028519473,0.0139726819,-0.0146669624
92473.852963,-0.0812436484,-0.059628244,0.0634546121,0.00490122746,0.00867858333,-0.0384822832
92473.862988,-0.122692493,-0.188164005,0.496028283,-0.0149395895,-0.0321258373,-0.0359331043
92473.873014,-0.0588488521,-0.138585296,-0.304105612,0.0064951297,-0.0100676735,-0.0209349794
92473.883039,-0.105934835,-0.0707517504,-0.479321893,-0.00602652141,0.0257246782,-0.025045569
92473.893064,-0.0991938727,-0.0637728878,0.117104369,-0.0188158183,0.0111798252,-0.0250777928
92473.903089,-0.044561105,0.032020861,0.183371031,0.00200184403,-0.0205189838,-0.0127550801
92473.913115,-0.0124196209,0.0547920255,0.0343308089,-0.00453594987,-0.0153324754,-0.0118602579
92473.923140,0.0996175575,-0.00558660148,-0.0422953347,0.00135203279,0.0127990263,-0.0130506912
92473.933165,0.044169263,-0.118539392,-0.0180429369,-0.00075878875,0.0205070124,-0.00814008804
92473.943190,-0.223233436,-0.207422649,0.19083596,-0.0157246889,-0.0051283083,-0.00956221575
92473.953216,-0.334847654,-0.113689048,0.061355594,-0.00415964526,-0.0342571653,-0.0128504215
92473.963241,-0.0391389818,-0.0682314381,-0.385738185,0.0185347487,0.0107398703,-0.00437544284
92473.973266,-0.0259492522,-0.152218502,-0.00231988262,0.00281703743,0.0324270547,-0.00852411518
92473.983291,-0.259565034,-0.135868256,0.412165758,-0.0101975641,-0.00453548888,-0.0018329229
92473.993317,-0.235688593,0.0781677865,0.133051295,-0.0124916118,-0.030809437,-0.000844357514
92474.003342,-0.0628119197,0.235993574,-0.270532428,0.00615424468,-0.000720510471,0.000990027583
92474.013367,0.00516190482,0.172884974,-0.295651672,-0.000311644018,0.0282853068,-0.00492032615
92474.023392,0.0304866559,0.0188938876,0.162658498,-0.0169651891,-0.00151945881,-0.0031677
92474.033418,0.0237612566,-0.140108688,0.111172057,0.0135770067,-0.0178664747,0.0105292043
92474.043443,-0.129904927,-0.195347359,-0.13403663,0.0154297686,0.0214934469,0.00260683244
92474.053468,-0.18454311,-0.255272159,0.241427499,0.00254566144,-0.0108988454,0.0061488366
92474.063494,-0.196460927,-0.329318004,0.124997753,-0.00257746162,-0.0244982793,0.020546685
92474.073519,-0.328067346,-0.169986525,-0.515908287,-0.00473062703,0.00846313396,0.0271113767
92474.083544,-0.329203072,-0.0398492471,-0.18673537,-0.0175785153,0.0171293271,0.0201876899
92474.093569,-0.082776927,0.184203016,0.373467487,-0.0166448104,0.0137183498,0.0231643049
92474.103595,0.0501226641,0.118789172,0.408774362,0.0108906766,-0.00676215729,0.0245238496
92474.113620,-0.237168511,-0.309785474,0.129450641,0.0291802016,-0.0264999113,0.023146729
92474.123645,-0.403735677,-0.340090852,-0.420524252,0.043109334,-0.0174595444,0.0261979131
92474.133670,-0.225216664,-0.33205258,-0.233230579,0.0169997019,0.0158376926,0.020736835
92474.143696,-0.0798404625,-0.233239977,0.363527692,-0.0201207689,0.0208814525,0.0129303104
92474.153721,-0.0829126183,-0.0820160717,0.224900143,-0.0285845595,0.00771451965,0.0283761109
92474.163746,-0.333299401,-0.0172002112,-0.199386177,-0.00589709179,-0.00066538316,0.0179218734
92474.173772,-0.0999966313,-0.00155031343,-0.436681021,0.0168857192,0.0133763998,0.0294743991
92474.183797,-0.182655269,-0.011727972,0.159188776,-0.0109760064,0.0169178703,0.0128448224
92474.193822,-0.277803888,0.167468155,0.321780554,-0.0403045985,0.020332043,0.02917
92474.203847,-0.391292266,0.174876477,0.298773772,-0.0345540355,0.00102279465,0.0164246438
92474.213873,-0.282675586,0.153777574,-0.0246252379,0.0136398579,-0.0139689372,0.0199650498
92474.223898,0.141796757,0.0722282404,-0.177509861,0.015278235,-0.00522311693,0.00996567963
92474.233923,0.29527319,0.0721072626,0.0554747192,-0.0115302103,0.0183778153,-0.00697788501
92474.243949,0.039698593,0.306562207,-0.413218313,-0.0113192881,0.044432056,0.00643752331
92474.253974,-0.239188838,0.232642364,-0.0867067233,0.0084648029,0.0017245376,0.00781677479
92474.263999,-0.24848712,-0.145326916,0.240735425,0.0198852372,-0.0373461648,0.013155614
92474.274025,0.0676854189,-0.170269945,-0.0246760913,0.013738661,-0.0185194827,0.0067855986
92474.284050,0.189039077,-0.0350459567,-0.0499473107,0.000606613964,0.029092512,-0.00104036646
92474.294075,0.0535775675,0.320302271,0.257232971,-0.0322000693,0.0492555731,0.00552778786
92474.304100,0.00627724793,0.252879735,0.626850127,-0.0564825023,-0.00331389681,-0.0059078261
92474.314126,-0.166598361,0.241878193,-0.229453983,0.0120361018,-0.037375725,0.0102120219
92474.324151,0.0471875925,0.0893122078,-0.950762763,0.0489310053,-5.49866611e-05,0.0147215529
92474.334176,-0.153603079,-0.0135498172,-0.207371331,0.0423095849,0.0242657986,0.0139284628
92474.344202,0.197914549,-0.200900244,0.663128478,-0.00274817025,-0.00941440007,0.0136512285
92474.354227,0.0124822195,-0.118915148,0.522133031,-0.00909688053,-0.0451662718,0.00427317249
92474.364252,0.0237751664,0.00727859745,-0.643218909,0.0246680089,0.00996808605,0.0136403088
92474.374278,0.0428099802,0.0581590725,-0.306811363,-0.0250566705,0.0493682221,-0.00939949693
92474.384303,-0.038695469,0.161194317,0.546921435,-0.046152101,0.00768202906,0.0020481013
92474.394328,-0.189773029,0.216595375,0.15941674,-0.00668698511,-0.0262833956,-0.010869029
92474.404354,-0.0795208569,0.0115018229,-0.471248477,0.0505656515,-0.0195746264,0.0141170146
92474.414379,-0.214112283,-0.163570995,-0.376761098,0.0988144008,-0.0179386466,0.00654591436
92474.424404,-0.0875941363,-0.296251984,0.0852543559,0.0678447736,-0.0245102636,0.0023189448
92474.434430,-0.0651503086,-0.153078261,0.566855969,-0.0180640082,-0.00502471123,-0.0139641547
92474.444455,0.0933946918,0.180675902,0.255946438,-0.0700406629,0.046782826,-0.00345452221
92474.454480,-0.0782174736,0.243545177,-0.0158685155,-0.0921816501,0.0418306784,-0.00635683534
92474.464505,-0.511210877,0.279921362,-0.506546585,-0.0160943354,0.0159588669,0.00978112223
92474.474531,-0.434395567,0.0285559797,-0.320182302,0.0451485057,-0.018429366,0.0218020072
92474.484556,-0.331753706,-0.0878449605,0.634474631,0.0412072939,-0.0434044889,0.00410397027
92474.494581,-0.0969804344,-0.208967632,0.317195564,0.0340646942,-0.0213833443,0.0036901152
92474.504607,-0.349471953,-0.153096125,0.0739520407,0.0105106345,-0.00353164282,0.00330289129
92474.514632,-0.503235733,-0.274404821,-0.106203451,-6.55773302e-05,0.00473374398,0.00793332981
92474.524657,-0.603909436,0.0318791876,-0.245261209,-0.0354669775,0.00285781328,0.00561478177
92474.534683,-0.520160857,0.270865036,-0.234028451,-0.0584966625,0.023811032,-0.00162235832
92474.544708,-0.389220903,0.359097975,-0.241018164,-0.0134186671,0.0193214742,0.00263497049
92474.554734,-0.0166385697,0.125483719,0.0229887462,0.0370554243,-0.019360141,0.0140093314
92474.564759,-0.352064856,0.0144819164,0.428430664,0.00738062142,-0.0142170443,-0.0108371619
92474.574784,-0.394723774,0.0913388365,0.198245944,-0.0328189964,-0.0014391972,-0.00935005395
92474.584810,-0.374704229,0.170582834,-0.294269862,0.00441812063,-0.0284926529,0.00326827031
92474.594835,-0.362827292,0.138435482,-0.544241817,0.0293373195,0.0292073944,0.014997364
92474.604860,-0.337223662,-0.0319050649,0.477090943,0.00578698554,-0.000569675097,-0.00692923924
92474.614886,-0.357448193,-0.105009574,0.804915368,-0.00879861516,-0.0437411136,-0.00471588688
92474.624911,-0.222809603,0.0859680667,-0.0972655267,-0.00618046158,-0.00375028849,-0.00714362411
92474.634936,-0.181961022,0.27330715,-0.159721106,-0.0302189506,0.0343691342,-0.00850183701
92474.644962,-0.309492555,0.199110389,-0.0367786171,-0.0119201067,0.00359071525,-0.00147295555
92474.654987,-0.268582782,0.0367062424,-0.288432826,0.0385531885,-0.0387767135,0.00782041161
92474.665012,-0.23899306,-0.232130134,-0.299311363,0.110614332,-0.0479656859,-0.00578141769
92474.675038,0.0756446251,-0.274181972,-0.187404063,0.0940015343,-0.00365041998,0.00255640738
92474.685063,0.0277833563,-0.212882486,0.562252859,-0.00539349726,-0.00596603854,-0.000440181212
92474.695088,-0.171243867,-0.0555187263,0.522638642,-0.0743501904,0.0122001822,0.00936637635
92474.705114,-0.0191042748,0.242664576,-0.0706908235,-0.0552784997,0.0556813487,0.0118558994
92474.715139,0.171179157,0.219023789,0.0679507544,0.00665277886,0.00777773689,-0.00140637623
92474.725165,0.235909969,0.0973766371,-0.280601986,0.0552000729,-0.035687714,0.00999461582
92474.735190,-0.0319477894,0.0820156759,-0.456816047,-0.0153854118,-0.00419237335,-0.00478060169
92474.745215,-0.138430069,0.387195395,-0.101671068,-0.034848326,0.0350626231,0.00520891605
92474.755241,0.392596414,0.482916407,0.134057842,-0.0570505681,0.0191515655,0.00633942804
92474.765266,0.293117912,0.395666688,0.415578197,-0.0156048556,-0.0580753117,-0.00176057683
92474.775291,0.24928447,-0.0620790347,-0.434589602,0.086218181,-0.0385332993,-0.00138933209
92474.785317,0.127320388,-0.14444016,-0.687616269,0.160064171,-0.05086347,0.00273910027
92474.795342,0.0922429188,-0.429259812,0.15607912,0.138811613,-0.0565495855,-0.00669514758
92474.805368,-0.0459180315,-0.36073938,0.630765839,0.0291591537,-0.0244664858,-0.0011405926
92474.815393,0.313946035,-0.26823775,0.789785604,-0.0570542972,0.00255740867,-0.0168910594
92474.825418,0.328178485,-0.164065939,0.2119863,-0.109209103,0.0354466521,0.0018035318
92474.835444,-0.221911029,0.0942284388,-0.268020153,-0.115917076,0.0516298831,0.00769923769
92474.845469,-0.173378815,0.0219643446,-0.0306557503,-0.0728939745,0.00278857108,-0.00233848298
92474.855494,0.0639530183,-0.0418879498,-0.352420437,0.04030821,-0.0447280808,0.0177553343
92474.865520,0.394577212,-0.0471895999,-0.180690244,0.0284235896,-0.00482513998,-0.0062453402
92474.875545,0.219134922,-0.0128389472,-0.00245373814,-0.00967106697,0.00797321358,-0.0138310883
92474.885571,-0.0150974618,0.227787709,-0.254338249,-0.0374502326,0.0261607383,-0.00751699878
92474.895596,0.260145544,0.330141528,0.362924465,-0.0721006217,0.00414864756,-0.0117735304
92474.905621,0.460628917,0.407332795,0.131433923,-0.0161457426,-0.00266371863,-0.0151786469
92474.915647,0.501758361,0.315656966,-0.44281967,0.029361288,0.013015109,-0.00448632238
92474.925672,0.449773249,0.0560738089,0.398022082,-0.0107083675,-0.0040389752,-0.0260850908
