t,ax,ay,az,gx,gy,gz
95345.061079,-0.0176245771,0.0416785114,0.031643677,0.000211775157,0.000160374795,-2.37356871e-05
95345.071103,-0.0286944718,0.0390897735,0.0439139605,0.000590476673,-0.0010481677,-0.000471413136
95345.081127,-0.00234280027,0.0353799866,0.0498988802,-0.000580781605,-2.60464149e-05,3.08593735e-05
95345.091151,-0.0118238549,0.0311254458,0.0376303502,-0.000293959136,-0.000219924608,0.000470547006
95345.101175,-0.00907221812,0.0273439066,0.0693517686,0.00108688988,0.00010311685,0.00106123649
95345.111199,-0.0061922057,0.00672915984,0.0478027847,-0.000343227613,0.000536679465,-0.00138008315
95345.121224,-0.0063455331,0.00676829826,0.0478080454,0.000200057242,0.00204962119,0.000533398241
95345.131248,-0.00213138601,0.00691159574,0.0546954668,0.000267168914,0.000727894483,-4.71714884e-05
95345.141272,-0.0068256813,-0.0232345625,0.0517044683,-0.000639637467,0.000928963127,-0.000109489076
95345.151296,0.00845295371,-0.0155386171,0.0476636685,-0.000800492358,-2.41822563e-05,-9.19122249e-05
95345.161320,0.00758428112,-0.022770016,0.0681628511,-1.13977585e-05,0.000425625651,-0.00327678677
95345.171344,-0.00653316463,-0.0266416857,0.0662146397,0.0033798716,-0.00197601295,-0.00942735747
95345.181368,0.0285096898,-0.0344608351,0.0524468111,0.000814714818,0.000687947031,0.0010982547
95345.191392,0.005639248,-0.0367204551,0.0439168831,0.000277555228,-0.00138692185,0.00020423159
95345.201416,0.0168773024,-0.0242010374,0.0409235465,0.000689546228,0.00063468382,0.000199969858
95345.211440,0.0312236615,-0.0255883271,0.0591799187,0.00151432725,2.69504962e-05,0.000385592692
95345.221465,0.00313117417,-0.0336135706,0.0554378096,0.000632288284,-0.00214299327,0.000572013669
95345.231489,0.0150203494,-0.0127885078,0.0711474199,-0.00070994487,-0.000377850025,-0.000450906344
95345.241513,0.00239540724,-0.0240535324,0.0626151539,-0.000508609926,-0.00185483927,0.000639658421
95345.251537,-0.00603723434,-0.00689960163,0.060068392,0.000343601627,-0.000991442241,0.00147455931
95345.261561,-0.0134838971,-0.00710358379,0.0415121601,-0.000352016039,-9.87506937e-05,0.000227401033
95345.271585,-0.00481408575,0.00354498826,0.0325339039,-0.000673193252,0.0004077825,-0.00113027915
95345.281609,-0.00706657739,0.0230400285,0.0437573087,0.000728162122,0.000247460208,-0.000271143392
95345.291633,-0.00861515853,0.0329626278,0.0467512298,0.000831492711,0.00137371104,0.000431398861
95345.301657,-0.0115403983,0.0216541134,0.0603711743,-0.000133636844,-0.000220457208,0.00104925223
95345.311681,-0.012860541,0.042257325,0.057077978,-0.00114404014,-0.000152013963,-0.001109506
95345.321706,-0.0174559425,0.054029258,0.0316384163,-0.000664404826,-0.000987181207,0.00204101345
95345.331730,-0.0125613389,0.0361229276,0.0228115513,-0.00181249366,0.000165701145,-6.55474141e-05
95345.341754,-0.0221370495,0.0244997783,0.0413666141,-0.000162398966,0.000211241189,-0.000511360355
95345.351778,-0.0199621532,0.0276319937,0.0436135163,-0.000483615149,0.000761217321,0.000894151628
95345.361802,-0.0198386364,0.0247466155,0.0401724359,-0.000515573134,0.000554023369,-0.000900818966
95345.371826,-0.0279211128,0.0241945483,0.0558843843,-0.00157657638,0.000237639877,0.000719182193
95345.381850,-0.0203549884,0.0106473414,0.0698030195,0.000509743928,-0.000512306346,-0.000612931326
95345.391874,-0.00242167419,0.011233296,0.0404746337,-0.000178416929,0.00110556406,0.000431560911
95345.401898,-0.0145535356,0.000634232508,0.0525958642,-0.000256447529,-0.000493131578,-0.00133970752
95345.411923,0.00676036098,-0.00910169309,0.0599310293,0.000310006813,0.00149278762,-0.00140468869
95345.421947,-0.00352463046,-0.0149708409,0.0647229398,0.000458344875,0.00213913689,0.000557261519
95345.431971,-0.000153436996,-0.0204434955,0.0545499208,-0.000800797658,9.06334026e-05,-0.000308797695
95345.441995,0.0145924428,-0.032098362,0.0573953734,-0.000653791183,0.00239107199,-0.00171681121
95345.452019,0.00751395583,-0.0453076616,0.063980597,-0.000162970595,-0.000263300724,7.89584592e-05
95345.462043,0.0181686208,-0.0450361604,0.0505120436,-0.000362973951,0.00163073943,-0.00105128717
95345.472067,0.0188392866,-0.0501390958,0.0530588055,0.000417065894,0.000821138441,0.00160707999
95345.482091,0.0314967428,-0.0627331542,0.0716109457,-5.16504515e-05,-0.00130779261,-0.000899487175
95345.492115,0.0401370358,-0.0509031162,0.0674175857,0.000124384489,-0.000636942219,-0.00137938838
95345.502140,0.0248131369,-0.0555754143,0.0683124887,-0.00104953698,-0.000299519743,0.000407059677
95345.512164,0.0238785229,-0.0531112892,0.0647223553,-0.000741675438,-0.00102310057,-0.000212924555
95345.522188,0.0104498997,-0.0409148381,0.0600824205,-0.00123649091,-0.00197411561,0.000732498243
95345.532212,0.0180373957,-0.0279844147,0.0527472553,-0.000510779442,0.000339638907,0.000239014626
95345.542236,0.0147105893,-0.0102193811,0.0581353781,-0.00261574192,-0.000284872367,0.000142075121
95345.552260,-0.00793510385,-0.00201468142,0.0487047019,-0.000648731191,-0.00181166257,-0.00065500848
95345.562284,-0.00523980035,0.0149770936,0.0488543395,0.000591769232,9.72913112e-05,0.000226231292
95345.572308,-0.00589165185,0.0145738911,0.0383814608,-0.000505719392,0.0005106139,0.000267510302
95345.582333,-0.0180586942,0.0129330366,0.0291050985,0.000288967858,0.00039716321,0.000408657826
95345.592357,-0.0172163251,0.0467575088,0.0621767624,0.000599758758,0.00089304382,-0.00142439641
95345.602381,-0.0180616533,0.046390187,0.0629231969,0.00173879275,-9.1793132e-05,-0.000430504791
95345.612405,-0.0234886103,0.0527224999,0.0624754531,-0.00108202756,-3.00077954e-05,0.000472573563
95345.622429,-0.0204827795,0.045595187,0.0433218399,-0.000535546802,0.000306882022,-1.21220946e-05
95345.632453,-0.0217713946,0.0580153502,0.0485620786,-2.47525168e-05,-6.70257723e-05,-0.00010426715
95345.642477,-0.0244989929,0.0607088134,0.0599357055,0.000578453415,0.00107440504,-2.19754875e-05
95345.652501,-0.0276944645,0.0475681174,0.0383896441,0.000906554924,-0.000158372219,0.000246470794
95345.662526,-0.0237865703,0.0460157734,0.0404839861,0.000449822779,-0.000140262651,-0.000601479784
95345.672550,-0.011798209,0.0540642973,0.0487134698,0.00035394897,0.00035002525,0.0006752396
95345.682574,-0.0235160828,0.0269159224,0.0382400065,-0.00221839827,-0.000104576349,-0.00058123935
95345.692598,-0.0322454058,0.0205368432,0.0526069701,-0.00077523134,0.000610482413,0.000121569261
95345.702622,0.000914082638,0.0101537503,0.0609884294,0.000280978362,0.00115190307,-0.00137859024
95345.712646,0.000540353954,0.0114482608,0.0517138206,-0.0015313027,0.00106082298,-0.000874186866
95345.722670,0.00371295611,-0.00732189244,0.0533633414,-0.00042928668,0.00230771489,-0.000413992442
95345.732695,0.0118250605,-0.0265930677,0.057557286,-0.000176020083,0.00151995197,0.000534358434
95345.742719,0.00143098265,-0.0172317076,0.0419973133,-0.000402921403,0.00174019532,-0.000524247997
95345.752743,0.0230448486,-0.0406949391,0.0693833328,-0.00158110377,0.000901565887,-0.000185227022
95345.762767,0.0108523795,-0.0443605261,0.0539683216,-0.00128655834,-0.000639871694,8.38469714e-06
95345.772791,0.0223788589,-0.0479708347,0.0419973133,0.000658614619,-0.000795932952,-0.00180389639
95345.782815,0.00589534165,-0.0539366112,0.059655135,-0.00122424029,0.0018230197,-0.00143638067
95345.792839,0.0245704872,-0.0445375541,0.0672878219,-0.00106684747,-3.02741537e-05,-0.000809205696
95345.802863,0.018316103,-0.0400429141,0.0467863011,0.000190963532,1.73964072e-05,0.00136553124
95345.812888,0.0180072563,-0.0353977415,0.0705792646,0.000872200122,0.000356416858,0.000565517694
95345.822912,0.00725278414,-0.0350403748,0.0693815793,-0.000138203177,-0.000259039691,0.0013037459
95345.832936,4.90633061e-05,-0.0181556951,0.0601046324,-0.00120133697,-0.000682216021,-0.00127659086
95345.842960,-0.000295329685,-0.0181562271,0.0443891768,0.00116914255,-0.000451319851,-0.000183896162
95345.852984,0.000443761712,-0.0223567088,0.0557622192,-0.000180281117,0.000664810883,0.00142784929
95345.863008,-0.00880538388,-0.00842221208,0.0442389547,0.00012065607,0.000646168774,0.00103796273
95345.873032,-0.00661218468,-0.00198973078,0.0515729508,-0.00116485171,0.000109541812,0.00132638309
95345.883057,-0.00537314441,0.00709599471,0.0530681578,9.86855594e-06,8.34173989e-06,-0.000909873284
95345.893081,-0.022913733,0.0063326388,0.0460363595,-0.00187271996,-0.000232141698,-0.000582304783
95345.903105,-0.0178319728,0.00421857782,0.0436421578,-0.000614110089,0.000353487383,-4.4612214e-05
95345.913129,-0.0248861656,0.00606783897,0.0499275217,0.000850894838,9.08996444e-05,-0.000641959719
95345.923153,-0.0124597417,0.0333608357,0.0550152003,0.00015048348,0.000135907088,-0.000715728849
95345.933177,-0.0135552088,0.0133851197,0.0568120205,0.00158832408,0.000110074412,0.000610791147
95345.943201,-0.0244160273,0.0111656627,0.0645914224,-0.000592804805,-4.6785688e-05,-0.00067578163
95345.953226,-0.0137731624,0.0375869358,0.0393020828,7.99097033e-05,0.00120383466,0.00094262138
95345.963250,-0.00866677912,0.0203171863,0.0608493132,-0.0010231717,-0.000889143557,0.000151662156
95345.973274,-0.0153466953,0.028551885,0.0571066196,0.000364335312,0.000565208669,3.55485827e-05
95345.983298,-0.00600004413,0.0200924787,0.0566600449,0.0014927166,0.000477058056,0.00077723898
95345.993322,-0.0166811588,0.0128651738,0.0518733951,-0.00141518889,0.00147547713,-0.000610267743
95346.003346,-0.021342392,0.0255396793,0.0511263761,-0.000350989751,0.000544702343,0.000347138382
95346.013371,-0.00102280371,0.0104678566,0.0455903693,-0.00104793906,-0.000456379959,0.000668582506
95346.023395,0.014579766,0.00441109958,0.0500783284,-0.000745403871,0.00116921356,0.000651005656
95346.033419,0.00571344574,-0.00222168836,0.05741174,0.00103571825,-0.000235071173,-0.000888301991
95346.043443,-0.00680482118,-0.000901844781,0.0571112958,-0.000811184,-0.000174084795,-0.00116740074
95346.053467,0.00402973044,-0.012814857,0.0684814156,-0.000814912433,-6.94226474e-05,-0.000234762207
95346.063491,0.0144796301,-0.0160410593,0.0639934565,-0.000970973691,0.000951633323,0.000648608431
95346.073515,0.00325253552,-0.0136504504,0.0535188242,-0.000946206215,0.000440839038,-0.00194531027
95346.083540,0.0083375837,-0.0202790166,0.0577086771,-9.18641745e-05,0.000228851452,-0.000998822972
95346.093564,0.0141901822,-0.027614047,0.066237436,-0.000984023092,-0.00131684716,0.00117191952
95346.103588,0.00316233649,-0.0258797774,0.0436409888,-0.0003336792,-0.000836679363,-0.000102669001
95346.113612,0.0098937271,-0.0186482987,0.0559112723,-0.0012207781,-3.13393539e-05,0.000735959969
95346.123636,0.00049870677,-0.0212819397,0.0484288076,-0.000599995314,-0.00061856641,0.000325034373
95346.133660,0.0106688762,-0.0251758624,0.0586041647,-0.00026816543,6.61322847e-05,-0.00116447173
95346.143685,-0.000838861977,-0.0264249332,0.0536655392,-0.000634350115,0.000563877111,-0.00126673747
95346.153709,0.0206943399,0.000391048569,0.0439396795,0.000673794653,-6.01015054e-05,-0.000406003557
95346.163733,0.0109046212,-0.0116957076,0.0728214906,-0.00105646113,0.00115137047,0.00246115588
95346.173757,-0.0136168393,-0.0070501223,0.0617477234,-0.000966712541,-0.00100898591,0.000125563703
95346.183781,-0.00589051934,0.0051714638,0.0559089342,-0.000542737369,-0.00239462871,-0.000336761586
95346.193805,-0.0172032464,0.011866799,0.0392974066,-0.0010487379,4.18975251e-05,-0.000143948011
95346.203830,-0.00936484439,0.00835826116,0.052912675,0.000574192381,-0.000921900501,0.000653401949
95346.213854,-0.00980802158,0.0217864163,0.0346563028,0.000642103027,-0.00131018937,-0.000275242142
95346.223878,-0.00362429144,0.0214421443,0.0449801285,-0.000481750991,-0.000355446129,-0.00122093037
95346.233902,-0.0140205612,0.0215254182,0.0544049594,-0.000532351027,0.000232579827,-0.0017298609
95346.243926,-0.0190084327,0.0224207002,0.0478220739,-0.000991479959,4.64249169e-05,0.000236883759
95346.253950,-0.00436404043,0.0311848593,0.0451297661,-0.000321694999,0.000833122642,-4.48785722e-05
95346.263975,-0.0257794246,0.0255834294,0.0439332498,-0.000465505698,-0.000539736822,0.000143140554
95346.273999,-0.0171583478,0.0119367259,0.0454313794,0.000178180344,0.000672001392,-9.3691051e-07
95346.284023,-0.00961637147,0.0207492233,0.0403466234,0.000267662574,0.00130610005,-0.00142945629
95346.294047,-0.011934841,0.0174572394,0.0476812041,0.000238101478,-9.04615736e-05,0.00141746318
95346.304071,-0.0157910415,0.0104084192,0.0621995588,-0.000897470454,0.000175055582,0.000676038675
95346.314095,-0.00177248957,0.00614150528,0.0581610971,0.000191496161,0.000793707906,-0.00179351028
95346.324120,-0.00508650948,0.00515042558,0.0556178423,-0.000122756843,0.000712481444,-0.000857941806
95346.334144,0.00829122381,-0.0062774363,0.0557704025,5.67402021e-05,0.00119637779,0.000514118932
95346.344168,0.0110221831,-0.00478174411,0.0557739097,-0.00075206178,0.00130823057,3.8575381e-06
95346.354192,-0.00699340255,0.00328020898,0.0704401484,0.000272861216,0.00153345754,0.000915222801
95346.364216,-0.00316606282,-0.0142806701,0.0514385108,-0.00102782669,0.00215051183,0.000931468792
95346.374241,0.00185936413,-0.0300515604,0.0613163462,0.000553025748,-0.00136406173,0.000580463558
95346.384265,0.0180384551,-0.0308066645,0.0554798952,-0.000148983498,0.000530244724,-0.000157231465
95346.394289,0.0097081414,-0.0445793474,0.0614642303,0.000186574791,-0.00165035168,-0.00177962985
95346.404313,0.0065634867,-0.0382595857,0.0559276389,0.000306417031,0.000719329109,-0.000652046874
95346.414337,0.0142522511,-0.0220079844,0.0505436078,0.00115623174,0.00162560283,-0.000378274359
95346.424361,0.00605718115,0.0156803728,0.118926824,-1.71570282e-05,-0.000859659049,0.00216451194
95346.434386,-0.00506608775,0.0179460596,0.154981303,0.00113146426,-0.00221600709,0.000641450286
95346.444410,0.00765274324,0.0071649152,0.0478361024,0.000708820648,-0.00169216318,0.000699507073
95346.454434,0.00286134425,0.0015898025,-0.0560170708,-0.00186778768,0.000498286798,0.000811359845
95346.464458,-0.00643876434,-0.0163325497,-0.0540659367,-0.00100066233,0.0035942113,0.000656363554
95346.474482,-0.00106397597,0.0226537258,0.0140244337,-0.000407842745,0.0010120105,0.0011969856
95346.484507,-0.0134729008,0.0147673816,0.0363245283,-0.000113829796,0.00183972099,1.8004328e-05
95346.494531,-0.0095262455,0.022077216,0.172048758,0.000301623339,0.00077205972,-0.00013592653
95346.504555,-0.0229005813,-0.00198692975,0.130147306,0.000717875431,-0.00177125901,0.000669679604
95346.514579,-0.00306424641,-0.0134241617,0.0312345117,-0.000672028342,0.000619993196,0.0017828811
95346.524603,0.00878218566,-0.0284735682,-0.0206862297,-0.000890141178,0.00355719356,-0.000689331442
95346.534627,0.015065248,-0.0253433667,0.0108972416,-0.00149015151,0.00278088218,-0.00149200764
95346.544652,0.0192258017,0.0120517477,0.0421726698,0.000809488178,-0.000901204417,-0.00139560178
95346.554676,0.0180005708,-0.00673383602,0.0936439139,0.000809488178,-0.00263012853,-0.000371349975
95346.564700,0.0102416638,-0.0273972328,0.0822661953,-0.001414784,-0.00135607237,0.00142841414
95346.574724,0.0146919942,-0.0432194115,0.0919891324,-0.000394526985,0.000708942767,0.000843051821
95346.584748,0.00881860868,-0.0470284165,0.0402156905,-0.00178682758,0.000992303132,-0.00139640085
95346.594773,0.0125985291,-0.0333793782,0.00655073682,-0.00126218493,0.000555811042,-0.000793993473
95346.604797,0.0112441919,-0.0334134289,0.0216641348,0.000777530251,-0.000396535383,-0.000759106129
95346.614821,0.00954633844,-0.0149015727,0.0765782128,0.00158526702,-0.00193664141,0.00123826461
95346.624845,0.0121676634,-0.0136553698,0.0789694918,0.000681390113,-0.000939820311,-0.00037960615
95346.634869,0.00383106606,-0.00831902399,0.0737310066,-6.03002554e-05,-0.00158457144,0.00131176785
95346.644894,0.00336578664,-0.00579830588,0.0411105935,-0.00125792366,0.000339296064,0.00105663668
95346.654918,0.00410217462,-0.00503033088,0.0418593661,0.000482451986,-0.000393073191,0.000667815097
95346.664942,-0.0011117241,0.00464316676,0.0423071099,0.000387110806,-0.000790949562,-0.00105631538
95346.674966,0.00331054932,0.00876968523,0.0500859272,0.000751431216,-0.00126392685,-0.000963903032
95346.684990,-0.000613236528,0.0101939522,0.0735749393,0.000703494356,0.000535304716,-0.00146777369
95346.695015,-0.0204951276,0.0144645844,0.0689355891,0.000952499919,0.000369656074,-0.00017720554
95346.705039,-0.0153568148,0.010707151,0.0572673631,0.000437178242,0.000757945003,0.000522140414
95346.715063,-0.0214973634,0.00986864974,0.0222521638,0.000436112983,0.000600818486,0.00117834378
95346.725087,-0.0256457883,-0.00280992973,0.0108785369,0.000293367542,-0.00126499229,-0.000605707988
95346.735111,-0.0214325545,0.0109472616,0.0321259076,0.000833989237,-0.000238343608,-0.00102648791
95346.745136,-0.013534166,0.0137376504,0.0626531478,-0.000838209584,0.000959279947,0.00037220493
95346.755160,-0.00442362513,0.0215604552,0.0957236427,2.03935488e-05,-9.58644086e-05,-0.000494387932
95346.765184,0.00550995906,0.0474386138,0.0973679028,0.000287508592,-0.00234250724,0.00117168576
95346.775208,-0.0014522081,0.0158732833,0.0683358696,-0.000900261279,0.000797093438,0.000433989801
95346.785232,-0.00331237595,-0.000247769924,0.00354512526,-0.00170506863,0.000490563631,-8.05323943e-05
95346.795257,-0.0117848381,0.00852650129,-0.00662730919,3.1046191e-05,0.00163598917,0.0011114981
95346.805281,-0.0194200091,0.0090391875,0.054873746,-0.000269624696,-0.000477761729,0.00045769196
95346.815304,-0.0160003003,0.00906702706,0.089735216,0.000603625784,-0.000539813424,2.57277861e-05
95346.825328,-0.0174628472,0.00218923997,0.0647445671,0.000824668154,0.000797093438,-0.00207683817
95346.835353,-0.0100602428,-0.00820371278,0.0634007513,-0.00115805515,0.00131268147,-0.0005050404
95346.845377,0.00368636036,-0.00906405536,0.0361719681,-0.000364699576,0.00161521649,0.00117674563
95346.855401,0.0118143564,0.00139484105,0.0327338103,0.000634252152,0.00137286889,-0.000579343177
95346.865425,0.0132251365,0.00211776276,0.0550321514,-0.000336470024,0.000740101794,0.000110948458
95346.875449,0.00195175512,-0.00151547518,0.0598223083,0.00124677923,0.000721992343,-0.00030130893
95346.885474,-0.00161141725,0.00205693481,0.0661065031,-0.00138389133,-0.000785889453,0.000965024345
95346.895498,0.000903268983,-0.0113497597,0.064461074,0.00165930297,-4.95254062e-05,-0.000712767243
95346.905522,-0.0104977939,-0.0141287355,0.0725426736,-0.000565501919,-0.000370702706,0.00093306601
95346.915546,0.00417385162,-0.00816858781,0.0602718056,0.000284046488,0.000170717947,0.00103346724
95346.925571,-0.00738806442,-0.0164112843,0.0322907428,-0.00017108774,0.00126101612,-0.000868029892
95346.935595,-0.0102969741,-0.00924068772,0.0674579177,-0.0013058607,-0.000461516436,-0.00102648791
95346.945619,-0.00673106182,-0.0064130899,0.0530932923,-5.31097176e-05,0.00143172476,-0.000435798429
95346.955643,-0.00563248946,-0.00986015134,0.0631225189,-0.000552186102,0.000170451647,-0.000337794423
95346.965667,0.00170943427,0.00573470773,0.0617751959,5.50146215e-05,4.52831155e-05,-0.000518090092
95346.975692,0.00202167855,0.000487792079,0.0524976645,-0.000197719346,0.000805082964,-0.00159427337
95346.985716,0.00193557117,-0.00330780709,0.0492032991,-0.000874428602,-0.000199461472,-7.29598105e-06
95346.995740,-0.00544993597,-0.0139483477,0.0495043279,-0.000188131991,0.000691898575,-0.000860839151
95347.005764,-0.00541347642,-0.00199055448,0.0450140307,0.000364207634,-0.000223962474,-0.00046216324
95347.015788,-0.00386080361,-0.0196120931,0.0426180755,-0.000218225701,0.000401347701,-0.000644324347
95347.025813,0.00553841797,-0.00778670436,0.0572837297,-0.00044006703,-0.000276426785,-0.000946858898
95347.035837,-0.00473115671,0.00572336949,0.057730889,-0.00169761176,-0.000830896897,0.000709893182
95347.045861,-0.0109151791,0.00791494469,0.0741875182,0.000606555259,-0.000770709477,0.000491780229
95347.055885,0.00195058608,0.00547037768,0.0553331802,-0.000644065149,-0.000578429201,0.000983133912
95347.065910,-0.00619520138,-0.0115960946,0.05233809,-0.000241661503,-0.000282285735,0.000535190105
95347.075934,-0.00192187144,0.00700997751,0.0535322682,0.000552493148,-0.00206873426,0.000486187637
95347.085958,-0.00127122551,0.00224240692,0.0506874002,4.99546295e-05,0.000692431233,-0.000664031133
95347.095982,0.00613959873,0.0216416855,0.0578676671,-0.000385738502,-0.000863387599,0.000222534873
95347.106007,-0.0103429687,0.0210374086,0.0647515814,-0.0001058403,-0.000843147514,0.00112188421
