t,ax,ay,az,gx,gy,gz
96744.097509,-0.602176704,0.563905434,-0.715870653,0.416800364,0.0168193978,0.150262176
96744.107538,-0.824031768,0.585922985,-0.798132756,0.44210945,-0.0069410588,0.150682687
96744.117567,-1.09563403,0.558825281,-0.885136502,0.465749784,-0.0439448814,0.134148984
96744.127596,-1.40029458,0.527596395,-0.904726168,0.46559824,-0.0834898959,0.100766524
96744.137624,-1.67269172,0.424510626,-0.891231896,0.422822817,-0.124290326,0.0552195449
96744.147653,-1.9167866,-0.0103387344,-0.866171689,0.329048141,-0.160852322,-0.000887399704
96744.157682,-1.89918518,0.0159023529,-0.864448518,0.206130191,-0.194932529,-0.0572358977
96744.167711,-1.878029,0.029693672,-0.863478212,0.0758691346,-0.225632914,-0.109296695
96744.177740,-1.74479176,-0.0596104957,-0.716739837,-0.0399181852,-0.2376832,-0.151485698
96744.187768,-1.55282499,-0.173925442,-0.481655654,-0.0981378192,-0.228200474,-0.184798108
96744.197797,-1.34689529,-0.130029747,-0.342539445,-0.0933649028,-0.19964286,-0.217690022
96744.207826,-1.18951526,-0.0896627753,-0.263394596,-0.0738189006,-0.165465185,-0.218069778
96744.217855,-1.01638689,-0.135699062,-0.189651315,-0.0878968993,-0.146926397,-0.227741049
96744.227883,-1.06736582,-0.301478384,-0.289981574,-0.134218053,-0.158197158,-0.174348668
96744.237912,-1.23994518,-0.820999357,0.0140779449,-0.243881435,-0.182258555,-0.0902806606
96744.247941,-1.21998164,-0.851350364,0.012025104,-0.377839492,-0.220198208,-0.00928061844
96744.257970,-1.20546299,-0.902154522,0.206651604,-0.530170218,-0.261431926,0.0425271828
96744.267999,-1.0545143,-0.793270369,0.470179206,-0.681626574,-0.290075832,0.0576869611
96744.278027,-0.820873085,-0.602860975,0.820466224,-0.788979904,-0.286445939,0.0619528134
96744.288056,-0.634479868,-0.40849393,1.14486184,-0.819917039,-0.262648457,0.0622175325
96744.298085,-0.578386846,-0.200880303,1.49235894,-0.792827622,-0.237586253,0.071056566
96744.308114,-0.564051008,-0.0814449455,1.77726543,-0.672569172,-0.219990754,0.113496168
96744.318143,-0.49135245,-0.0793434432,1.97901024,-0.443355934,-0.203133741,0.178856267
96744.328171,-0.424609914,-0.101599114,2.24530613,-0.110250407,-0.182651096,0.238081767
96744.338200,-0.4452279,-0.209649374,2.42389803,0.28512062,-0.148682484,0.273811831
96744.348229,-0.370985656,-0.389720256,2.51803353,0.617057546,-0.132211366,0.28016506
96744.358258,-0.279460963,-0.572207259,2.35350464,0.782781287,-0.172702068,0.271112694
96744.368286,-0.380244227,-0.890401906,1.99962515,0.82922171,-0.259709411,0.274623557
96744.378315,-0.592241439,-1.31136851,1.80638572,0.83453445,-0.331429117,0.28881739
96744.388344,-0.760147106,-1.38300751,2.13698195,0.886629387,-0.334831857,0.293554886
96744.398373,-0.713933051,-1.17115391,2.86611456,0.92600046,-0.260785573,0.282462044
96744.408401,-0.464302055,-0.970400887,3.54632327,0.955297931,-0.166441509,0.250895842
96744.418430,-0.165046721,-0.680917882,3.8678974,0.965550288,-0.0827713768,0.191164329
96744.428459,-0.0591763266,-0.442321125,4.07149748,0.93089722,-0.031031483,0.105068057
96744.438488,-0.0757844932,-0.343740193,4.18282961,0.88797216,-0.0034613727,0.0129892666
96744.448517,-0.0987233972,-0.40430152,4.05443938,0.826112493,-0.0204510085,-0.0773648631
96744.458545,-0.208956736,-0.397091223,3.53717199,0.716968163,-0.0762303855,-0.164405764
96744.468574,-0.580658663,-0.330473007,3.26703695,0.562316521,-0.135630855,-0.22212951
96744.478603,-0.79094118,-0.48213682,3.25471932,0.313546403,-0.194093906,-0.220770226
96744.488632,-0.641983887,-0.777412802,3.02263608,0.00916733595,-0.255744749,-0.15799606
96744.498660,-0.426059418,-0.940523123,2.69422362,-0.285911457,-0.301817441,-0.0756849434
96744.508689,-0.451569561,-0.703068412,2.44105375,-0.48789464,-0.335523748,-0.00947130115
96744.518718,-0.517507064,-0.243472368,1.99801947,-0.589293973,-0.349310123,0.0155344501
96744.528747,-0.461647851,0.270731977,1.68045165,-0.607440726,-0.335752511,-0.00560998374
96744.538776,-0.321890786,0.620802575,1.38033064,-0.566443757,-0.280847454,-0.0671298068
96744.548804,-0.252999036,0.910557017,1.09616474,-0.518422202,-0.175457903,-0.154003979
96744.558833,-0.290429041,1.01692042,0.939428119,-0.456927405,-0.04741658,-0.236034931
96744.568862,-0.457101293,0.977031477,0.559538575,-0.470029102,0.0576800135,-0.307224945
96744.578891,-0.75336804,0.825031455,0.216701289,-0.569689111,0.116319357,-0.337077663
96744.588919,-0.868450317,0.481991121,0.00135290336,-0.701421038,0.117463983,-0.315465019
96744.598948,-0.765000099,0.0929509962,-0.189218184,-0.838042513,0.0522431683,-0.258579926
96744.608977,-0.541042655,-0.228092793,-0.385281439,-0.905056731,-0.0300873901,-0.21666816
96744.619006,-0.38039054,-0.33141069,-0.383423828,-0.876679675,-0.0934932615,-0.217672707
96744.629034,-0.308789458,-0.191484187,-0.412157755,-0.765080706,-0.132657969,-0.273385481
96744.639063,-0.550645254,0.05084909,-0.766727564,-0.669286505,-0.151663625,-0.389290259
96744.649092,-1.20491317,0.393310674,-0.934133465,-0.566089825,-0.146496826,-0.549432264
96744.659121,-2.05440556,0.653951323,-1.03275341,-0.537674443,-0.126552411,-0.72361605
96744.669150,-2.54803546,0.806289345,-0.755088565,-0.58051856,-0.100076326,-0.839065955
96744.679178,-2.19718833,0.6483999,-0.195054635,-0.712255315,-0.0760444935,-0.870985017
96744.689207,-1.38419524,0.41071664,0.538480589,-0.854154126,-0.0648056875,-0.855185018
96744.699236,-0.49173195,0.209072882,1.02800773,-0.978395657,-0.0588063869,-0.820629404
96744.709265,0.33845974,-0.0604918085,1.3680966,-1.02333798,-0.0716510798,-0.76077889
96744.719293,0.897249953,-0.384635354,1.40714617,-1.06902374,-0.107511074,-0.633739458
96744.729322,1.3745226,-0.862992871,1.38133134,-1.12486114,-0.167742186,-0.429696278
96744.739351,1.69061158,-1.07723052,0.841672093,-1.14772202,-0.245927268,-0.218199209
96744.749380,1.47168475,-0.886215779,-0.019498746,-1.10925104,-0.317250722,-0.0478607688
96744.759409,0.997737303,-0.508717368,-0.80210809,-0.943164424,-0.351888054,0.0485741597
96744.769437,0.537854405,0.229682247,-1.52872784,-0.604499296,-0.33105334,0.0421516773
96744.779466,0.0156320269,1.05446207,-2.30627873,-0.148351715,-0.264588588,-0.0564997952
96744.789495,-0.566949835,1.77550957,-2.8981428,0.331609561,-0.175545522,-0.201632486
96744.799524,-0.864871655,2.14020169,-3.16984552,0.815262779,-0.0738218214,-0.324406074
96744.809552,-0.72376829,2.14042351,-3.25576673,1.24555133,0.00508071656,-0.403386102
96744.819581,-0.428342378,2.09829337,-3.34857186,1.52633141,0.0366445024,-0.405185328
96744.829610,-0.139872496,1.78116745,-3.43240691,1.67453836,0.0429434095,-0.326226876
96744.839639,0.194907886,1.18652164,-3.48424465,1.65933333,0.05831411,-0.199255348
96744.849667,0.423249609,0.578898786,-3.26849996,1.61885773,0.104591607,-0.0572482917
96744.859696,0.677777766,-0.0985832004,-3.34951528,1.53089164,0.156784496,0.0492757548
96744.869725,0.776323553,-0.527372604,-3.47437383,1.35197388,0.147307373,0.0807063792
96744.879754,0.647774915,-0.76224139,-3.99659153,1.14069031,0.0575274256,0.0666709904
96744.889782,0.541142632,-1.00443014,-4.39939725,0.98378466,-0.044195206,0.0153508101
96744.899811,0.479235992,-0.952292983,-4.34871745,0.873275145,-0.0925925683,-0.0669784184
96744.909840,0.519704562,-0.468459409,-4.02206908,0.772389813,-0.0624610271,-0.154364453
96744.919869,0.780993664,-0.118245969,-3.53749985,0.654775306,0.0487059717,-0.210214661
96744.929898,1.17161291,0.122659723,-2.9581165,0.575197681,0.232841185,-0.192950995
96744.939926,1.43002441,0.330609011,-2.46560946,0.53597252,0.435158349,-0.0806311156
96744.949955,1.40552067,0.337967265,-2.17289785,0.500884279,0.607105321,0.0824147973
96744.959984,1.16712108,0.291164123,-2.04257811,0.470823064,0.692435152,0.233543067
96744.970013,0.916751357,0.341197845,-2.15134769,0.380351498,0.680560357,0.347956701
96744.980041,0.686632469,0.187772375,-2.42692404,0.312107994,0.543418533,0.430621489
96744.990070,0.517682335,-0.0496417945,-3.64097016,0.238111793,0.348461277,0.462498202
96745.000099,0.0673895406,-0.0617383289,-4.4763595,0.111388474,0.187754667,0.447944566
96745.010128,-0.436708421,0.0745472697,-4.59896589,-0.0324571105,0.10963004,0.456305547
96745.020156,-0.573508609,0.172228458,-4.6622094,-0.137238921,0.123351714,0.514139547
96745.030185,-0.611659914,0.297868844,-4.16049614,-0.277102546,0.227865598,0.572910203
96745.040214,-0.583286052,0.459029201,-2.86543412,-0.306493984,0.369745529,0.589968576
96745.050243,-0.338464794,0.769896208,-2.13056209,-0.26365997,0.519656724,0.540316298
96745.060271,-0.573178208,1.02451877,-1.37671473,-0.229958476,0.666577703,0.423199012
96745.070300,-1.00515998,0.922299624,-0.546069967,-0.203820349,0.756269521,0.230109452
96745.080329,-1.21997046,0.949273555,-0.33244066,-0.198763267,0.754715568,-0.0497371118
96745.090358,-1.36012916,1.24675428,-0.268386413,-0.19646816,0.702573783,-0.369751887
96745.100387,-1.15922687,1.55842632,-0.133911892,-0.152468205,0.606074161,-0.634155319
96745.110415,-0.625587171,1.57018632,-0.2458151,-0.0435755411,0.51645214,-0.798107193
96745.120444,0.0198524942,1.26149972,-0.263557093,0.10451459,0.481978304,-0.801179693
96745.130473,0.927860123,0.509465476,0.076471565,0.217969238,0.513545281,-0.663806961
96745.140502,0.984195612,-0.215854384,0.489896299,0.242706283,0.648698575,-0.404974059
96745.150530,1.02281585,-1.13693526,1.25021665,0.0832772097,0.831815666,-0.0257577423
96745.160559,0.9825599,-2.74205875,2.30638575,-0.21500376,0.95033378,0.333132221
96745.170588,0.00748439458,-3.44079271,2.82010333,-0.655673043,0.992215461,0.544527306
96745.180617,-1.29415783,-3.31614692,3.50017935,-1.10796703,0.950775093,0.624371781
96745.190645,-2.05582273,-2.85896459,3.73529218,-1.4313717,0.835351295,0.601670219
96745.200674,-2.19276291,-2.08125763,3.71482748,-1.55746676,0.680757469,0.516221895
96745.210703,-2.05533612,-1.04969859,3.70256246,-1.50560655,0.518840975,0.429330393
96745.220732,-1.93870705,-0.290390844,3.70395479,-1.25294925,0.336560405,0.373272999
96745.230760,-1.7820356,0.0232569534,3.322224,-0.810242907,0.129478312,0.327712699
96745.240789,-1.85804829,0.296845566,2.90777285,-0.354095326,-0.0806592117,0.245489745
96745.250818,-2.06777825,0.445368048,3.05724094,0.0215858845,-0.264501476,0.131064354
96745.260847,-1.91396219,0.253182438,3.53394309,0.315230533,-0.420045787,0.0693922032
96745.270875,-1.30510402,-0.124714763,3.92117423,0.507553621,-0.526474767,0.081796943
96745.280904,-0.756057206,-0.660301795,4.30595213,0.620548888,-0.563371533,0.141669079
96745.290933,-0.3583872,-1.22152574,4.64602989,0.628180488,-0.561609023,0.190937548
96745.300962,-0.300330623,-1.50387831,4.5578495,0.595655008,-0.570130878,0.17423421
96745.310990,-0.646212976,-1.39674597,4.17146709,0.656970545,-0.557783657,0.0970925454
96745.321019,-0.913460256,-1.21693235,3.88349829,0.798611864,-0.502730304,-0.0144925715
96745.331048,-0.767501706,-0.931431178,3.65113915,0.971413716,-0.43509131,-0.136577995
96745.341077,-0.484980796,-0.474930176,3.2955172,1.10599099,-0.387344026,-0.240387486
96745.351106,-0.328200042,-0.0908284216,3.14282488,1.1557114,-0.365412914,-0.287077771
96745.361134,-0.159322097,-0.0666258909,3.31020682,1.06010924,-0.366460853,-0.26578127
96745.371163,-0.0550617492,-0.2397962,3.46522553,0.782727941,-0.38767054,-0.202539967
96745.381192,-0.0313700632,-0.472066092,3.44953112,0.375454201,-0.432973051,-0.131333173
96745.391221,-0.167375858,-0.581171121,3.00751391,-0.105004013,-0.526105099,-0.0698602285
96745.401249,-0.584727337,-0.578467269,2.38279211,-0.556700365,-0.662218207,-0.0421910446
96745.411278,-1.22043157,-0.497762442,1.80785346,-0.900393025,-0.770824307,-0.0710320186
96745.421307,-1.5888121,-0.424092225,1.76403068,-1.15176405,-0.799460464,-0.147508145
96745.431336,-1.31719588,-0.245678061,1.87282482,-1.30095138,-0.752961152,-0.217432098
96745.441364,-0.685449007,-0.0714257654,1.57360397,-1.44360544,-0.64380216,-0.237467588
96745.451393,-0.167294683,0.26095636,1.60103442,-1.62578799,-0.508368188,-0.196405114
96745.461422,0.324939566,0.602108396,1.58134538,-1.8390968,-0.380872809,-0.106782288
96745.471451,0.777169284,0.930531811,1.22696671,-1.98454143,-0.277201289,-0.0173022087
96745.481479,0.608455808,1.46106777,0.703746555,-2.01617314,-0.186721199,0.0356994931
96745.491508,-0.177022917,1.8522741,0.400583108,-1.83683528,-0.124803499,0.058791763
96745.501537,-0.817561622,1.90909591,-0.320352163,-1.43256427,-0.11563743,0.0553637397
96745.511566,-1.1595629,1.78333149,-1.40248338,-0.916333095,-0.169092679,0.0252705541
96745.521594,-1.19815917,1.51732932,-2.24974611,-0.343776927,-0.259699785,-0.00350570136
96745.531623,-0.821162423,0.90980123,-2.54047619,0.206765055,-0.33641746,-0.016207115
96745.541652,-0.0980474707,0.199697297,-2.15881788,0.694588765,-0.377341204,-0.025499684
96745.551681,0.870967073,-0.236057634,-1.61404991,1.06856821,-0.382774853,-0.0219885718
96745.561709,1.63803646,-0.473552677,-0.909641413,1.30115305,-0.37067371,-0.00309637392
96745.571738,1.90737246,-0.68397442,-0.20967002,1.43430017,-0.335711205,0.01789626
96745.581767,1.67489919,-0.692009112,0.374085561,1.49115144,-0.27498635,0.0244204726
96745.591796,1.21293013,-0.46191134,0.835030756,1.44843565,-0.216833034,-0.00216666439
96745.601824,0.633062499,-0.242800679,0.985336468,1.31020854,-0.198563212,-0.0213717829
96745.611853,0.573248739,-0.05006613,0.789387195,1.10441945,-0.238043242,-0.0486060653
96745.621882,0.586735851,0.456234602,0.378000104,0.891649111,-0.294520103,-0.118930035
96745.631911,0.505507621,0.859780551,0.248648917,0.713067397,-0.325452172,-0.198912204
96745.641939,0.780041478,0.932943329,0.321977188,0.59049861,-0.31106233,-0.243545712
96745.651968,1.10435885,0.838630649,0.386120867,0.558802172,-0.255138868,-0.221950681
96745.661997,1.32979717,0.68039977,0.217220344,0.554942175,-0.164165833,-0.157995136
96745.672026,1.34557503,0.596633545,0.0671484408,0.58999662,-0.0520885523,-0.0593370098
96745.682054,1.17305938,0.622377789,-0.158568194,0.654968127,0.0712978308,0.0602620941
96745.692083,0.844562027,0.617789292,-0.368641854,0.688411876,0.142428986,0.191658734
96745.702112,0.370446605,0.650399914,-0.80801936,0.614129885,0.132353715,0.306207134
96745.712141,-0.137638161,0.565896608,-1.21550594,0.522070273,0.0733636458,0.411205991
96745.722170,-0.50268063,0.452466336,-1.47129271,0.45486088,0.013640927,0.497026875
96745.732198,-0.636574794,0.349022912,-1.56310123,0.389977231,0.0167126179,0.543854072
96745.742227,-0.350061599,0.158720395,-1.10449178,0.342968955,0.0668421005,0.523736252
96745.752256,0.0183558989,0.0290890115,-0.896228389,0.334538206,0.107317089,0.449054315
96745.762285,0.373539529,0.0257757953,-1.02322278,0.382573112,0.138561821,0.366147979
96745.772313,0.479558064,-0.154356306,-1.01164574,0.458156272,0.195969722,0.275510742
96745.782342,0.160732426,-0.187891295,-1.07806906,0.539814635,0.267821825,0.16879922
96745.792371,-0.364933078,0.0321387727,-1.54389852,0.560490116,0.328484899,0.0678680826
96745.802400,-0.915256273,0.188660172,-1.79679542,0.518185004,0.357514418,-0.00759658234
96745.812428,-1.17802853,0.265901744,-1.49630616,0.357860818,0.362657524,-0.059783091
96745.822457,-1.02466416,0.297266275,-1.03256344,0.102043978,0.312255061,-0.110031084
96745.832486,-0.730709487,0.528617445,-1.16984542,-0.259205298,0.249305642,-0.130838351
96745.842515,-0.450748125,0.429837447,-0.820739725,-0.61518927,0.216449684,-0.0873398866
96745.852543,-0.188669187,0.219213442,-0.480879994,-0.895284549,0.189786128,-0.00535233708
96745.862572,-0.0628331686,0.113028245,-0.63750205,-1.0166762,0.163821108,0.0869807888
96745.872601,-0.0359154972,-0.0810759113,-0.861177534,-0.92559667,0.175563774,0.135357379
96745.882630,-0.065939391,-0.0979231291,-0.819719734,-0.600165025,0.263883001,0.0990683425
96745.892658,-0.0712601842,0.134255158,-0.649572427,-0.0634467164,0.415293014,-0.020881762
96745.902687,-0.119936427,0.558039318,-0.494913195,0.498354836,0.571001655,-0.223443122
96745.912716,-0.0737106095,0.980083339,-0.376152376,0.933122261,0.689764029,-0.375266747
96745.922745,0.204030665,1.04595399,-0.835678351,1.28753994,0.741489238,-0.412993626
96745.932773,0.189374985,0.849309645,-1.61177437,1.52459811,0.732419557,-0.386334584
96745.942802,-0.357867999,0.584015617,-2.14833156,1.61785291,0.659219927,-0.359514968
96745.952831,-1.13005228,0.105989232,-2.78901139,1.48594712,0.552179522,-0.323875205
96745.962860,-1.68785144,-0.70168105,-3.21033886,1.0888059,0.46306268,-0.249912025
96745.972888,-1.99450478,-1.61014249,-2.87930307,0.588508173,0.414364642,-0.126190604
96745.982917,-2.01966304,-2.22121409,-2.2346596,0.16718915,0.419935978,0.0149316292
96745.992946,-1.50658653,-2.10836118,-1.43774174,-0.252740488,0.447220332,0.153228788
96746.002975,-0.862377938,-1.64335546,-0.404368416,-0.472859547,0.405302173,0.294377907
96746.013003,-0.582094431,-1.22045153,-0.606375674,-0.4702238,0.29746998,0.427339955
96746.023032,-0.405614194,-0.734087747,-0.915808119,-0.232906864,0.166615552,0.452010675
96746.033061,-0.387956519,-0.0369611127,-1.44031656,0.0946648857,0.0267692459,0.312635465
96746.043090,-0.663035808,0.432683083,-1.93158792,0.226472183,-0.0851847167,0.124440274
96746.053118,-0.81477696,0.235145042,-1.97290134,0.113749369,-0.158613929,0.0208001703
96746.063147,-0.494455676,-0.125808842,-2.16446729,-0.269076304,-0.203091928,0.0316067439
96746.073176,-0.128286478,-0.229923333,-2.20741854,-0.821929649,-0.225358077,0.132120563
96746.083205,0.0791193331,-0.249779834,-2.09632431,-1.32027258,-0.240404406,0.258910193
96746.093233,0.0339011399,-0.0353323424,-2.32162652,-1.64450468,-0.2647542,0.321919515
96746.103262,-0.323301164,0.473807887,-2.84445212,-1.72141661,-0.314472758,0.296412571
96746.113291,-0.596163727,0.89208934,-3.67848887,-1.59407772,-0.384730929,0.203810735
96746.123320,-0.588218577,1.15349513,-4.40934874,-1.31898894,-0.479515248,0.100121884
96746.133348,-0.288794481,0.966287965,-5.00721994,-0.944712535,-0.556161576,-0.0122057164
96746.143377,-0.123503892,0.849758265,-5.30971762,-0.508113937,-0.599927955,-0.125308559
96746.153406,-0.0278908519,0.703236309,-5.69548862,-0.0743829915,-0.638708347,-0.194025577
96746.163435,0.329994219,0.561419353,-6.02013208,0.273967518,-0.649887496,-0.181370498
96746.173463,0.784270786,0.462035836,-5.86562014,0.477063908,-0.628147059,-0.0988500651
96746.183492,1.03913943,0.314562863,-5.36753735,0.582977041,-0.574467057,0.0329769429
96746.193521,1.26585267,0.0602346484,-4.63226434,0.663040443,-0.482934469,0.171624838
96746.203550,1.49942294,-0.239091979,-3.58079247,0.717672511,-0.360602164,0.272535189
96746.213578,1.62645855,-0.662736694,-2.23701931,0.737329586,-0.235420027,0.347881361
96746.223607,1.82216466,-1.28640738,-1.1188266,0.732505008,-0.112623536,0.407449855
96746.233636,2.05692414,-1.781632,0.101285104,0.674894198,-0.0181899715,0.428679778
96746.243665,2.2867713,-2.04968629,1.26126646,0.53462921,0.0292750139,0.40769194
96746.253693,2.52927949,-1.99472837,1.99795576,0.314035042,0.0555859794,0.386143788
96746.263722,2.78824695,-1.75391003,2.39162365,0.0308800517,0.080541401,0.398278489
96746.273751,2.42882765,-1.36618409,2.4775209,-0.291197316,0.134028843,0.433351501
96746.283780,1.36429346,-1.02302795,2.53490341,-0.539327518,0.205397568,0.428674741
96746.293808,0.162557595,-0.758583379,2.5360935,-0.77620186,0.24017579,0.346009149
96746.303837,-0.720570297,-0.682471468,2.88997474,-1.04814436,0.216735712,0.243793576
96746.313866,-0.75950457,-1.05477224,3.59229767,-1.25158252,0.207888431,0.148162125
96746.323895,-0.357298674,-1.69340631,4.5640051,-1.24398662,0.2707806,0.0334589731
96746.333923,-0.119904461,-2.07254972,5.73771804,-1.08963861,0.377097166,-0.107398548
96746.343952,0.158806389,-1.99911214,6.36193891,-0.775943772,0.532530433,-0.236531229
96746.353981,0.33499864,-1.65562823,6.35513799,-0.235375346,0.643073744,-0.403012083
96746.364010,-0.134677375,-0.828602087,5.83117608,0.442657485,0.64042551,-0.557350801
96746.374038,-0.706790632,0.0579088724,4.71563242,1.12220143,0.545064098,-0.650879965
96746.384067,-1.50700081,0.395087036,3.74247069,1.54167162,0.3774418,-0.633552657
96746.394096,-2.2842837,-0.097018143,3.49386126,1.72344588,0.179267428,-0.520963238
96746.404125,-2.72077103,-0.743411309,3.78467025,1.7973641,0.0061744888,-0.336275147
96746.414153,-2.50614892,-1.07545138,4.20103864,1.79937349,-0.135855087,-0.135369987
96746.424182,-1.70529372,-1.31295271,4.78835863,1.72555457,-0.263104105,0.00700686064
96746.434211,-0.82566558,-1.1360438,5.28975976,1.48699079,-0.358373099,0.075219198
96746.444240,-0.128218518,-1.09913665,6.23866616,1.16758428,-0.386400216,0.0880274091
96746.454268,0.653603402,-0.846468218,7.07991416,0.90931706,-0.331619525,0.0607893978
96746.464297,1.04480944,0.0477104267,7.1731793,0.710618361,-0.250461274,0.0135971185
96746.474326,1.01609662,1.0624595,6.67953011,0.437347128,-0.19062353,0.0138322756
96746.484355,1.02458849,1.40121331,6.25453827,0.160791962,-0.193799087,0.0943691943
96746.494383,1.02217624,1.43731748,5.64989071,-0.0644648457,-0.256739163,0.201216294
96746.504412,0.677465193,1.6818639,5.08213758,-0.33351417,-0.315289551,0.302760466
96746.514441,0.35358271,1.61352233,4.93665417,-0.622820512,-0.336549305,0.3998508
96746.524470,0.225376017,1.31247807,4.57208203,-0.918812768,-0.370983982,0.493280097
96746.534498,0.0451105253,0.980846213,3.815405,-1.28427781,-0.436402404,0.565007283
96746.544527,-0.0662567133,0.636657512,3.20255367,-1.62560131,-0.517281824,0.590547516
96746.554556,-0.0805519268,0.601084533,2.462079,-1.78471591,-0.558199697,0.556455864
96746.564585,0.0360081677,0.961571311,1.81302063,-1.76844801,-0.554901892,0.472806497
96746.574613,0.0840403042,1.42302621,1.06813692,-1.55460121,-0.536498123,0.358464761
96746.584642,-0.111480953,1.70510507,-0.0311371614,-1.24268641,-0.465888643,0.203429906
96746.594671,-0.459274619,2.00324514,-0.68495529,-0.895827846,-0.366439276,0.0206145484
96746.604700,-0.760921378,2.12987246,-1.3894088,-0.62519689,-0.275075548,-0.121083462
96746.614728,-0.840487447,1.76880422,-1.82866414,-0.430576787,-0.179583126,-0.16671832
96746.624757,-0.777291644,1.06233923,-1.6712296,-0.264598207,-0.095731103,-0.114385084
96746.634786,-0.670819886,0.524193455,-1.50804687,-0.172333793,-0.0126127816,-0.0366633881
96746.644815,-0.471715802,0.214066306,-1.20120736,-0.0274008335,0.0377694321,0.0139145673
96746.654843,-0.328698347,0.422441711,-0.826484406,0.143579691,0.0661020045,-0.0123263581
96746.664872,-0.178274488,1.27655087,-0.399267878,0.363288625,0.126408747,-0.0834000047
96746.674901,0.176437944,1.89193376,-0.186140676,0.551208719,0.17215333,-0.123284304
96746.684930,0.618556638,2.13966364,-0.515345158,0.554853245,0.145212523,-0.0919916268
96746.694958,0.768606695,2.08346858,-1.0267644,0.331856384,0.079324602,0.00787877927
96746.704987,0.69556126,1.61681071,-1.42756463,0.0219406178,0.0183669728,0.13320288
96746.715016,0.474238988,1.09919304,-2.16759097,-0.324823991,-0.0267917171,0.219013392
96746.725045,-0.0251070299,0.579299366,-2.95492267,-0.737659768,-0.0411102,0.235856562
96746.735073,-0.641566903,-0.02228596,-3.25101165,-1.00194229,-0.0125177066,0.184300422
96746.745102,-0.695048245,-0.227928396,-3.65428966,-1.0504619,0.0523062971,0.110203548
96746.755131,-0.140547473,-0.19370537,-3.96920551,-0.872533993,0.152122638,0.051035038
96746.765160,0.820258557,-0.0210153921,-3.93697439,-0.474575953,0.284502244,6.50648244e-05
96746.775188,1.53513226,0.373729483,-3.83547275,0.0279375231,0.41345597,-0.0279191632
96746.785217,1.79740007,0.522424107,-3.86297625,0.502803369,0.478066123,-0.0404796984
96746.795246,1.54716348,0.596305482,-4.19015361,0.905218168,0.45455069,-0.06148911
96746.805275,0.858097654,0.584362494,-4.64321244,1.2107483,0.394861258,-0.0685898971
96746.815303,0.293217965,0.233803638,-4.72343281,1.3785461,0.335071153,-0.0422277946
96746.825332,0.0124661102,-0.110283118,-4.5610158,1.39576815,0.289165175,0.0432495538
96746.835361,-0.0468436454,-0.467097437,-4.34590882,1.30212425,0.283706254,0.166992276
96746.845390,-0.0948815905,-0.525704013,-4.00792716,1.14477883,0.339951939,0.258970662
96746.855418,-0.159667695,-0.303068174,-3.5184836,0.942648872,0.427407241,0.313044383
96746.865447,-0.232866933,-0.235754523,-3.14402953,0.664072319,0.466156489,0.38632126
96746.875476,-0.559646709,-0.469341343,-2.84482914,0.300205185,0.447659767,0.476449563
96746.885505,-1.01101126,-0.875983066,-2.16221454,-0.0681776488,0.452147729,0.547932043
96746.895533,-1.01482505,-0.974102226,-0.778228617,-0.339352683,0.467903263,0.562941863
96746.905562,-0.576948666,-0.830431275,0.293510388,-0.560080008,0.414683974,0.517740323
96746.915591,0.18222714,-0.684543452,0.745236503,-0.718516783,0.279902196,0.428039147
96746.925620,0.865734141,-0.554798188,0.956349443,-0.727985398,0.132086105,0.298242285
96746.935648,1.14711319,-0.255718832,0.84468355,-0.52929707,0.0712573816,0.0587775063
96746.945677,0.667037907,-0.113625387,0.532554706,-0.185837434,0.106280348,-0.212255047
96746.955706,-0.152663242,0.135135019,-0.219069132,0.156653329,0.178032032,-0.477535741
96746.965735,-1.18451051,0.151488635,-1.09318304,0.391990229,0.198315731,-0.630023525
96746.975763,-1.70763985,-0.151153985,-1.93385937,0.524379416,0.136749572,-0.602775143
96746.985792,-1.47073648,-0.522452902,-2.28066147,0.543011411,0.0619858456,-0.450664715
96746.995821,-0.810053292,-0.690853147,-2.10037505,0.441462978,0.00374437996,-0.245269449
96747.005850,0.0369535588,-0.768576876,-1.81400082,0.280197396,-0.0112758485,-0.0569397706
96747.015878,0.972690175,-0.702266814,-1.39857059,0.143910362,-0.0137051839,0.0598041553
96747.025907,1.5944098,-0.403233452,-1.27948946,0.0684808633,-0.0401674184,0.0578057196
96747.035936,1.5458315,-0.00182806832,-1.45280546,0.0893307543,-0.052067754,-0.0459899168
96747.045965,1.27735372,0.424101315,-1.68829237,0.154763012,-0.0254760879,-0.183346437
96747.055993,1.07885608,0.721070803,-1.83778093,0.20380406,0.0311006372,-0.276619152
96747.066022,0.848728207,0.732749039,-2.02089585,0.192725851,0.100985712,-0.29252194
96747.076051,0.608613958,0.692579818,-2.13933401,0.0467622532,0.108195691,-0.222914891
96747.086079,0.268397303,0.442337265,-2.33689248,-0.189371453,0.0376474847,-0.066510902
96747.096108,-0.175264438,-0.139417772,-2.35816732,-0.428912655,-0.0451147716,0.117073311
96747.106137,-0.450112092,-0.657800407,-2.05552936,-0.670359627,-0.107203708,0.252188518
96747.116166,-0.322141984,-0.886189695,-1.682823,-0.899001614,-0.136651614,0.305377438
96747.126194,0.0267262524,-0.854546895,-1.40680008,-1.05984379,-0.145733782,0.293505057
96747.136223,0.138150007,-0.676056487,-1.22981094,-1.14409103,-0.130098366,0.23660317
96747.146252,-0.100049659,-0.490758956,-1.14649377,-1.18283834,-0.091688932,0.158850579
96747.156281,-0.338577059,-0.163728311,-1.20648559,-1.17581643,-0.0287967856,0.0724128921
96747.166309,-0.348982754,0.172598899,-1.53343441,-1.11727883,0.0616404366,-0.00516152678
96747.176338,-0.406053316,0.379976561,-2.06285634,-0.966090337,0.174287624,-0.0911664452
96747.186367,-0.783481658,0.728830623,-2.62209824,-0.771701173,0.259046174,-0.214366944
96747.196396,-1.25265297,1.14895018,-3.1530563,-0.632967786,0.260664589,-0.32424231
96747.206424,-1.20500421,1.08191787,-3.65111513,-0.561529831,0.196893594,-0.386228726
96747.216453,-0.818216213,0.829263978,-3.66235081,-0.541676478,0.100199281,-0.432660417
96747.226482,-0.666769807,0.525417736,-3.31083103,-0.518396215,0.0312311303,-0.480396764
96747.236511,-0.436757301,0.337485546,-2.63538033,-0.459122763,0.0042969858,-0.519494639
96747.246539,-0.000613452948,0.208968764,-1.97669021,-0.441539244,0.0232994397,-0.524903224
96747.256568,0.422660192,-0.0624959149,-1.30114774,-0.371604101,0.0843430896,-0.49436851
96747.266597,0.53074892,-0.444749923,-0.614324588,-0.232113854,0.157719037,-0.434812502
96747.276626,0.22473907,-0.845857465,0.117155458,-0.0714014033,0.203984535,-0.348013447
96747.286654,0.21975582,-1.13739748,0.712282912,0.0191431409,0.225779316,-0.228321106
96747.296683,0.536277803,-1.50320143,1.11031076,-0.0428621741,0.186479843,-0.0992182504
96747.306712,0.491682436,-1.84751025,1.14075266,-0.182136179,0.0908491899,-0.00691495293
96747.316741,0.10679523,-1.88398018,0.936148366,-0.369389669,-0.00532608026,0.0269777689
96747.326769,-0.201872733,-1.94775458,0.98486885,-0.645866827,-0.059111816,-0.0198251579
96747.336798,-0.338453141,-1.88299058,1.27728879,-0.865991966,-0.0934245075,-0.149808721
96747.346827,-0.298012774,-1.58440906,1.41368931,-0.888331131,-0.0164375875,-0.390508966
96747.356856,-0.328127817,-1.34780789,2.39183233,-0.799768225,0.150613717,-0.659570203
96747.366884,-0.231566481,-1.04499282,3.80491867,-0.53090723,0.331557399,-0.809480892
96747.376913,0.277650449,-0.966462159,4.90388529,-0.0939200232,0.530556506,-0.869623349
96747.386942,0.316216563,-0.611781729,6.05299571,0.397830798,0.682068831,-0.88139479
96747.396971,0.0636024141,-0.0814834509,6.62238725,0.903303011,0.781267292,-0.862684176
96747.406999,0.172638625,0.493016519,6.68533792,1.46693765,0.839538879,-0.775075243
96747.417028,0.0598076341,0.730215502,6.53573538,2.02187203,0.828951723,-0.591033266
96747.427057,-0.418362617,0.573736727,6.14689506,2.45740889,0.7318039,-0.324055628
96747.437086,-0.891525268,0.0218961134,5.32913607,2.65983103,0.482734687,-0.0402878236
96747.447114,-1.24037772,-0.541703034,4.42346324,2.46832989,0.115268513,0.247357546
96747.457143,-1.1429323,-1.05666229,3.95190489,1.91644858,-0.258125835,0.485997005
96747.467172,-0.820726516,-1.52798253,3.75634257,1.2417389,-0.551077538,0.613654329
96747.477201,-0.497554665,-1.50604045,3.44518929,0.721835538,-0.698403352,0.577787115
96747.487229,-0.282779586,-0.698106187,3.17741046,0.328093811,-0.682639056,0.364589616
96747.497258,-0.149894918,0.300612882,3.21216613,0.0415879963,-0.515271896,0.0932966087
96747.507287,0.297463421,0.669880275,3.00599006,-0.111515001,-0.301730299,-0.126528428
96747.517316,0.893940171,0.845132432,2.22603795,-0.146992312,-0.080916443,-0.261793868
96747.527344,1.19579465,0.907948369,1.61472158,-0.208770723,0.13218624,-0.318857418
96747.537373,1.33219971,0.722793096,1.23520146,-0.348738984,0.277515746,-0.285447524
96747.547402,1.296218,0.403727183,0.519229945,-0.563311771,0.291886962,-0.180263029
96747.557431,0.769114718,0.0955365831,-0.454193062,-0.806472973,0.191664479,-0.0465361301
96747.567459,0.0189391787,-0.00944014162,-1.13922992,-1.05805303,0.0504823242,0.0834253345
96747.577488,-0.384439012,-0.0505219657,-1.53340576,-1.21281625,-0.0657292317,0.176389634
96747.587517,-0.273145204,0.0687537627,-1.85767513,-1.20671655,-0.116804668,0.207260727
96747.597545,-0.0620502746,0.428466597,-1.7293264,-1.01398434,-0.0832248713,0.200663536
96747.607574,-0.0161105256,0.663636851,-1.22293462,-0.711767272,0.0178101313,0.197869359
96747.617603,-0.0739830607,0.658257934,-0.383180667,-0.347762422,0.163736707,0.199749007
96747.627632,-0.106546346,0.651953281,1.76474029,0.0674486226,0.329149104,0.180566802
96747.637660,-0.146278381,0.678616101,1.76573749,0.457786812,0.449870474,0.148977442
96747.647689,-0.255369656,0.587187306,2.2565652,0.669555767,0.474985666,0.128576024
96747.657718,-0.661838196,0.247679347,2.19756882,0.606050058,0.391708619,0.143331273
96747.667747,-1.1461962,0.123412039,1.75006587,0.398318692,0.175518012,0.275414987
96747.677775,-1.31061928,-0.0545090443,0.879121826,0.168046325,-0.100838752,0.51224251
96747.687804,-1.36357448,-0.354518192,0.109570701,-0.114900143,-0.386286729,0.776219263
96747.697833,-1.51209112,-0.330057741,-0.386761448,-0.422447042,-0.640698546,1.01678361
96747.707862,-1.57209857,-0.214575943,-0.831867853,-0.691286222,-0.793859297,1.16932441
96747.717890,-1.46405379,-0.151662391,-0.719747787,-0.860256092,-0.8033266,1.1892835
96747.727919,-1.31170298,-0.000129548171,-0.30125291,-0.855852024,-0.697487229,1.0904714
96747.737948,-1.36406255,0.141074939,0.105761957,-0.71881719,-0.518834108,0.898206427
96747.747977,-1.35867677,0.0991754602,0.425842637,-0.496551619,-0.31672337,0.633227779
96747.758005,-1.32220918,0.340224104,0.3783175,-0.239092932,-0.15042361,0.33198054
96747.768034,-1.41763691,0.631598402,0.204685857,-0.0441559376,-0.0938476856,0.0930824865
96747.778063,-1.37313463,0.672070698,-0.0272594431,0.122901498,-0.140085229,-0.0453819196
96747.788092,-1.16085454,0.777971305,-0.311022024,0.289008989,-0.199005538,-0.139137701
96747.798120,-0.996147965,1.21582306,-0.295291956,0.461442008,-0.195190289,-0.194956751
96747.808149,-0.738201889,1.55300926,-0.122846308,0.561744913,-0.138214358,-0.201857806
96747.818178,-0.315030033,1.52305047,0.175092683,0.502845093,-0.0718712817,-0.16048959
96747.828207,0.389066184,1.15031263,0.540754379,0.280562504,-0.0220009323,-0.0887424361
96747.838235,0.909295196,0.580418104,0.773140409,-0.142761872,-0.0500757109,-0.0180696036
96747.848264,0.81798652,-0.132387416,0.584490061,-0.567474023,-0.107404509,-0.0116292799
96747.858293,0.553248227,-0.515547433,0.0045742035,-0.852108554,-0.150844806,-0.115536564
96747.868322,0.263308327,-0.29456075,-0.763829505,-0.975972132,-0.179238104,-0.291764335
96747.878350,0.0932938337,-0.0438042201,-1.69144645,-0.931855039,-0.191145891,-0.4658653
96747.888379,0.046924315,0.174167719,-2.57167329,-0.793334977,-0.216562563,-0.558076427
96747.898408,0.0485163151,0.167046927,-3.07257991,-0.553776697,-0.257974469,-0.534879253
96747.908437,0.270704301,-0.0161803001,-3.32826498,-0.20988004,-0.288587504,-0.45844333
96747.918465,0.554495999,-0.0181858677,-3.53740691,0.114905505,-0.238989317,-0.375541792
96747.928494,0.897265736,0.119350672,-3.174261,0.358112588,-0.127067574,-0.245425315
96747.938523,1.50367461,0.105493119,-2.77796334,0.488785907,-0.0100567975,-0.0315071728
96747.948552,1.85932681,0.0433047391,-2.28667854,0.537062331,0.0452815582,0.204523473
96747.958580,1.7826992,0.0901801798,-2.07819361,0.547761544,0.00400655704,0.336974426
96747.968609,1.21416413,0.212853643,-2.42297911,0.428908451,-0.0796590458,0.310470118
96747.978638,0.272933375,0.432443319,-2.43929954,0.192319333,-0.147794956,0.175558134
96747.988667,-0.339273006,0.214744717,-1.69157388,-0.019468016,-0.17142705,-0.00266434082
96747.998695,-0.582036856,-0.283421078,-0.502246607,-0.190238164,-0.133450099,-0.175812693
96748.008724,-0.195633254,-0.797678322,0.870109668,-0.384107218,-0.0693472858,-0.301854269
96748.018753,0.643871112,-1.26611468,1.95057968,-0.528868989,-0.00477095566,-0.341227488
96748.028782,1.29962357,-1.73807051,2.54035759,-0.575344876,0.0565648366,-0.313545005
96748.038810,1.3842999,-1.89262233,2.8084544,-0.512031631,0.12972667,-0.286598341
96748.048839,1.03042611,-1.71219825,2.64571064,-0.361529217,0.151727832,-0.319176779
96748.058868,0.401438613,-1.17638092,1.69142313,-0.251291648,0.0808810954,-0.417908953
96748.068897,-0.465578761,-0.612651352,0.753239192,-0.216362179,-0.0391446437,-0.547647522
96748.078925,-1.09980547,-0.553595059,0.247024531,-0.297850893,-0.173729354,-0.660927997
96748.088954,-1.29826468,-0.79995182,0.0308870409,-0.46127765,-0.284374916,-0.722702966
96748.098983,-0.986307977,-0.84546116,0.0602154267,-0.579420284,-0.294331395,-0.721248315
96748.109012,-0.391073701,-0.709323235,0.544376661,-0.558121399,-0.20682072,-0.709934698
96748.119040,0.133384071,-0.409296625,0.911035552,-0.413287745,-0.0911647017,-0.742406593
96748.129069,0.459492012,0.0562011186,0.936689634,-0.176740468,0.000332726158,-0.805013822
96748.139098,0.426023713,0.494746996,0.839564307,0.0845529204,0.0616434876,-0.836074756
96748.149127,0.35955393,0.631920693,0.807151984,0.339344486,0.0949913253,-0.800752447
96748.159155,0.375615386,0.730567822,0.800798816,0.551478549,0.0973037471,-0.680135534
96748.169184,0.39826718,0.703648105,0.871283972,0.545181259,0.105072184,-0.497951077
96748.179213,0.35198196,0.51479164,1.52660491,0.274126872,0.034669659,-0.174779908
96748.189242,0.630349221,-0.0973044126,1.87728823,-0.158452273,-0.100046874,0.244029059
96748.199270,0.957389219,-0.512801423,2.24566386,-0.570176736,-0.251916313,0.556598379
96748.209299,0.777565589,-0.165447975,2.2305113,-0.85908337,-0.366545134,0.664705171
96748.219328,0.498884221,0.451468411,2.02468536,-0.98261197,-0.392075264,0.611465408
96748.229357,0.506108436,0.91812906,1.8422438,-0.874239699,-0.33295896,0.460270001
96748.239385,0.324883927,1.38624093,1.28041832,-0.635308341,-0.208130204,0.258293732
96748.249414,-0.0737830172,1.85567821,0.976796019,-0.316179291,-0.0170651722,0.0703472857
96748.259443,-0.0974846492,2.00384179,1.01340755,-0.0185462953,0.148390106,-0.0558569889
96748.269472,0.274375683,1.8211654,1.08802001,0.207294553,0.186756126,-0.0792792227
96748.279500,0.658222951,1.21898145,1.20316556,0.376161351,0.140359602,-0.0742596995
96748.289529,0.858957486,0.67382989,1.72450882,0.457120373,0.07344555,-0.0988577168
96748.299558,1.05625445,0.235222345,2.25280613,0.465194031,-0.0136541958,-0.125129
96748.309587,1.25253346,-0.279514499,2.36127762,0.454171731,-0.059428611,-0.159451292
96748.319615,1.29021204,-0.60615629,2.55768223,0.438182904,-0.0484731655,-0.175035835
96748.329644,1.43240722,-0.711318939,2.53475787,0.425991221,-0.0140392893,-0.157237143
96748.339673,1.61412762,-0.612655443,2.18544525,0.377304657,0.0234550898,-0.0989389431
96748.349702,1.74422597,-0.480654034,1.98779092,0.318459167,0.0517418523,-0.0140501523
96748.359730,1.60434301,-0.325495621,1.92905875,0.265372529,0.0646728341,0.0740930204
96748.369759,1.18553483,-0.190505843,2.03501269,0.180975332,0.0166509793,0.1759544
96748.379788,1.16163015,-0.279385465,1.83345201,0.0102581876,-0.0824897225,0.293178483
96748.389817,1.21572298,-0.513135039,1.48589646,-0.203741194,-0.191284382,0.387071146
96748.399845,0.847615569,-0.503937587,0.963464243,-0.433177278,-0.29032948,0.428966953
96748.409874,0.562678976,-0.358870359,0.174721511,-0.668487028,-0.377554917,0.432267411
96748.419903,0.512086415,-0.225235358,-0.791186883,-0.809024469,-0.456967973,0.450336142
96748.429932,0.793698467,-0.0402632595,-1.9108976,-0.799328164,-0.397840493,0.399988278
96748.439960,0.959900179,0.599239928,-2.62451524,-0.707814232,-0.193576031,0.297485604
96748.449989,0.921754353,1.11680162,-3.22340994,-0.583296255,0.0476632257,0.248872026
96748.460018,1.10461392,1.12901725,-3.98799789,-0.39641209,0.242550946,0.293048783
96748.470047,1.34430165,1.00750465,-4.58187563,-0.0789822126,0.353744305,0.346632643
96748.480075,1.3021753,1.10912729,-5.20334165,0.279603376,0.367011136,0.337369903
96748.490104,0.999236894,1.31711157,-5.64101878,0.622724517,0.31118486,0.286087557
96748.500133,0.794360365,1.23858778,-5.82699961,0.927713438,0.271759159,0.254542156
96748.510162,0.936656154,1.01178686,-5.62586388,1.14501224,0.269445157,0.274469509
96748.520190,1.19218216,0.831633557,-5.55454753,1.30961214,0.308756328,0.325626178
96748.530219,1.06576389,0.718194078,-5.64914363,1.44568656,0.37833727,0.347275003
96748.540248,0.586195826,0.788830115,-5.84741053,1.51972757,0.436856783,0.313498123
96748.550277,0.0719387283,0.789757605,-6.23639641,1.43680845,0.445692337,0.24189934
96748.560305,-0.288734037,0.552959458,-6.65641864,1.1449617,0.414767987,0.196904956
96748.570334,-0.584212994,-0.0588563894,-6.62104571,0.67516373,0.381422288,0.228131055
96748.580363,-0.659573685,-0.720319918,-6.08824407,0.143323555,0.357096976,0.299862756
96748.590392,-0.576215456,-1.04732075,-5.47428274,-0.404418335,0.335887021,0.364578112
96748.600420,-0.479489797,-1.09230629,-4.67766708,-0.78265597,0.367676384,0.395995422
96748.610449,-0.46502668,-0.778426509,-3.96736017,-0.937981621,0.456778563,0.385984584
96748.620478,-0.468823807,-0.278361748,-3.47187149,-0.887581066,0.519902713,0.348456665
96748.630507,-0.698597097,0.167533322,-3.40716784,-0.709331409,0.497941173,0.294430717
96748.640535,-1.36336844,0.566838784,-3.50848126,-0.494678483,0.402682311,0.225142195
96748.650564,-1.97719065,0.797563456,-3.59085267,-0.314885543,0.295664764,0.172872855
96748.660593,-2.20023412,0.879048584,-3.33468186,-0.149549858,0.227023131,0.128339215
96748.670622,-2.18197614,0.976692966,-2.82028565,-0.00588269949,0.186989418,0.0872146849
96748.680651,-1.98774712,1.03754491,-2.29590697,0.0814745715,0.183710805,0.0421593253
96748.690679,-1.57214679,1.05221005,-1.64464496,0.134802773,0.197622097,0.0132355307
96748.700708,-1.07010986,1.03677049,-1.09653177,0.165568947,0.220865092,-0.00450405216
96748.710737,-0.753631075,0.896611713,-0.485525189,0.222390949,0.263125456,-0.0294240501
96748.720766,-0.646589554,0.687586539,0.123753541,0.317859693,0.31288398,-0.047941805
96748.730794,-0.561625425,0.4188309,0.665861353,0.441799744,0.360895968,-0.0700021025
96748.740823,-0.632262338,0.224290252,1.03552469,0.540669306,0.387085236,-0.0701810654
96748.750852,-0.848375936,-0.166209533,1.27343912,0.525743886,0.35965333,0.00958407002
96748.760881,-0.90906867,-0.752313578,1.35162068,0.389720037,0.248249314,0.174986346
96748.770909,-1.04064776,-1.15622325,1.14966837,0.254458888,0.0903140147,0.349613263
96748.780938,-1.32781811,-1.15145888,1.03060243,0.153183653,-0.0801045905,0.488544239
96748.790967,-1.48524812,-0.900795728,0.833451962,0.108341075,-0.229964131,0.552749052
96748.800996,-1.61192745,-0.536150003,0.646712416,0.134785204,-0.32253533,0.535960509
96748.811024,-1.59649915,-0.233484423,0.713433836,0.22832474,-0.347319775,0.426486744
96748.821053,-1.42349323,-0.0136006588,0.915754398,0.372634782,-0.315731757,0.234757542
96748.831082,-1.22300836,0.0774719432,1.20744368,0.555617615,-0.234455281,0.00870256389
96748.841111,-0.972402055,0.0327871445,1.64075619,0.703429206,-0.131450066,-0.216997669
96748.851139,-0.70048291,-0.0728312118,2.01652894,0.781198843,-0.033321106,-0.404588894
96748.861168,-0.325645901,-0.281563869,2.22436505,0.776586338,0.0344611247,-0.525011704
96748.871197,-0.0587910902,-0.423362961,2.46501505,0.719193324,0.0739523385,-0.56314014
96748.881226,-0.0300654012,-0.534580233,2.65146,0.667838558,0.0698047344,-0.54427831
96748.891254,-0.292786674,-0.492518878,2.46629399,0.660723134,0.0328326028,-0.528257535
96748.901283,-0.736036235,-0.283509614,2.11116421,0.593855902,-0.0444334234,-0.510092662
96748.911312,-0.982527655,-0.23158522,1.93912655,0.496639594,-0.152688258,-0.460299269
96748.921341,-0.942650402,-0.480766079,2.00741216,0.37869726,-0.263390803,-0.394068853
96748.931370,-0.784688403,-0.643622828,2.44730989,0.267287626,-0.349435681,-0.320662276
96748.941398,-0.397002141,-0.588997395,2.87963455,0.163988962,-0.399325484,-0.270390854
96748.951427,-0.0377695595,-0.420302989,3.24737071,0.103838271,-0.399412566,-0.256042794
96748.961456,0.110819535,-0.187237197,3.5037087,0.0657579964,-0.332419687,-0.269824133
96748.971485,0.266912252,-0.113304667,3.82544591,0.0332114985,-0.237749883,-0.269204662
96748.981513,0.134963906,-0.196279623,3.91111286,-0.0583304027,-0.192887076,-0.23741986
96748.991542,-0.18669723,-0.469264406,3.69257415,-0.221113459,-0.209750214,-0.165921436
96749.001571,-0.278984011,-0.673843779,3.38591,-0.392329947,-0.28152188,-0.0437878046
96749.011600,-0.30772446,-0.786566195,2.86090062,-0.482048408,-0.394736313,0.100666045
96749.021628,-0.412651619,-0.741444832,2.18402544,-0.480188982,-0.517436379,0.220225467
96749.031657,-0.456034103,-0.586679583,1.73460176,-0.407282815,-0.626186603,0.267245724
96749.041686,-0.355694308,-0.391890732,1.39394649,-0.289074943,-0.68796634,0.217494919
96749.051715,-0.0883669845,-0.278169696,1.2999168,-0.199363158,-0.654920512,0.086410946
96749.061744,0.215764467,-0.233781689,1.70203454,-0.116777995,-0.535644942,-0.106285804
96749.071772,0.245015587,-0.0875428971,2.07347365,-0.0261370437,-0.36826291,-0.35080205
96749.081801,0.171442109,0.198256195,2.1576296,0.0493768854,-0.203477659,-0.59792559
96749.091830,0.197004274,0.434646528,2.13035932,0.0775262332,-0.0936033662,-0.761862324
96749.101859,0.33868416,0.444561481,2.14680601,0.0515257893,-0.0624872568,-0.821158634
96749.111887,0.321214335,0.2757507,2.05763018,-0.025097345,-0.0736155446,-0.813278363
96749.121916,0.130557433,0.0544546768,2.05725317,-0.134835289,-0.0943796794,-0.753185199
96749.131945,0.0183104524,-0.0932967114,2.0843896,-0.293083535,-0.1379442,-0.658125268
96749.141974,0.0329355554,-0.16847167,1.79367237,-0.455894546,-0.19289399,-0.538766132
96749.152002,0.100279564,-0.197025272,1.46212688,-0.601371543,-0.216904529,-0.405208842
96749.162031,0.226949111,-0.044133452,1.35739166,-0.685510949,-0.220765569,-0.25268294
96749.172060,0.427614161,0.0721061053,0.896904736,-0.683040337,-0.206902483,-0.101841786
96749.182089,0.535826917,0.240420754,0.366031434,-0.610863344,-0.16177603,0.0113327064
96749.192117,0.464033601,0.50528819,0.101421297,-0.498689697,-0.107472316,0.0880091105
96749.202146,0.373915377,0.609919362,-0.173197023,-0.352459506,-0.0654143404,0.132252737
96749.212175,0.185133146,0.831003953,-0.37730213,-0.184301914,-0.0330292332,0.14528571
96749.222204,0.104349956,1.00335111,-0.534743101,-0.0334958928,-0.00711268246,0.157040371
96749.232233,0.126006565,1.0422053,-0.685320616,0.144595279,0.0143404108,0.167013912
96749.242261,0.0231877761,1.00742055,-0.755114868,0.360830112,0.0494853508,0.182522564
96749.252290,-0.018196739,0.85901943,-0.613588675,0.595326229,0.0754474391,0.203355669
96749.262319,0.123389295,0.630744635,-0.658006493,0.820859238,0.0617449459,0.213130533
96749.272348,0.0428647556,0.371216149,-0.979566013,0.947857662,0.0250676245,0.228063403
96749.282376,-0.128973574,-0.0944227563,-1.03215895,0.957478865,0.00835096172,0.289504959
96749.292405,-0.0636436082,-0.733414889,-0.915820978,0.8622341,0.0194214572,0.370833351
96749.302434,-0.0871923147,-1.25875993,-0.695686527,0.743359133,0.0494877462,0.421407862
96749.312463,-0.147933199,-1.35439648,-0.401983567,0.632765516,0.123118817,0.407001211
96749.322492,-0.14183448,-1.0723464,0.156351742,0.574999138,0.200540117,0.356255217
96749.332520,0.00495737859,-0.801013969,0.235966546,0.516226395,0.247707627,0.33063428
96749.342549,0.162896728,-0.581729413,0.104820877,0.383701338,0.254473365,0.383989109
96749.352578,0.165426356,-0.416814051,-0.322056628,0.245900868,0.211909688,0.51388879
96749.362607,-0.166688132,-0.265319987,-1.30858345,0.154689728,0.133404485,0.661459579
96749.372635,-0.753388863,0.0463620534,-2.21917386,0.0697564623,0.0216537182,0.831404938
96749.382664,-1.27036253,0.176248069,-2.72811999,-0.0601935508,-0.155608677,1.01781393
96749.392693,-1.60813376,0.288993391,-2.82309194,-0.148297579,-0.325288528,1.11538853
96749.402722,-1.77506415,0.602096669,-2.49442171,-0.2166681,-0.424052649,1.09613062
96749.412750,-1.46183012,0.922154589,-1.66592564,-0.17921953,-0.444164598,0.990783944
96749.422779,-0.730444407,0.922384014,-0.898380014,-0.051111103,-0.384161973,0.809352114
96749.432808,0.0957521501,1.06128278,-0.103595079,0.197378873,-0.268656426,0.597322716
96749.442837,0.736557433,1.2452015,0.210745595,0.490437373,-0.145545387,0.398436232
96749.452866,0.743277535,1.23625115,0.175587773,0.723506316,-0.0530921567,0.227123051
96749.462894,0.314727494,1.18772078,-0.134094262,0.833397969,-0.0349448446,0.100722506
96749.472923,-0.315734455,0.917436109,-0.580640345,0.81206791,-0.0942872699,-0.00632298661
96749.482952,-1.1383126,0.53273427,-0.783261935,0.685430332,-0.16807253,-0.108333239
96749.492981,-1.69268427,0.248700379,-0.22350916,0.526268109,-0.228255444,-0.167995245
96749.503009,-1.21702154,-0.0649564963,0.693394088,0.437045499,-0.263439023,-0.16776009
96749.513038,0.0209356863,-0.307474994,1.52915342,0.391270294,-0.227034652,-0.119944357
96749.523067,1.1770855,-0.460691369,2.47592223,0.376894816,-0.145124071,-0.0222779821
96749.533096,1.88820102,-0.517305602,3.05735259,0.365068777,-0.0797583918,0.131688147
96749.543125,2.16007092,-0.623008203,3.09774363,0.359863891,-0.0820069026,0.302034332
96749.553153,1.7336321,-0.623904567,2.80212753,0.302890911,-0.166409397,0.418154522
96749.563182,0.894963888,-0.606915183,2.39694339,0.155699595,-0.323784911,0.444629564
96749.573211,0.374812106,-0.759043836,2.05384657,0.0264204396,-0.476041817,0.353009089
96749.583240,0.191397686,-0.583241754,1.85092688,-0.0430103028,-0.55365085,0.117069258
96749.593269,0.204487469,-0.111913989,1.96487241,-0.0663590291,-0.511053079,-0.179160551
96749.603297,0.620313784,0.0606155375,2.39572057,-0.055499197,-0.353178763,-0.461420463
96749.613326,1.28875292,0.076679843,2.78251215,0.00552474476,-0.110286744,-0.689163611
96749.623355,1.76955389,0.141073076,3.00429144,0.116247802,0.136313728,-0.864899502
96749.633384,1.96197674,0.159778178,2.65571824,0.30129592,0.307788527,-0.985480235
96749.643412,1.83696329,0.0742384412,1.60516523,0.50310336,0.363236076,-1.06008123
96749.653441,1.37784268,-0.0492031565,0.432877357,0.637519761,0.306852437,-1.07338952
96749.663470,0.92152354,-0.464758546,-0.534971065,0.622798904,0.179779715,-0.978843079
96749.673499,0.80600784,-1.19721387,-0.97829234,0.473584875,0.0656241019,-0.786101625
96749.683528,0.683266427,-1.60353227,-0.532092295,0.249576299,-0.000419626486,-0.53666781
96749.693556,0.984148119,-1.63434418,0.243544872,0.0329766078,-0.0731644045,-0.311674641
96749.703585,1.64872912,-1.36046645,0.554410564,-0.186201812,-0.152862155,-0.15451193
96749.713614,2.23723453,-1.02497368,0.880686591,-0.411166237,-0.196592056,-0.0418250534
96749.723643,2.54458286,-0.76548629,1.25936618,-0.63888617,-0.172636398,0.0442091625
96749.733671,2.42907008,-0.519120323,1.2024051,-0.855981485,-0.0949205692,0.115483879
96749.743700,2.03923242,-0.356269383,0.658473581,-1.03261329,0.0285611589,0.159280612
96749.753729,1.54227044,-0.258393166,-0.0608560078,-1.14341594,0.166728622,0.141060873
96749.763758,0.78152536,0.185872368,-0.188726601,-2.39766885,0.649873442,-0.101477728
96749.773787,-0.61918008,1.82725671,7.31067054,-2.23408915,0.837349838,-0.00632165482
96749.783815,2.08297131,-2.48055301,-0.199170838,-2.40066601,0.781418926,-0.290391193
96749.793844,-0.567164208,0.975899989,-2.00018215,-2.13489892,0.612528748,-1.01233612
96749.803873,-4.51173178,3.53235587,-3.61768515,-1.52299239,0.482138491,-1.83475505
96749.813902,-5.56741748,4.20135169,-5.39724392,-0.928401367,0.499695129,-2.55238675
96749.823931,-6.284627,4.96480157,-4.84134023,-0.402719752,0.527240164,-2.95998834
96749.833959,-5.77771676,3.69589398,-5.11259696,-0.152522684,0.481369114,-3.03846549
96749.843988,-4.04229962,2.59193204,-5.41254028,-0.231016682,0.364343948,-2.7653961
96749.854017,-1.01390165,1.44381488,-5.22250227,-0.341628955,0.289647884,-2.12705587
96749.864046,2.00048592,-0.383626104,-4.89042194,-0.360466079,0.18963123,-1.27067779
96749.874074,3.54379293,-1.76362639,-4.55826563,-0.49486436,-0.0211957964,-0.416247592
96749.884103,4.21383768,-3.06664405,-4.59293245,-0.704802112,-0.267299854,0.288755043
96749.894132,3.88941809,-3.84972569,-4.46353801,-0.810179667,-0.474663698,0.722785904
96749.904161,3.14879174,-3.63078366,-4.29306278,-0.780497686,-0.600591236,0.842196419
96749.914190,2.52344538,-2.71039666,-3.82333398,-0.743704275,-0.573707157,0.758717253
96749.924218,2.19935634,-1.79166634,-3.04579595,-0.672440962,-0.434700304,0.601571037
96749.934247,1.82644336,-0.902311978,-2.52298846,-0.568767563,-0.258812362,0.421916052
96749.944276,1.22040303,0.338091549,-1.89544752,-0.386370913,-0.0839244287,0.283434047
96749.954305,1.00152457,1.42125745,-1.20195789,-0.105594114,0.0750937228,0.213755919
96749.964334,1.03902435,2.24117741,-0.648021105,0.240382209,0.189042128,0.175299077
96749.974362,0.758370402,2.69779363,-0.276408391,0.601130827,0.295944876,0.175290554
96749.984391,0.430141268,2.48447441,0.0688184199,0.915796622,0.39169029,0.193103908
96749.994420,-0.092501527,1.92376068,0.248695095,1.13922964,0.440457827,0.198303996
96750.004449,-0.839642959,1.38069689,0.202146109,1.25531529,0.430278427,0.178707122
96750.014478,-1.67611161,0.810241663,-0.0817643558,1.21347199,0.335279501,0.146374493
96750.024507,-2.50464669,0.162489045,-0.327018635,1.00889371,0.155749432,0.154842003
96750.034536,-2.88432055,-0.541571042,-0.592777942,0.796726151,-0.0382533419,0.207068725
96750.044565,-2.85732441,-0.939712026,-0.525369124,0.613870068,-0.17733612,0.2487749
96750.054594,-2.21277533,-0.94902799,-0.209610983,0.507045909,-0.242197418,0.280147984
96750.064623,-1.18064222,-0.755620803,0.106763827,0.485771998,-0.232916304,0.326945587
96750.074651,-0.393146562,-0.560733058,0.560258706,0.509558841,-0.19215236,0.378916635
96750.084680,0.130896492,-0.435577679,0.997467635,0.526609226,-0.149770015,0.409194662
96750.094709,0.467994248,-0.35873117,1.30871268,0.520274862,-0.100161717,0.405971422
96750.104738,0.658588862,-0.326653413,1.57417038,0.428546264,-0.0835406642,0.369558825
96750.114766,0.598500743,-0.366650054,1.74539262,0.321908488,-0.0990349363,0.313300623
96750.124795,0.219043672,-0.370393697,1.75019622,0.170237466,-0.129139834,0.235870286
96750.134824,-0.0393897492,-0.345373895,1.70000742,-0.0705786059,-0.146761977,0.163931905
96750.144853,-0.0661637744,-0.431509114,1.79427618,-0.347866938,-0.110452705,0.136583372
96750.154882,0.0489462675,-0.502966513,2.19003725,-0.599102573,-0.0189885675,0.148087962
96750.164910,0.412293331,-0.418964105,2.45410086,-0.808950917,0.10728415,0.164301826
96750.174939,0.827292401,-0.146470156,2.62761443,-0.98860027,0.260422832,0.189131006
96750.184968,1.10336859,0.0152775721,2.77206557,-1.11320616,0.407402164,0.252647116
96750.194997,1.11480425,-0.0418195125,2.53699834,-1.18079771,0.510619408,0.332197591
96750.205026,0.785526558,0.113960065,1.97579011,-1.12238349,0.545374161,0.404999359
96750.215055,0.244020073,0.449109499,1.28965259,-0.89792736,0.536273069,0.461746528
96750.225083,-0.318293748,0.644835485,0.63177379,-0.51972361,0.501861281,0.504432215
96750.235112,-0.776887666,0.611264932,0.100793521,-0.0795081788,0.482464946,0.526235833
96750.245141,-1.13718214,0.406390082,-0.00794625538,0.372803106,0.505046195,0.500981822
96750.255170,-1.44313741,0.28082594,-0.0533600991,0.750434562,0.532241589,0.421984478
96750.265198,-1.78953341,0.099544805,-0.114398213,0.988836749,0.555192715,0.327556773
96750.275227,-1.91978432,-0.270571168,0.116455785,1.13695083,0.547700948,0.258035495
96750.285256,-1.82361264,-0.693295279,0.481449957,1.15158091,0.481434024,0.213034211
96750.295285,-1.66991656,-0.942757166,0.755850836,1.01634048,0.352490968,0.172762691
96750.305314,-1.51872442,-1.09939281,0.834806884,0.814004465,0.192231542,0.124447076
96750.315342,-1.63235401,-1.18003133,0.808659466,0.619588419,0.00733038771,0.104963659
96750.325371,-1.86069719,-1.26562572,0.703924834,0.418651267,-0.167976179,0.130541994
96750.335400,-1.75262816,-1.42886939,0.73574036,0.222643151,-0.306944185,0.201807394
96750.345429,-1.19555417,-1.48953896,0.919192555,0.0412720358,-0.387378329,0.282863869
96750.355458,-0.374110108,-1.43047025,1.28605544,-0.109090575,-0.410147273,0.34783782
96750.365486,0.604205676,-1.09678964,1.30955264,-0.219062612,-0.357486212,0.387529834
96750.375515,1.15432758,-0.548501755,1.2663214,-0.331119106,-0.231105619,0.405526682
96750.385544,1.17021437,-0.217246076,1.35519503,-0.394249068,-0.096786433,0.378019168
96750.395573,1.01165367,0.18508509,0.981634106,-0.413005189,0.0191686702,0.269471093
96750.405602,0.736453608,0.63695708,0.562121577,-0.40992792,0.104067049,0.117362535
96750.415631,0.393161783,0.838547574,0.303385885,-0.418501423,0.135595686,-0.0137270365
96750.425659,0.0899180097,0.728551075,0.107531305,-0.437397883,0.0976389785,-0.0692851033
96750.435688,0.030675191,0.447411536,0.0928744182,-0.366560207,0.0362701629,-0.0595834788
96750.445717,0.100452455,0.274089581,0.297474031,-0.217707337,-0.0115098796,-0.0309827208
96750.455746,0.265750113,0.21398166,0.557128007,-0.0483942004,-0.0379020694,0.0157317862
96750.465775,0.679683965,-0.0334833901,0.683646016,0.0919455951,-0.032146712,0.0672194798
96750.475803,0.796601202,-0.266219183,0.749976391,0.231768741,-0.00459950849,0.105568728
96750.485832,0.392788712,-0.325907745,0.767097622,0.398922577,0.0275254034,0.133566811
96750.495861,-0.121488278,-0.393149134,0.710387892,0.576697155,0.0463515584,0.179180368
96750.505890,-0.529880333,-0.509312265,0.75889561,0.684588178,0.04537098,0.268703325
96750.515919,-0.541643763,-0.798891643,1.24515236,0.689418062,0.0190400396,0.431112452
96750.525947,-0.177060217,-1.06778245,1.79491857,0.547845527,-0.0481349985,0.624973549
96750.535976,0.321432179,-1.15298777,2.16484027,0.290624603,-0.173441791,0.802805616
96750.546005,0.791242306,-1.14733639,2.18255186,0.00369642863,-0.336876803,0.918749525
96750.556034,0.965239421,-0.936906029,1.91872732,-0.340764807,-0.547956281,0.969541325
96750.566063,0.897734157,-0.581543279,1.84731804,-0.641235665,-0.841978544,1.01775457
96750.576091,1.22686375,-0.489645515,1.27245362,-0.785506264,-1.06717842,0.973821296
96750.586120,1.16829422,-0.0076861741,1.12768508,-0.759730891,-1.13524645,0.790849342
96750.596149,0.797956197,0.77931724,1.28418497,-0.562135772,-1.02710431,0.512392714
96750.606178,0.661661255,1.14251401,1.48201992,-0.334766314,-0.720957034,0.209981426
96750.616207,0.647643836,1.13870234,2.05449656,-0.139394955,-0.289253616,-0.0487729024
96750.626235,0.661077976,0.976039105,2.48485256,-0.0579160685,0.113334848,-0.20032248
96750.636264,0.685212081,0.482076315,2.62188085,-0.146498666,0.340729392,-0.220924155
96750.646293,0.754858302,-0.244923114,2.33814516,-0.304951684,0.372345096,-0.18768631
96750.656322,0.731207597,-0.699284437,1.86966373,-0.42652233,0.266793645,-0.180754096
96750.666351,0.461368948,-0.615327658,1.18504188,-0.475784407,0.0808346932,-0.199987711
96750.676380,0.422199296,-0.308394848,0.261942114,-0.417397813,-0.0865100931,-0.208373473
96750.686408,0.554237092,-0.058148095,-0.59267565,-0.232111306,-0.164280244,-0.228234262
96750.696437,0.504439261,0.361328778,-1.16731912,0.0570619172,-0.14317123,-0.290728287
96750.706466,0.201733714,0.959440875,-1.73575847,0.411097749,-0.0792164888,-0.391233579
96750.716495,-0.323886928,1.56115735,-2.50173525,0.762714132,-0.0191648688,-0.506315158
96750.726524,-0.839816782,1.94863852,-3.02979992,0.95219539,0.00384404358,-0.583477841
96750.736552,-1.00527031,1.92371743,-3.09059955,0.972189887,0.0110532202,-0.575252638
96750.746581,-0.714795879,1.53354658,-2.73752553,0.851494356,0.0253493347,-0.482536332
96750.756610,-0.313200772,1.00834607,-2.18260091,0.560678466,0.037473644,-0.345119105
96750.766639,0.124771105,0.744065163,-1.63227063,0.10813602,0.0195841239,-0.192608894
96750.776668,0.460419429,0.38989239,-1.46201986,-0.366541014,-0.0143615931,-0.0365753632
96750.786697,0.541256687,0.218546411,-1.51282183,-0.723641352,-0.0425282467,0.0909578268
96750.796725,0.375896102,0.46385253,-1.8448928,-0.874231891,-0.0511877808,0.137953042
96750.806754,-0.0112949238,0.820257299,-2.39397221,-0.833037333,-0.044193254,0.0980128113
96750.816783,-0.322382077,1.09709125,-2.82627934,-0.667231874,-0.0482226174,0.0423602004
96750.826812,-0.282082142,1.17381998,-3.23176451,-0.414475785,-0.046461736,0.0282909878
96750.836841,0.0613493106,1.15123544,-3.43076733,-0.193390802,0.00586884503,0.0412744273
96750.846869,0.481286495,1.14305418,-3.24898686,-0.0335681187,0.113259747,0.0647568543
96750.856898,0.798328391,1.0923179,-3.00064105,0.0463482877,0.249678588,0.107886745
96750.866927,1.06567175,1.07723723,-2.86318371,0.0529812006,0.35399077,0.177592262
96750.876956,1.28764672,0.985468539,-3.23956963,0.00307542413,0.387558049,0.259405627
96750.886985,1.07514671,1.07222854,-3.85132206,-0.0326317074,0.362221814,0.343268051
96750.897013,0.666307693,1.07709191,-4.30954864,-0.0157019915,0.304883963,0.431591495
96750.907042,0.387749439,1.08110786,-4.64721875,0.0823763749,0.248892329,0.472502186
96750.917071,0.190345218,1.18906869,-4.86720824,0.256439759,0.224374465,0.438997491
96750.927100,0.0121836035,1.21273481,-4.87886361,0.418639048,0.216283521,0.35937403
96750.937129,-0.128729646,1.01386162,-4.7495095,0.552761956,0.208972073,0.274581655
96750.947158,-0.350870687,0.757917236,-4.50136651,0.661495133,0.251921124,0.200875475
96750.957186,-0.365069528,0.521201945,-3.86248058,0.718999966,0.32973311,0.150689005
96750.967215,-0.221120929,0.346320594,-3.3680417,0.712075993,0.39960087,0.111228137
96750.977244,-0.316264251,0.228321663,-3.01966314,0.648791297,0.430825389,0.0929934744
96750.987273,-0.506862519,-0.0143224703,-2.78403536,0.558302685,0.39246974,0.119041323
96750.997302,-0.599569407,-0.245215795,-2.80547679,0.423200532,0.309259272,0.183716996
96751.007330,-0.671638655,-0.472529545,-2.58210292,0.268636241,0.234510994,0.272074832
96751.017359,-0.539202434,-0.649157593,-2.18387049,0.117971919,0.168020374,0.348047628
96751.027387,-0.310304685,-0.610031123,-1.99566555,-0.0424923273,0.102752692,0.398780837
96751.037416,-0.168395155,-0.420452152,-1.84742846,-0.167578877,0.0627722506,0.455055817
96751.047445,0.00420623143,-0.268701045,-1.5217767,-0.241303951,0.0787141983,0.524665787
96751.057474,0.0320032338,-0.18771055,-0.934226988,-0.27640389,0.137141026,0.560211017
96751.067502,-0.198063769,0.0056878146,-0.419712116,-0.24247256,0.209964893,0.551778926
96751.077531,-0.552611111,0.163542444,-0.0956333067,-0.201501147,0.257627225,0.493215724
96751.087560,-1.1473865,0.253441345,0.107520199,-0.182960764,0.262406534,0.382957115
96751.097589,-1.73017842,0.417320021,0.189862966,-0.165575371,0.253833569,0.239536851
96751.107618,-1.80503712,0.432005293,0.50492611,-0.0866994718,0.251291281,0.110588713
96751.117647,-1.50308875,0.363951565,0.972268312,0.0373886554,0.256189114,0.0204122167
96751.127675,-1.07250216,0.288478299,1.43580002,0.209270402,0.254860735,-0.0426200118
96751.137704,-0.612979655,0.288417198,1.60695387,0.426817372,0.242947078,-0.0735339906
96751.147733,-0.358973147,0.32034941,1.74476893,0.641066297,0.263935453,-0.0551581766
96751.157762,-0.284960218,0.184532826,2.01626766,0.80463229,0.294212676,0.00373896381
96751.167791,-0.372155906,-0.099083405,2.18127644,0.889828428,0.289110041,0.0939069379
96751.177819,-0.772794698,-0.469350878,2.14201819,0.922221228,0.2295117,0.177904918
96751.187848,-1.34298835,-0.803797754,2.05390503,0.82758741,0.106804958,0.229635476
96751.197877,-1.77922317,-1.03148554,1.92497762,0.570143922,-0.0837514039,0.257526501
96751.207906,-1.96062486,-1.2410758,1.67576905,0.238760381,-0.26524716,0.249827309
96751.217935,-2.04104119,-1.25711318,1.73525584,-0.0825950065,-0.395377481,0.177994652
96751.227964,-2.00251989,-0.954632532,1.88673235,-0.364021645,-0.457412624,0.0342792969
96751.237992,-1.74058262,-0.560033202,2.12313405,-0.582097785,-0.422817879,-0.129250766
96751.248021,-0.979778137,-0.397867906,2.8649157,-0.707223193,-0.313299381,-0.266787873
96751.258050,-0.171935093,-0.277943176,3.46372565,-0.755368904,-0.1815741,-0.377145247
96751.268079,0.373709589,-0.050383877,3.86218311,-0.750844435,-0.0507516499,-0.45497428
96751.278108,0.774574299,0.0952742515,4.12994967,-0.651482956,0.0616675717,-0.52551745
96751.288137,0.909188667,0.221017897,3.97530154,-0.52984734,0.113158732,-0.622861789
96751.298165,0.547190534,0.364921615,3.71999232,-0.426900462,0.0763905932,-0.730233536
96751.308194,0.364931385,0.181361448,3.3117862,-0.331292705,-0.0107554972,-0.815334604
96751.318223,0.390752932,-0.129490891,3.04272551,-0.24244991,-0.078467698,-0.867946909
96751.328252,0.461706327,-0.411360827,2.99419149,-0.208066911,-0.130845674,-0.842939065
96751.338281,0.618138632,-0.770901447,2.74711701,-0.169671313,-0.159327396,-0.736966537
96751.348309,0.597224622,-0.939508393,2.43345555,-0.0804844508,-0.132524544,-0.623856769
96751.358338,0.439841555,-0.775025395,2.20606075,0.0590896933,-0.0603329028,-0.549972699
96751.368367,0.158139779,-0.455376166,1.9898385,0.213192969,0.0333794717,-0.529694305
96751.378396,-0.373434438,-0.225919924,1.93427268,0.299568071,0.117697551,-0.523013518
96751.388425,-0.638051954,-0.218187942,2.02841344,0.297267093,0.156165576,-0.466949181
96751.398454,-0.555952201,-0.496652983,1.86988643,0.20536062,0.124892346,-0.372573153
96751.408482,-0.591546041,-0.764772589,1.4204341,0.0958120218,0.0171277997,-0.280656533
96751.418511,-0.93115103,-0.908431045,0.711471596,0.0821587881,-0.124815219,-0.198473514
96751.428540,-1.35748961,-1.10656417,0.307044992,0.171467095,-0.266812318,-0.122210973
96751.438569,-1.60480593,-1.31049976,0.109303575,0.273266151,-0.420933687,-0.0854921128
96751.448598,-1.67581643,-1.25605944,-0.0928375385,0.349915399,-0.568046206,-0.0924123388
96751.458627,-1.38059166,-1.27680441,0.107680358,0.407365634,-0.634186083,-0.110675232
96751.468655,-0.511096613,-1.40984598,0.920451616,0.437687322,-0.600297623,-0.126796142
96751.478684,0.374666853,-1.43707169,1.94913415,0.360247656,-0.469882869,-0.167532907
96751.488713,0.933808875,-1.28822042,3.16374025,0.141474306,-0.307711535,-0.230501489
96751.498742,1.20705189,-0.997880722,4.04698088,-0.180372165,-0.164099776,-0.31103255
96751.508771,1.14680726,-0.510315889,4.40139462,-0.515080647,-0.0882654648,-0.379818277
96751.518800,0.860386642,-0.0480666359,4.19218605,-0.788693801,-0.0789302896,-0.427166359
96751.528828,0.620216973,0.423066419,3.58311132,-0.990729467,-0.129128211,-0.432954745
96751.538857,0.492987125,0.751720939,2.7547947,-1.15732695,-0.18288491,-0.388815777
96751.548886,0.632683802,0.890494838,2.30878755,-1.28161527,-0.231916108,-0.269362883
96751.558915,1.09824847,0.855078437,1.5340786,-1.34066154,-0.254266166,-0.104711347
96751.568944,1.55045609,0.966199117,0.885930337,-1.25273706,-0.229464927,0.0366337959
96751.578973,1.69325581,1.17772151,0.395566156,-1.02333881,-0.16826097,0.103512696
96751.589001,1.45894612,1.51942702,-0.0741527117,-0.701797024,-0.0828331496,0.0868125472
96751.599030,1.15741056,1.65205927,-0.537528933,-0.376055674,0.00337417062,0.006559518
96751.609059,0.83992823,1.81489933,-1.04867462,-0.0949880266,0.0737737705,-0.0764022108
96751.619088,0.582502305,1.59815847,-1.35927026,0.191582753,0.11229693,-0.0865035813
96751.629117,0.457188301,1.06965072,-1.65789724,0.444267734,0.0990152125,-0.0201964613
96751.639146,0.618992107,0.393330037,-1.97481507,0.666585728,0.0367044312,0.0824255187
96751.649175,0.798807407,-0.069640599,-2.25314686,0.842531188,-0.0420401815,0.179582163
96751.659203,0.752300946,-0.21750111,-2.24589937,1.02834748,-0.0939824741,0.233991354
96751.669232,0.622887142,-0.222789937,-2.0439868,1.22356115,-0.0944027166,0.234267249
96751.679261,0.675602687,-0.159775591,-1.6181743,1.3938844,-0.0407821062,0.204925074
96751.689290,0.843187086,-0.148668178,-0.981224302,1.50215636,0.0310627919,0.173113881
96751.699319,1.02094823,-0.186003235,-0.373740638,1.49563239,0.0936556001,0.150930553
96751.709348,1.10374064,-0.340672841,0.120860742,1.32985543,0.133427254,0.174189
96751.719376,1.1899981,-0.768851529,0.592826512,0.988283618,0.173233784,0.243480458
96751.729405,1.42385917,-1.18706123,0.842706113,0.510099753,0.172502211,0.342401965
96751.739434,1.39992373,-1.30389072,0.540655595,-0.0104739396,0.120378024,0.437378569
96751.749463,1.02394814,-1.04441809,-0.133228001,-0.505947367,0.0461394776,0.50480391
96751.759492,0.600858631,-0.411251996,-0.935069284,-0.912488178,-0.00894188428,0.561530067
96751.769521,0.353319565,0.221127002,-1.72981622,-1.26230027,-0.0339127492,0.62568964
96751.779549,0.362392076,0.779878381,-2.34928083,-1.52225222,-0.0476943414,0.714714839
96751.789578,0.411896513,1.24006282,-2.72752144,-1.68054964,-0.064795294,0.823648765
96751.799607,0.476012573,1.55651245,-2.80546101,-1.69554533,-0.100578592,0.916343822
96751.809636,0.624067365,1.80999665,-2.78379161,-1.53358306,-0.138781362,0.946591212
96751.819665,0.957143427,1.85591961,-2.64198368,-1.21675004,-0.114285083,0.900021567
96751.829694,1.40017668,1.7232821,-2.2205469,-0.792397515,-0.0329588029,0.784949853
96751.839722,1.84923591,1.41884381,-1.75964321,-0.345547811,0.0659664486,0.648651673
96751.849751,2.10187826,0.889890881,-1.40927085,0.0720267957,0.144704408,0.502666189
96751.859780,2.08547993,0.39314299,-1.23946198,0.404550149,0.202173284,0.379335775
96751.869809,2.12930592,-0.0638519326,-1.15013008,0.613970085,0.238082743,0.329691811
96751.879838,2.11410032,-0.444486231,-1.50420305,0.739229484,0.25363428,0.365059658
96751.889867,1.57701238,-0.671395801,-1.74094728,0.826247438,0.256340301,0.46384029
96751.899896,1.00297922,-0.84992793,-1.86696669,0.881316288,0.26444406,0.56704153
96751.909924,0.523657025,-0.920469566,-1.83281366,0.900186165,0.26536817,0.601776614
96751.919953,-0.0236264177,-0.798256779,-1.62895639,0.873344942,0.24802672,0.561204686
96751.929982,-0.334967198,-0.784812922,-1.30410659,0.73590587,0.192878521,0.47130753
96751.940011,-0.415990115,-0.870191258,-0.799498784,0.541658088,0.103913224,0.372268571
96751.950040,-0.462750844,-0.854432109,-0.358599183,0.38672386,0.0219115623,0.27485521
96751.960069,-0.292930959,-0.675887779,0.0530784144,0.329099192,-0.0111539794,0.164820581
96751.970097,0.0838606916,-0.15598283,0.219838418,0.41346012,-0.00398847799,0.0394591902
96751.980126,0.14139319,0.466538371,0.200194391,0.583154126,0.0178393227,-0.0709107306
96751.990155,-0.107930293,0.695126579,0.0689359088,0.714568063,0.0221981172,-0.157360391
96752.000184,-0.443211592,0.617497177,-0.0203772824,0.736472293,-0.0214303202,-0.218603508
96752.010213,-0.721569611,0.375630349,-0.0316135467,0.624227806,-0.0726977672,-0.247765646
96752.020242,-0.764948441,-0.032035333,0.35981972,0.384706243,-0.107624323,-0.244676934
96752.030272,-0.508928036,-0.428219644,0.904097278,0.0581875248,-0.138110065,-0.196617783
96752.040300,-0.17253894,-0.792172125,1.44448133,-0.278471456,-0.15869736,-0.110562534
96752.050329,0.100338345,-0.99769331,1.8735847,-0.560149685,-0.162822598,-0.0394755725
96752.060358,0.22213561,-0.74175777,2.00016934,-0.78301926,-0.130156004,0.000109920114
96752.070387,0.209364629,-0.461422752,2.14195448,-0.89091988,-0.047211052,0.0227899317
96752.080416,0.145962854,-0.24471623,2.08459944,-0.883883552,0.0446911742,0.0319306988
96752.090445,-0.0820827166,0.146316109,1.71144593,-0.747458057,0.0939087932,0.00353527798
96752.100473,-0.62758061,0.683956731,0.837787945,-0.522183673,0.0716362436,-0.0763664778
96752.110502,-1.24282629,1.26755113,0.0632245454,-0.276003764,0.0264168315,-0.176967115
96752.120531,-1.66049903,1.51276683,-0.323223919,-0.0671304473,-0.0210084758,-0.261984275
96752.130560,-1.71164367,1.40930105,-0.375377884,0.0622725515,-0.048226514,-0.292668955
96752.140589,-1.55682691,1.09690143,-0.104593443,0.120298303,-0.0606163378,-0.265114562
96752.150618,-1.37941575,0.763530107,0.273496358,0.169893011,-0.0658917885,-0.22180915
96752.160647,-1.28203207,0.634590497,0.673388241,0.195185854,-0.0817511837,-0.217981921
96752.170675,-1.19443584,0.666809928,1.01343619,0.165360584,-0.126606532,-0.242721633
96752.180704,-0.939004301,0.49781559,1.28669316,0.101676418,-0.167970487,-0.264210419
96752.190733,-0.595674519,0.234019582,1.51552646,0.0804044148,-0.177552545,-0.266380624
96752.200762,-0.268199418,0.16180804,1.39170135,0.146382093,-0.166590699,-0.253037379
96752.210791,-0.179172643,0.243144499,0.983361368,0.236766591,-0.152898857,-0.223331423
96752.220820,-0.108587021,0.385742723,0.454203054,0.376721307,-0.186049887,-0.180051581
96752.230848,-0.068626292,0.440342256,-0.340004373,0.490894212,-0.256648683,-0.123039716
96752.240877,-0.158116593,0.225513894,-0.593541327,0.533518656,-0.335622334,-0.0319353651
96752.250906,-0.0963332141,-0.144075251,-0.576463936,0.520416184,-0.405578517,0.0584885393
96752.260935,-0.092681852,-0.310379739,-0.534827857,0.482363298,-0.451817387,0.102322309
96752.270964,-0.0874674783,-0.320737832,-0.465651445,0.432000264,-0.462541931,0.115241571
96752.280993,0.0854827215,-0.401451026,-0.355283775,0.365306987,-0.456792706,0.130608543
96752.291022,0.408876873,-0.579767538,-0.296477366,0.26012279,-0.433804565,0.149407535
96752.301050,0.923758167,-0.885411842,-0.43204319,0.156347915,-0.387072467,0.160260721
96752.311079,1.30197905,-1.14249429,-0.583098844,0.0726077473,-0.293934279,0.145519852
96752.321108,1.4447418,-1.26243146,-0.525735619,0.0181647437,-0.177806073,0.0899729643
96752.331137,1.25590908,-1.28559372,-0.544966389,-0.050365583,-0.0959024216,-0.0222475838
96752.341166,0.772840022,-1.01644631,-0.783747673,-0.141253144,-0.0780350055,-0.182390914
96752.351195,0.206905563,-0.547722331,-1.19866995,-0.242220775,-0.106124432,-0.347144709
96752.361223,-0.105982355,-0.0707466058,-1.69110276,-0.34553145,-0.147644975,-0.456204341
96752.371252,-0.159013542,0.14179771,-1.67872375,-0.51178749,-0.167230659,-0.486617909
96752.381281,0.132742522,0.137776628,-1.40130148,-0.752313034,-0.134365388,-0.443666981
96752.391310,0.504120185,0.177846773,-1.03184565,-1.00050236,-0.0576839309,-0.320751981
96752.401339,0.838803171,0.0464352009,-0.654969902,-1.19246699,0.0171277252,-0.138817326
96752.411368,1.13274235,-0.199097438,-0.487091123,-1.30170728,0.0450975735,-0.000195810736
96752.421397,1.03909931,-0.175646238,-0.565163959,-1.33161821,0.0159681857,-0.0016813224
96752.431425,0.813540281,0.0296653592,-0.611811143,-1.30090238,-0.0448086123,-0.119647914
96752.441454,0.870802603,0.129538815,-0.644177874,-1.20403291,-0.101407708,-0.289888875
96752.451483,1.26765738,0.0837903326,-0.347071243,-1.04196383,-0.099224181,-0.471185968
96752.461512,1.87768196,0.0313124688,0.174303578,-0.815554337,-0.0285771779,-0.609900699
96752.471541,2.54226377,-0.0358647323,0.678460722,-0.548488812,0.0883337323,-0.67072706
96752.481570,2.91356201,-0.0892968281,1.15729287,-0.228256763,0.234002522,-0.657315896
96752.491599,2.99527437,-0.125929326,1.5720094,0.145084335,0.389910347,-0.621075318
96752.501627,2.88772761,-0.0576212946,1.54542417,0.492571726,0.4983953,-0.611369179
96752.511656,2.45074518,0.109485696,0.954816827,0.791905983,0.529904193,-0.59807627
96752.521685,1.67426206,0.0969664058,0.0647565773,0.896595939,0.465537733,-0.546917723
96752.531714,0.61244254,-0.120756381,-0.521074057,0.753709896,0.336497999,-0.442656324
96752.541743,-0.48442097,-0.585043214,-0.646117902,0.455779626,0.222487277,-0.293863104
96752.551772,-1.14246358,-0.820276522,-0.466942654,0.0840430921,0.1463776,-0.152718232
96752.561801,-1.35825898,-0.707138146,-0.228945799,-0.228048489,0.105511389,-0.0816989254
96752.571829,-1.31399519,-0.279515741,-0.156117878,-0.430856989,0.070686831,-0.092631736
96752.581858,-1.03856599,0.341458468,-0.0443368347,-0.52369769,0.0348023277,-0.106961408
96752.591887,-0.369356228,0.677987448,-0.0166649839,-0.546355084,-0.0135462965,-0.0664363514
96752.601916,0.426837331,0.776638595,-0.0747939322,-0.540144042,-0.0659394573,0.0144728802
96752.611945,1.15043853,0.87325283,-0.246706496,-0.490217791,-0.117014096,0.114312126
96752.621974,1.48467034,1.10152529,-0.563379998,-0.382623152,-0.145908334,0.19969654
96752.632002,1.42887802,1.25354496,-0.723975049,-0.28872569,-0.159273663,0.261287733
96752.642031,1.38871815,1.15611452,-0.846082841,-0.275094048,-0.181102806,0.296822293
96752.652060,1.38857743,1.02111561,-0.979892761,-0.352394954,-0.207905659,0.292231544
96752.662089,1.47160584,0.910869736,-1.00859454,-0.422828631,-0.207467028,0.262533828
96752.672118,1.62173532,0.843180056,-0.903835941,-0.39222093,-0.162361332,0.202520548
96752.682147,1.7372874,0.877830952,-0.720944887,-0.245581956,-0.0693610917,0.0929972518
96752.692176,1.80676499,1.06863672,-0.496496081,-0.0290680146,0.0782757689,-0.0265339438
96752.702204,2.07378803,1.00608667,-0.0794847204,0.210881456,0.243364326,-0.105323033
96752.712233,2.28930958,0.725264455,0.233246766,0.419256761,0.370343572,-0.130224378
96752.722262,2.07644586,0.420909606,0.286343565,0.595179602,0.445286519,-0.113375367
96752.732291,1.64613414,0.279495641,0.0996408436,0.713256761,0.459523803,-0.0779950034
96752.742320,1.27928499,0.171863388,-0.160550308,0.775162681,0.411071575,-0.0122463481
96752.752349,1.07897606,-0.0269650212,-0.438355442,0.795179292,0.329137809,0.070716447
96752.762378,0.997854208,-0.110945473,-0.581546354,0.828886135,0.24108786,0.138078718
96752.772406,0.77535069,-0.229750278,-0.613006491,0.858426972,0.184846154,0.189792245
96752.782435,0.536816294,-0.508340863,-0.381348191,0.849585815,0.146117664,0.243850424
96752.792464,0.414294733,-0.992442988,-0.0749155128,0.739906176,0.110720529,0.29919438
96752.802493,0.287143321,-1.28004456,0.17543872,0.570913418,0.0821575959,0.339479728
96752.812522,0.226722317,-1.42479191,0.368367184,0.384712114,0.0722074945,0.338617398
96752.822551,0.143222305,-1.38775982,0.520151152,0.187842979,0.068386658,0.279374852
96752.832580,0.085287747,-1.18896144,0.482458258,-0.00724847054,0.058102588,0.179684742
96752.842608,0.207013627,-0.942916887,0.285006179,-0.131189601,0.070921189,0.0793464173
96752.852637,0.450343112,-0.721966443,0.184672996,-0.17831263,0.103133983,0.00428495772
96752.862666,0.6148043,-0.451198697,0.157544751,-0.158063815,0.136573425,-0.0545354794
96752.872695,0.688157487,-0.238642098,-0.055921474,-0.0969338426,0.158476448,-0.0832722645
96752.882724,0.68615338,-0.119939109,-0.325503554,-0.0335905561,0.158793635,-0.0942391615
96752.892753,0.612737577,-0.00581442541,-0.495957151,0.00694222238,0.154040164,-0.0738651838
96752.902781,0.593455807,-0.0376214763,-0.346015012,0.0379286325,0.174724928,-0.0217947915
96752.912810,0.764476391,-0.177709308,-0.0317573391,0.0545590101,0.211778021,0.0442870248
96752.922839,0.95556836,-0.284355984,0.257223269,0.093888036,0.232358402,0.0988195081
96752.932868,0.995727133,-0.201450322,0.307576907,0.158315509,0.2271884,0.109154968
96752.942897,0.80854335,-0.0981250448,0.222260677,0.227443709,0.207957721,0.094922236
96752.952926,0.560970492,-0.108820115,0.225363903,0.276239469,0.183714962,0.0700648267
96752.962955,0.404578555,-0.178253826,0.181045454,0.314508035,0.157388813,0.0231737484
96752.972984,0.15469552,-0.168373324,0.0195560841,0.359386547,0.137424431,-0.0486146856
96752.983012,-0.220806822,-0.0991049593,-0.113689772,0.389153226,0.106379426,-0.128323631
96752.993041,-0.581933396,-0.0679151635,-0.299067967,0.362714156,0.0550693747,-0.170626627
96753.003070,-0.860874986,-0.193233661,-0.412923479,0.321121975,-0.00483683789,-0.156746225
96753.013099,-0.974985642,-0.27450405,-0.343190602,0.247294917,-0.0442534845,-0.110487112
96753.023128,-0.963964555,-0.224586575,-0.263659969,0.198971315,-0.0621264923,-0.0685489785
96753.033157,-0.864148601,0.0107685337,-0.186341167,0.190699278,-0.0653931286,-0.0475733924
96753.043186,-0.766659702,0.194098564,-0.127749277,0.221550672,-0.064124399,-0.0430617306
96753.053214,-0.622294486,0.329468025,0.0020829712,0.274572595,-0.0565463688,-0.0451997157
96753.063243,-0.401377433,0.33063568,0.18862378,0.301242008,-0.0388901468,-0.0531170267
96753.073272,-0.177935338,0.313841709,0.411633494,0.29149486,-0.0218512408,-0.0519335169
96753.083301,-0.0662213132,0.122961373,0.502577501,0.259732916,-0.0184168286,-0.0327409144
96753.093330,-0.030222528,0.0275600072,0.469991575,0.214795022,-0.0198908887,-0.0106289565
96753.103359,-0.0730299338,0.0265491976,0.462340183,0.160021796,-0.02196123,-0.00102506408
96753.113388,-0.142730242,0.0132941021,0.444027113,0.0797586357,-0.0347689028,0.0238520567
96753.123416,-0.119551191,-0.0993433529,0.357749928,0.0202154173,-0.0521391045,0.0535859827
96753.133445,-0.12723579,-0.0869026264,0.248851746,-0.0332917506,-0.0695865388,0.0776433785
96753.143474,-0.153837436,0.0103614884,0.192150785,-0.0493277097,-0.0808437254,0.0961267863
96753.153503,-0.133550088,0.0601906495,0.142016343,-0.0487079928,-0.0815009932,0.113623484
96753.163532,-0.0753485677,0.146146781,0.16924045,-0.0252593895,-0.0777198385,0.120090975
96753.173561,0.0216235407,0.231880561,0.186593151,-0.0159926535,-0.0688589673,0.114882096
96753.183590,0.105147463,0.240614122,0.334001973,-0.028414703,-0.0551998775,0.111321716
96753.193618,0.218433431,0.199873128,0.464225851,-0.0482483292,-0.0432105932,0.109638332
96753.203647,0.304762126,0.173891039,0.377790261,-0.0545509653,-0.0373521681,0.0938311432
96753.213676,0.200721961,0.249909079,0.25560239,-0.0490600625,-0.0276534698,0.0479957413
96753.223705,-0.0446377876,0.360718757,0.105453329,-0.0341807129,-0.01904134,-0.00552873609
96753.233734,-0.286444337,0.349664242,-0.099299428,-0.019794316,-0.0194567918,-0.0563823294
96753.243763,-0.511895252,0.299194613,-0.281621742,-0.0170097155,-0.0312511335,-0.0989918422
96753.253792,-0.624536785,0.205844915,-0.378827732,-0.0325452657,-0.0401096057,-0.135144786
96753.263820,-0.55810094,0.0923120955,-0.325816273,-0.0657519558,-0.0380981203,-0.169329927
96753.273849,-0.442296085,0.0733615122,-0.226573809,-0.0947130332,-0.0305680345,-0.185936854
96753.283878,-0.256330427,0.0290701332,-0.131336488,-0.0969756553,0.0032370676,-0.186619417
96753.293907,-0.0434723606,0.0290315411,-0.0241755056,-0.0817905748,0.0479435538,-0.177717284
96753.303936,0.128227291,0.0861464033,0.0736711206,-0.0431047017,0.0910803665,-0.164129035
96753.313965,0.241428851,0.105013044,0.146502548,-0.00496317258,0.134634501,-0.162701593
96753.323994,0.282301069,0.128900663,0.185606478,0.0384444883,0.157276428,-0.168439106
96753.334022,0.208518899,0.0714693418,-0.00571864246,0.0707390448,0.155644185,-0.171693222
96753.344051,0.0248665595,-0.00841370292,-0.167299197,0.0708082831,0.140315554,-0.164055542
96753.354080,-0.10308214,-0.122290879,-0.161944977,0.0816553375,0.111482314,-0.143637614
96753.364109,-0.0728197982,-0.180896541,-0.368853451,0.0730112558,0.0794261087,-0.118633458
96753.374138,-0.0346317045,-0.132090297,-0.350015479,0.0552535607,0.0597280402,-0.0991066258
96753.384167,-0.0351449512,-0.0571121486,-0.228119869,0.0371898702,0.0416598235,-0.0718502339
96753.394196,0.0711646843,-0.0341714272,-0.216690713,0.0272064815,0.0229244855,-0.0467297036
96753.404224,0.101288678,0.0337505233,-0.212478648,0.0238706069,-8.25625692e-05,-0.0413762156
96753.414253,-0.0229485549,0.060683753,-0.222964386,0.00772545814,-0.0179843317,-0.048988064
96753.424282,-0.0960313451,0.0340125672,-0.109128164,0.00285826532,-0.0318652588,-0.0581469398
96753.434311,-0.12988004,-0.0154269427,-0.0675756714,-0.00206645227,-0.0276374902,-0.0721157502
96753.444340,-0.189196499,-0.0297205715,-0.00849512143,-0.0177380899,-0.00282721653,-0.0893453371
96753.454369,-0.144428296,-0.090529877,0.119317019,-0.0406894805,0.0361894247,-0.0915906515
96753.464398,0.0457076966,-0.164936262,0.240000331,-0.0668110931,0.0698493783,-0.0733589168
96753.474427,0.194714446,-0.21165043,0.191317841,-0.075829626,0.0848395143,-0.0472745832
96753.484455,0.232374351,-0.229193996,0.0833776911,-0.0719914744,0.0857492526,-0.0262230944
96753.494484,0.182992261,-0.183711799,0.0486015613,-0.0521181682,0.087166584,-0.0206283267
96753.504513,0.223243845,-0.110444364,0.0123290554,-0.0432461137,0.0922897075,-0.0170303967
96753.514542,0.256957661,-0.111605252,0.0472793728,-0.0538060823,0.0981649075,0.00287220564
