t,ax,ay,az,gx,gy,gz
91104.476832,0.0119415173,0.0108329442,0.0566547842,0.00139629084,0.000297447317,0.00084675476
91104.486858,0.00662203479,0.00827558785,0.0632394232,0.000121701887,-0.000843451009,-2.46316195e-05
91104.496884,0.0080896471,0.00045015492,0.0650286447,0.00121013587,-0.000469809398,0.000504006632
91104.506910,0.00719512425,0.00308021116,0.0741512779,0.000457792805,0.000351775729,0.000968195032
91104.516936,0.00277640705,-0.0016940175,0.0588876578,-0.000553675811,0.000396783173,-0.00122092292
91104.526962,0.014469119,0.00256181331,0.0602396569,-0.00142399676,-0.000303628156,-0.000395876355
91104.536988,0.00645849995,-0.0023649025,0.0648772536,0.000119305041,-0.000997647992,-0.000460856594
91104.547014,0.00241799467,0.00763714381,0.0578460398,-0.000562464236,-0.000718016061,0.000719456002
91104.557040,-0.00327225514,0.00204889535,0.0638344665,-0.000695089635,0.000414892682,0.000336227007
91104.567065,-0.000134572465,-0.0148607384,0.0479728805,0.000102527119,0.000148576568,0.000525311567
91104.577091,0.00975188921,-0.00538695374,0.058145315,0.00060320145,-0.000557427411,0.000785502605
91104.587117,-0.0131477582,-0.0222930073,0.0894289265,-0.00192546996,0.000156832393,0.0275737084
91104.597143,-0.0275445985,0.0668600249,0.0442500606,-0.0034794244,-0.000475135748,-0.0132799828
91104.607169,0.0520746624,-0.0666268737,0.0566612139,0.00100400718,-0.00117421558,0.00892332383
91104.617195,0.0246133628,-0.0124103496,0.0623532881,4.6068104e-05,-0.00145145052,-0.0051312428
91104.627221,0.0247021576,-0.012459011,0.0623562107,-0.00202427339,-0.00032333564,0.00253306841
91104.637247,-0.0150739827,0.00519713025,0.0783674343,9.29397356e-05,0.000695057213,-0.0033011185
91104.647273,0.0243411674,-0.0145229578,0.0719312637,-0.000404805061,-0.000524404226,0.00178179098
91104.657299,-0.0114394359,0.0120049106,0.0613040713,1.86375401e-05,0.00100797857,-0.00259484816
91104.667324,0.015589321,-0.0124991969,0.0556160888,-0.000116118405,-0.000180323841,0.00156820519
91104.677350,-0.00343825251,0.0126145669,0.0625005876,-0.000525446259,0.000217818771,0.000234760344
91104.687376,0.00748456305,0.0136967361,0.0714770902,0.000281225221,0.000479873794,-0.000758065842
91104.697402,-0.0104735077,-0.00216221954,0.0583083966,-0.00180935615,0.00082848157,0.000115983188
91104.707427,0.00608744728,-0.00498093022,0.0599532412,-6.4453081e-05,-0.000387251494,0.000878713094
91104.717453,0.00615436476,0.00452332264,0.0702729751,0.000117174495,0.00018958922,0.00108377635
91104.727479,0.00641634359,0.00322254224,0.0654915861,-0.000680442201,-0.000116407988,0.0019423794
91104.737505,0.0106228143,0.011928119,0.0511246226,0.000784562668,-0.00125650724,0.000199873
91104.747531,0.0127847313,-0.00862863907,0.0560661706,-0.000415724033,-0.000178459566,-0.000855005346
91104.757557,-0.00205590505,-0.00205642107,0.0571142184,0.000621843501,0.000508369645,0.000537562184
91104.767583,-0.0107014873,0.0112817839,0.0707300713,0.000748876366,-0.000106021645,0.000151669607
91104.777609,0.0194336175,0.00340045609,0.0518722261,0.00108683144,-0.00043785153,0.000631039031
91104.787635,0.000833584155,0.00050108139,0.0717681821,0.000936096534,4.07185871e-05,-0.00101719145
91104.797661,0.00261798792,0.00724200702,0.0777536863,0.00106073252,0.000508103287,0.000955412164
91104.807687,0.00256225855,0.00122815356,0.0629407326,0.000437819079,-0.00131083571,-0.00161666889
91104.817713,0.00362675283,-0.00484086416,0.0451297661,-0.000156864771,0.000854314247,-0.00104542077
91104.827739,0.00669807972,0.00174472478,0.0696703331,0.00153797097,-0.00141097058,0.000520784408
91104.837765,-0.00524902484,0.00419555199,0.0599403817,0.000169106148,0.000823421578,2.54362822e-05
91104.847791,0.0120749128,0.00986760628,0.060830024,0.000924911234,0.000700383505,-0.000656066462
91104.857816,-0.00832712852,0.00794577137,0.0484083493,-0.000599215855,-0.000375533593,0.000534632243
91104.867842,0.0134967314,0.00281754164,0.057090253,-9.34815325e-05,-0.000524137984,-0.00190162752
91104.877868,0.00698720913,0.00716901485,0.0738484955,0.000566183473,-0.000524137984,6.45844266e-05
91104.887894,0.00446497549,0.0146923961,0.0499035563,0.000300399988,0.000408501073,0.000697351992
91104.897920,0.0194623847,0.00377060458,0.0446662402,-0.00129696401,0.000312094693,0.000676046126
91104.907946,-0.0185216549,-0.000822641494,0.0552975243,0.000647409819,-1.33436406e-05,-0.000975113362
91104.917972,0.0117049298,-0.0021402269,0.0728033704,0.000320640014,-0.000129990047,0.000696552917
91104.927998,-0.0058104935,0.00117934598,0.0642722734,0.000261784153,-0.000762490905,0.000147142448
91104.938024,0.0113236172,-0.00346007733,0.0469137269,0.000507327612,-6.23457599e-05,-0.000273370184
91104.948050,0.0149120998,0.00803666453,0.0499082325,-0.000942230923,0.00027987035,-0.000251532532
91104.958076,0.00638749881,0.00620002368,0.0451227518,0.000153393485,0.00139147381,0.000634234399
91104.968102,0.00573350215,-0.00591404635,0.0633779549,-0.00114037015,-0.000210151193,-8.72155651e-05
91104.978128,-0.0098891708,0.00358436129,0.0596422755,-0.000869260402,0.000824753195,0.000124239363
91104.988154,0.00416883523,0.0124256202,0.0570978518,0.000857799663,-0.000230124919,0.000211590901
91104.998180,0.0080661669,-0.00539791352,0.0633832156,-0.000676447526,-0.000300698681,0.000417453237
91105.008205,0.0234442551,0.00359298299,0.0671235712,0.000818917528,0.00138747913,-0.000274968334
91105.018231,0.00351509431,0.00682969989,0.0509568648,0.000108918699,-0.00103306805,-0.000864326023
91105.028257,0.0149131638,0.000603664982,0.0624748686,0.000807732227,-0.000815754174,4.35458496e-05
91105.038283,-0.0144571957,0.000855520851,0.0735509739,-0.000823720358,0.000797322602,0.000343151391
91105.048309,0.0111167056,0.0056375675,0.0482628034,0.000308123155,0.000675616146,0.000902148895
91105.058335,0.015226165,0.0107981651,0.049455228,0.00102664402,5.90943964e-05,-0.00169176981
91105.068361,-0.00250491833,0.00306106807,0.069214406,-0.000721188611,0.00100371754,0.000493086874
91105.078387,0.0105604953,0.00257372295,0.0545522589,-0.000276973326,0.000913969008,-0.00218498707
91105.088413,0.00482409911,0.000985065515,0.0482639724,0.000425568578,-5.11605758e-05,0.000687497668
91105.098439,0.00635214551,0.00310490721,0.0505067829,-0.000262059621,0.000529142271,0.000547681935
91105.108465,0.00947172285,0.00834719178,0.0710071346,0.000337151607,0.000483335927,-3.4218654e-05
91105.118491,0.0172718809,0.017375863,0.0576858808,0.000108119741,-0.00151270337,-0.000379364006
91105.128517,0.0044032091,-0.00431399074,0.0521487049,0.000121701887,0.000743793033,-1.82399526e-05
91105.138543,-0.00643173981,0.0111051853,0.0516992076,0.000513186562,-0.00111216388,0.000210525468
91105.148569,0.00786442122,0.00904891031,0.071149758,0.00110760413,-0.00108366797,-0.000203329138
91105.158595,0.00352020659,0.00235116624,0.0585778612,-0.000654875883,0.000982146012,-0.00147312414
91105.168620,0.0129144255,0.0122201608,0.0615711978,0.000440215954,0.000889468007,0.000452873297
91105.178646,0.000588474262,0.00156966047,0.065463529,-4.74088447e-05,-0.000902306871,-0.000412387773
91105.188672,0.000137445984,0.00502696132,0.0521446133,-5.40667534e-05,-0.000131055363,0.000795622356
91105.198698,-0.0130527905,0.0160112236,0.0720522598,0.00032916214,0.000484401186,-0.00032130722
91105.208724,0.0106141834,0.00505092671,0.0526017094,-0.00189084897,-0.000330526149,0.000710400753
91105.218750,0.00127657754,0.012844284,0.0641232203,0.00193984201,-0.000820547692,2.33054161e-05
91105.228776,0.00105886939,-0.0026456922,0.0569353547,0.00046045598,-0.00163893716,9.19122249e-06
91105.238802,0.0116240192,-0.00275054082,0.0745896693,0.000240212539,0.000270016724,-0.000163648278
91105.248828,-0.0042950463,0.00159866737,0.0651619157,0.000575770857,-0.000504696858,-0.000144739635
91105.258854,0.00815559532,-0.00883592515,0.0495972669,0.000147534534,0.000271348283,0.000105064362
91105.268880,-0.0021636112,0.0129669605,0.0365817179,-0.00150548946,0.00025510299,-0.000339150429
91105.278906,0.00310819971,0.00146839205,0.0588859042,-0.00131640502,-0.0014605053,-0.000799877569
91105.288932,0.00456801574,0.00313859029,0.0609884294,-0.000186159537,0.000896658516,0.00023848936
91105.298958,-0.00779852894,0.00197867966,0.0558989974,0.00039467591,-0.000362484017,-7.23022968e-05
91105.308984,0.00158697236,0.00617255116,0.0612853666,-0.00166794239,-0.000527866301,-0.00105740502
91105.319010,-0.0192570371,0.00450651764,0.0594908844,0.000432492787,-0.000432258821,-0.000732499175
91105.329035,0.00803885078,-0.00324234292,0.0674199238,0.0016372283,0.000461446587,0.000764030032
91105.339061,0.00378721779,0.00126461311,0.0657628042,0.00115839194,-0.0011391131,-0.000288184732
91105.349087,0.0133745995,0.0157595869,0.0666623834,-0.000537775457,0.000301390653,-0.000492981635
91105.359113,-0.00768933751,0.00962963281,0.071150927,0.00112243916,-0.000523390365,-0.00157342572
91105.369139,0.00301950651,0.0074473934,0.0539385109,-0.000124719139,0.000985556748,0.000717957504
91105.379165,-0.0018430546,0.0200464705,0.0683019673,-0.000947635854,0.000145329395,0.000443652272
91105.389191,0.00463702357,-0.00619775866,0.050348962,-0.000229647689,0.00100286724,-0.000412021764
91105.399217,0.0208981759,-0.00315605288,0.0567804564,0.000291532924,-0.000318060629,-0.00014677085
91105.409243,0.00534315113,0.00335113706,0.0503413632,-0.00045947847,-0.000964942505,0.000168547966
91105.419269,0.0133012454,0.0130274586,0.0688999332,-0.000355615193,0.000431619177,-0.00106875692
91105.429295,-0.00522896044,0.00678673753,0.0537836126,-0.000561743858,-0.000552951475,-0.000646646135
91105.439321,0.00452019682,0.0106988695,0.0578226589,-0.000556151266,-5.49403485e-05,-0.000244242139
91105.449347,0.00658856634,0.00738324212,0.068747373,0.00104946864,-0.00109863316,-0.000437055714
91105.459373,0.000710690711,-0.00150068689,0.0611193624,-0.00109863712,0.00089500926,-0.000513488427
91105.469399,0.00722964301,0.00341748029,0.0617196663,0.00117410452,-0.00103445107,0.000292650424
91105.479424,-0.0147332338,-0.0120621207,0.0675502722,-0.00106215186,-7.8642508e-05,0.000687863678
91105.489450,0.00465114685,0.00693549835,0.0618640432,-0.000820869463,-0.000616334728,0.000147774816
91105.499476,-0.0087222482,0.0070076868,0.0452595299,-0.00101847597,0.000238273758,-0.000339317136
91105.509502,0.0023077084,-0.00295081263,0.0557300705,0.00105372968,0.00064440578,0.000876149163
91105.519528,-0.0052693324,0.0035500937,0.0621603958,-0.000377453107,0.000249991659,-0.000384325162
91105.529554,0.0199556184,0.00106032271,0.0488484943,-0.0008720021,0.00128036865,-0.000469013117
91105.539580,0.00196953281,0.00093560035,0.0472013116,0.00231500273,0.000592207827,0.000823152252
91105.549606,-0.0109135625,0.0102690998,0.0455517909,-0.00126055733,-0.00185683521,-0.00120244734
91105.559632,-0.00848276204,-0.00635974429,0.040922962,-0.00119051617,-0.00212075422,-0.00138008036
91105.569658,0.00242419608,0.00450293744,0.077438629,0.000312571909,0.000434815011,-0.00068872422
91105.579684,0.0224104597,0.0150840988,0.0630669893,-0.000186504476,0.000627095229,-0.00256545376
91105.589710,-0.0058671476,0.000773760851,0.0497457354,0.000673696515,-0.000433375477,-0.000663956627
91105.599736,0.0131527814,-0.00017791385,0.0462976408,0.000864645233,-0.000222719507,-0.00110364426
91105.609762,-0.00632254952,0.00408756157,0.0721802701,0.000945871696,-0.000389433349,-5.88865951e-05
91105.619788,-0.00613702547,-0.00137340725,0.0807049373,0.000112302194,-0.000747362268,-0.000215480104
91105.629814,0.0133735001,0.018703093,0.0548158783,0.000377819379,-0.0010152763,0.000664161518
91105.639840,0.00111499149,-0.00998816392,0.0570581043,-0.000248556142,0.000458517112,-0.0002988372
91105.649865,0.0102673919,0.0181544462,0.0723205553,-0.00078704732,0.000442804478,-0.000933468342
91105.659891,0.00745849018,0.00512866813,0.0691787502,-0.000412873167,0.00265642395,0.000803179108
91105.669918,0.0011783185,0.00436550173,0.0536176084,0.000157575938,0.00019726099,0.000577076338
91105.679943,0.00365096482,-0.013750366,0.0615489859,-0.00175963365,0.000223892624,0.000577875413
91105.689970,0.0042884533,0.0124633219,0.0780167211,-0.000354816264,-0.0023495201,0.00050437171
91105.699996,-0.00358447203,0.00369015975,0.0626005408,-0.000888247392,0.00045958237,0.000961104408
91105.710022,-0.000674969802,0.00453567067,0.0636515112,0.000491003739,0.000317902188,0.00144926179
91105.720047,0.00368582493,0.0122421534,0.0561649548,-0.000262670888,0.000515508757,0.000178667717
91105.730074,-0.00772233674,0.0144083915,0.0620054975,-0.00162700831,0.00014346512,-0.00062374305
91105.740100,0.0171713477,0.000980608535,0.0551198297,0.000966111664,-0.000180907897,-0.000995520502
91105.750126,-0.00618047417,0.0175688283,0.054822308,-0.00118652149,-0.000807549688,-0.00147968251
91105.760151,0.00958503675,0.00545497747,0.0482376689,0.0015165871,0.000627894187,0.000309961848
91105.770178,0.00139284488,0.00485313912,0.0385205771,0.00124041724,-0.00399615243,0.0016015945
91105.780204,0.00494729852,0.00996748646,0.0641068537,0.00185853697,-0.00137533562,0.000297178514
91105.790230,0.00208731625,0.00288702668,0.0741261434,0.000672098598,-0.000501019764,-0.000766488723
91105.800255,0.000229593805,-0.00460077179,0.0687397742,-0.00087626325,0.000920575578,0.00102821598
91105.810281,0.00308701422,0.00756619747,0.0637988107,-0.000354816264,0.00204176642,-0.00182962231
91105.820307,-0.00371589927,0.000657587126,0.0492857167,-0.000864811591,0.000549863558,0.000965897925
91105.830333,0.00786251239,0.00929609,0.0745768098,-0.000295161444,0.000404721242,-0.000355828553
91105.840359,-0.0111194581,0.00251870482,0.0605137977,0.000118161144,-0.00053271139,-0.000412820838
91105.850385,0.00132335299,-0.000201660052,0.0597574263,0.000938148471,0.000706457417,-0.001880222
91105.860411,-0.00204635063,0.000123699445,0.0534714779,-0.000511410122,0.000218566274,-0.00263762567
91105.870437,0.00414194723,0.0140555595,0.0612514643,-0.000177982351,0.00148995942,0.000173341483
91105.880463,0.0122023659,0.00514656911,0.0615466479,0.000841209432,-0.000289564836,0.000219147652
91105.890489,-0.000277838552,0.0160804894,0.0691775811,-0.000613409211,0.000288873794,-4.31733206e-05
91105.900515,0.00152065196,0.0103134504,0.0599047259,-0.000668270281,-0.000942305545,-0.00119499117
91105.910541,-0.0105530758,0.00835537509,0.052124155,0.00108382339,0.000718175317,0.000127535313
91105.920567,0.00784757398,0.00570851384,0.0525701452,0.000520032132,-0.00103791303,-0.000795250759
91105.930593,0.00261970495,0.00973762323,0.0711263771,-0.000148154955,-0.00165443483,-0.00147701986
91105.940619,-0.0141944873,0.00777319128,0.0548170473,-0.000443499535,0.00145666988,0.00031555444
91105.950645,-0.00425605686,-0.00146123166,0.0495768086,0.000811914681,0.00153656467,-0.000158222392
91105.960671,-0.00234979398,0.0033420039,0.0533171642,3.61357816e-05,-0.0010152763,-0.00204507168
91105.970696,0.00562474683,0.00608114654,0.06902619,-0.000337239384,0.00102337357,0.00010569673
91105.980722,0.00272004179,0.00467135281,0.0657382543,0.000607117545,-0.0004070102,-0.00019097887
91105.990748,0.0195521293,0.00379135511,0.0652881725,0.000943208463,0.000477159279,-0.000482595526
91106.000774,-0.0103996673,0.00303293796,0.0642412938,-0.000927662244,0.00108489254,-0.000638123602
91106.010799,0.00121359873,0.0041749476,0.0443429996,-0.000164133933,-0.000820599147,-0.00110684056
91106.020826,0.000744616955,0.0036503392,0.0727788205,-0.000960685429,0.00157118589,-8.5523352e-06
91106.030852,0.00852088383,0.0104692254,0.0694914694,-0.000707418774,0.00173843233,-5.70220873e-05
91106.040878,-0.00603190857,0.00561966651,0.0597685323,-0.00128665625,0.000823103881,-0.000722279772
91106.050903,-0.000438023808,-0.00609561346,0.0446580569,0.00125506462,0.00147983944,-0.000682066195
91106.060930,0.00682946471,-0.00400594771,0.0766717363,0.00176452741,0.000503258256,0.000915297773
91106.070956,-0.00353953349,-0.00155139416,0.0605067834,-0.000332712021,-0.00102379837,6.49504364e-05
91106.080982,0.0138050416,0.0138603292,0.0552694673,0.00118236034,2.4421839e-05,-0.000450637192
91106.091007,4.57045885e-05,0.0137897482,0.0593050064,-0.000807820004,-0.000433908193,0.000774417073
91106.101034,0.00949920451,0.0116338122,0.0649947425,-0.00065016083,-0.000328180613,0.000607702881
91106.111060,-0.00124557162,0.00208601249,0.062299512,0.000995672774,0.000424961268,-0.000875145197
91106.121086,-0.0038310204,-0.00536941808,0.0521229859,-0.0016086325,0.00114241685,0.000333131291
91106.131111,0.0187552365,0.00822751092,0.0646937137,-0.000426455284,-0.000283705886,-0.00133693777
91106.141138,-0.00980506358,0.00593969225,0.0629004005,6.83600374e-05,-0.00143605575,0.000139518641
91106.151162,0.0105029884,0.0117695674,0.0500321511,-0.000177716051,0.000947739813,-0.000198968686
91106.161189,-0.00288241558,0.0121089555,0.0591577069,0.00140606589,0.00201220531,-0.00113160815
91106.171215,-0.00439789132,0.00210026021,0.0578097994,-8.33900413e-06,0.00179382612,-0.000192044303
91106.181241,-0.00119487462,0.010451909,0.0688847357,0.00168729562,-0.00106827321,-0.000956371427
91106.191267,-0.00234174082,0.00565466476,0.0560071339,0.000766907237,-0.000870666583,0.000667890534
91106.201293,0.00682193442,0.0175350722,0.0485211621,-0.000287438277,0.000103784027,0.000963501167
91106.211319,-0.000971890939,-0.00465725122,0.0558563273,-0.000180112896,-0.000947898137,0.000867893919
91106.221345,0.00756283533,0.0089930154,0.0666284812,0.000119492732,0.000880095526,-0.000589388423
91106.231371,-0.00716512298,-0.00163804953,0.055555883,0.000374090945,0.000472365587,0.00103434129
91106.241397,0.0146692173,0.00646773471,0.0598936199,-0.000257078238,-0.000201680465,0.000696918927
91106.251423,0.00990561847,0.00329158889,0.0549579171,-0.000203548698,-0.000162798329,0.000173341483
91106.261449,0.00511909658,0.0106615331,0.0522615176,0.00164628297,0.00087716605,-0.000300168991
91106.271475,-0.00402352903,0.00892732976,0.057345689,4.67884238e-05,0.000443070778,0.000823684968
91106.281501,-0.00333512093,0.00857186738,0.0655792644,8.43390008e-05,-0.000596094644,0.000198640861
91106.291527,0.0101783904,-0.00131363988,0.0687222386,-0.001264552,-2.40476802e-05,-0.000336121768
91106.301553,0.00161180769,-0.0106575876,0.0654343029,0.000268896081,0.000235610525,-0.000944387168
91106.311579,0.0177493942,0.00324124694,0.059749243,-7.03906553e-05,0.000255850609,8.43917951e-05
91106.321604,0.00262829811,0.0211265939,0.0602022475,-0.00148266496,-0.000603285152,0.000123806298
91106.331630,0.0123074886,-0.00441840096,0.0633422991,0.000330533105,0.000137640745,-0.000185496174
91106.341656,0.0155169339,0.00291413388,0.0792038851,-0.000292912882,-0.000724158133,-0.000664598309
91106.351682,-0.00291140763,0.00475391653,0.0522661938,0.00115478144,5.28164674e-06,0.000369773246
91106.361708,-0.000596228311,0.0083120474,0.0554009847,0.00119712565,-0.0012341534,0.000897611491
91106.371734,0.017163266,-0.00588197071,0.0504617747,-0.000344844535,-0.000532676931,-0.000133298337
91106.381760,0.0165734549,0.00340768955,0.0657242258,0.000843724236,0.000307284063,0.000724772923
91106.391786,0.00358515017,0.0159617584,0.0600385814,0.000631736591,-0.000788074103,-0.00026139617
91106.401812,-0.00285037875,0.0132815064,0.0598883593,0.0010349392,0.000484384305,-9.2019327e-05
91106.411838,-0.0144550174,0.0122564742,0.0748509506,-0.000394645642,0.000115270144,0.000139409676
91106.421863,0.00349135381,0.00106214934,0.0598848521,0.000685266103,-0.000571026467,0.000101326965
91106.431890,0.0094383914,-0.00368752941,0.0580868628,0.00114812353,-0.00104853127,-0.000334099866
91106.441916,0.00573277835,0.0142381495,0.0658604194,-0.000364019303,0.000265472452,-0.000196947716
91106.451942,-0.00503408746,0.000334931043,0.0519435377,-0.000416749885,6.89311419e-05,0.000652334653
91106.461967,-0.00211439377,-0.0111904524,0.0413192679,3.30580224e-05,-0.000408040942,0.00143796718
91106.471994,0.0223699998,0.0128670804,0.0498509494,0.000538525986,0.000913685886,-5.95282763e-05
91106.482020,-0.00549557548,-0.00240852245,0.0535930585,-0.00034191506,0.000712883542,0.000438482501
91106.492046,0.00208654678,0.00789097245,0.047758361,-0.000332860305,-0.000868235133,0.000183884986
91106.502071,0.00449168083,-0.00207556417,0.0516454316,0.000189651881,0.00190384919,-0.000121314079
91106.512097,0.0192105859,0.00731046914,0.0690063162,-0.000773347158,5.08216908e-05,-0.000622786582
91106.522122,-0.00240305854,0.0162386757,0.0624251843,0.000191516097,0.000246564043,3.68785113e-05
91106.532149,-0.00976033281,-0.00209222304,0.0550882655,-0.000452169916,0.000257749343,0.00179003691
91106.542175,0.0149289733,-0.0020445845,0.0565817189,0.000433331152,-0.000674623414,0.000300797634
91106.552201,-0.00697068155,0.0123008978,0.0597252776,-0.00104791904,-9.24563501e-05,0.000350065529
91106.562226,0.011921115,0.00296023805,0.0495540122,0.00039924265,0.000703562459,5.765073e-05
91106.572253,-0.00542836117,-0.00323021409,0.0657090282,0.000786466291,-0.00021815754,0.000233951956
91106.582279,0.00866138485,0.00815656458,0.0458060579,-0.000844986178,0.00025455351,-0.000145814382
91106.592305,-0.000379006505,0.00268580502,0.0601765285,-0.000578670064,0.000467073754,0.000113843009
91106.602331,0.00663175931,0.00343450449,0.0505997219,0.000164085563,0.00067772984,-0.000501080416
91106.612357,0.00392427447,0.00759067432,0.0648176323,-0.000218877016,-0.000668231747,0.0013689911
91106.622383,-0.00117587652,0.00415690048,0.0504518379,0.000574212405,-0.000443194644,-0.000631309114
91106.632409,-0.00896620274,-0.0121831167,0.064061261,0.000504437485,-0.000952657429,-0.00190430041
91106.642435,-0.007204504,-0.00133614397,0.0499906501,0.00066742301,-0.000416563125,-0.000293353572
91106.652461,0.0156493966,0.0085726711,0.0689928722,-0.000858301995,-0.000880219392,-0.000526380725
91106.662486,-0.0134692349,-0.001256649,0.0645101738,-0.00102048845,-0.000864506816,-0.0002081329
91106.672511,0.0117294444,0.0187359724,0.0604734657,0.00100378017,0.00015841343,0.00179216778
91106.682537,-0.0138477585,0.00905329422,0.0694487993,-3.53852229e-05,-0.000160100637,-0.000196415
91106.692563,-0.014472198,0.00882503843,0.0447638554,-0.000748047139,0.00154352351,-0.000562067144
91106.702589,0.0189734493,0.00352225584,0.0556914921,-0.000433794106,0.00177495216,0.00130534172
91106.712615,-0.00664579583,0.0142192987,0.0703513011,-7.90610502e-05,-0.000411769375,0.00153490622
91106.722641,0.0135386618,0.00538885343,0.0610737696,-0.0020724372,-0.00216972223,-8.50949436e-05
91106.732667,-0.00362966745,0.00471036965,0.0675134473,-0.000766156591,-0.000126544852,0.00040306244
91106.742693,0.00215776256,0.00671469521,0.0532943678,0.000712696696,-4.21226723e-05,-0.000852617435
91106.752719,0.00236893707,-0.00210274443,0.0715489864,-0.000541385845,-0.0017827648,-0.00064222794
91106.762745,0.00105829401,-0.00276076995,0.067812138,-0.00151290698,-0.000485805213,0.000514382496
91106.772771,-0.00433031511,0.00340878553,0.0582423456,0.000433331152,0.000110476511,0.00019054208
91106.782797,0.00592355853,-0.00778897338,0.0509083495,6.18201739e-05,-0.000484473654,-0.00063343998
91106.792823,0.000851280784,0.0275822728,0.0774000505,-0.00100477587,0.000528859091,-0.000232101418
91106.802849,-0.00162942555,0.0033558863,0.0510726001,-0.000751509215,0.000152820721,0.00050665997
91106.812875,0.00430120318,0.00748443747,0.0679758041,0.00144426699,-0.00115931861,-0.00164703839
91106.822901,-0.00117999557,0.00644026218,0.0588479103,-0.000539787929,0.000329654664,0.000180955045
91106.832927,0.0220241067,0.0157829678,0.051670566,0.000472990738,-0.000511210528,0.000217939727
91106.842952,-0.0104799238,0.00288264276,0.0494277555,-0.00119947444,0.00142970122,-0.000147446059
91106.852978,0.0119001932,0.0041389995,0.0628916327,0.000458875962,-0.000453952583,-0.000415893272
91106.863004,0.0140215157,0.0184253721,0.055863926,-0.0021435651,-0.000930658309,0.00131249847
91106.873030,-0.0127307178,0.0067748279,0.0506342087,-0.000518504181,-0.00176289631,-0.000839602202
91106.883056,0.0190468022,0.0204815739,0.0597661942,0.00066873309,0.000297325198,-0.000253706239
91106.893082,0.000698850718,0.00869644361,0.0600631313,-0.000975236297,-0.0016254771,-0.000117085874
91106.903108,0.0124434413,0.00297660466,0.0599152473,0.000820000598,0.000487741199,-0.00139700156
91106.913134,-0.00942256479,0.0112307844,0.0759253018,0.000828256423,-0.000168994302,-0.000112292357
91106.923160,0.0144133874,0.00692417324,0.0621563042,0.000262068352,-0.0010078901,-0.00122362934
91106.933186,-0.0120340682,-0.000539586769,0.0681406393,-0.000459115661,0.00173623115,8.92207026e-07
91106.943212,-0.00663338159,-0.00615603841,0.0573719925,0.000291096803,0.000932755414,-0.00111470651
91106.953238,0.00936295497,0.0145977766,0.0470499205,-0.000756857102,0.000113300746,-8.45957547e-05
91106.963264,-0.00920042249,0.00446596643,0.0579798953,-0.00168337091,-2.01410148e-06,0.000113011338
91106.973290,-0.0100512843,0.00659976359,0.0678635759,-0.000791744445,0.00104753766,1.66045502e-05
91106.983316,0.00577337065,-0.00500043864,0.0612748452,0.00124024739,-0.00048138306,-1.21574849e-05
91106.993342,0.0258400916,-0.00145728614,0.0593231266,0.00096141448,-0.000349556678,-0.000306170434
91107.003368,-0.0109703776,0.0103146925,0.059774962,-0.00112197641,-0.00119724078,0.000803834759
91107.013394,0.0138277912,-0.0017078999,0.0499018028,0.00111614401,-0.000531184254,0.00138573535
91107.023420,-0.00110026085,0.00899170023,0.0705471159,0.00138858543,0.000601458189,-0.000880881213
91107.033445,-0.0144910945,0.000707271487,0.0594774404,-0.00164262438,7.09565356e-05,0.00146110309
91107.043471,-0.00505427287,-0.00208148245,0.071604516,-0.000540608424,5.4977485e-05,-0.000243053772
91107.053497,-0.00414300553,-0.0082424893,0.0494599042,-0.00108549115,-3.823312e-05,-0.00116770342
91107.063523,0.00464373872,0.00589366115,0.0711620329,-0.000625829562,0.000885617454,-0.000136527233
91107.073549,-0.00204285491,0.00507628035,0.0669768562,-0.000904662535,0.000531683327,-0.000676882453
91107.083575,0.00888835516,0.000110620768,0.0542594135,-0.000317169179,-0.000284575508,0.0004951749
91107.093601,0.000812041327,0.00596913754,0.060243164,0.000593099219,-0.000468866201,0.00035615731
91107.103627,-0.0026133186,-0.00492993068,0.0626361967,-0.000307315495,0.000558314961,-0.00141937193
91107.113653,-0.00293569498,0.00850369752,0.0648825143,0.000447158061,0.000767905731,0.000823009759
91107.123679,-0.00336875491,0.00173303434,0.0684668025,0.000487105455,0.000460044306,0.000792915933
91107.133705,0.00794855698,0.00909421076,0.0579904167,-0.00129561452,0.00046377274,-0.00105052441
91107.143731,-0.00859700981,0.015281375,0.0771504597,-0.000677228556,0.00094154384,3.07196751e-05
91107.153757,0.00883118275,0.0122554513,0.0605430238,0.000298021012,0.00031942944,7.86557794e-05
91107.163783,0.00461061505,0.0062195321,0.0699731154,-0.00125699874,-0.000825463561,-0.000306170434
91107.173809,0.0174657447,0.0120163087,0.067132339,-0.000685750681,-0.000511210528,-0.000264358707
91107.183835,-0.00595492749,0.00539469865,0.0623462738,-0.000133144757,-0.000307478709,0.000712488778
91107.193861,0.00499551016,0.00382759546,0.0596481208,0.00149884028,-0.000298956526,-0.000172213651
91107.203887,-0.00884842044,0.00537299828,0.0695206955,-0.00158030656,-0.000572463265,-1.08256936e-05
91107.213913,-0.0203304294,0.00799077956,0.0644376931,0.000607213995,-0.00130589772,-0.000779414549
91107.223938,0.0165768787,-0.00324219679,0.0684691406,0.00143812038,-0.00119724078,-0.00102575682
91107.233964,-0.000113520544,-0.00886588189,0.0653226593,0.000409074826,-0.00190777215,0.000433921814
91107.243990,0.023597425,-0.000796118814,0.0624807138,-0.00023274697,0.00111358403,-0.000750652514
91107.254016,-0.00483761504,-0.000327624519,0.0505178888,-0.000768663362,-0.000509815756,0.000689336099
91107.264042,-0.00990168665,-0.00032163317,0.0467763642,0.000948276604,-0.000110874185,0.000130604953
91107.274068,0.00254546953,0.00438566774,0.0605383476,8.16839747e-05,0.000745332101,-0.00018205028
91107.284094,0.000681678104,0.0129359809,0.0552998624,-0.000100209931,0.000389267458,-0.000192702748
91107.294120,0.0075563291,0.00654642597,0.0521551347,0.000338412676,-0.00173540239,-9.33669508e-05
91107.304146,-0.000139716715,0.00620228871,0.0596300006,0.000765317469,-0.000393169234,-0.000528261065
91107.314172,-0.00701904731,-0.0013211656,0.0359802449,0.00103935669,0.000446259102,-0.00152481627
91107.324198,-0.00537860832,0.00219838683,0.0662023647,0.000638284604,1.02996128e-05,0.000204641372
91107.334224,0.00686185316,-0.00482632418,0.0605155512,-0.00027970699,0.000549057091,0.0010925387
91107.344250,-0.000536782891,0.0105929979,0.0503396097,-0.0010839816,0.00122470106,0.000338598154
91107.354276,-0.0051527728,0.000280351311,0.0590180062,0.000460918091,0.000353048439,0.00137829594
91107.364302,0.00252152126,0.0134822896,0.0462964718,0.000852402765,0.00183403236,0.000628882088
91107.374328,-0.0020846722,-0.0013278876,0.0516834255,0.000801270129,-0.00132527563,9.83811915e-05
91107.384354,0.00644976979,0.00799457895,0.0537754293,-0.000920729828,-0.000129782711,0.000651786104
91107.394380,-0.0144182062,-0.000805398099,0.0669417849,-0.000454410358,0.00025078305,-0.000606558286
91107.404405,0.00754455304,-0.00140022219,0.0479378092,-0.00123897765,0.0012742359,-0.00107154623
91107.414431,-0.00653398775,0.00306172566,0.0639502019,-0.0010941017,-0.000394500908,-0.000213474967
91107.424457,0.00801819158,0.00525024868,0.0491395862,0.000947744003,-0.000648832764,-0.0011961814
91107.434483,0.00540698845,0.00100457393,0.0787619865,0.00069421099,0.00301407883,-0.00044330582
91107.444509,-0.00490718799,-0.000244841607,0.0364180518,-0.00212714192,-0.00168107392,0.000449119136
91107.454535,0.00535952801,0.000788520029,0.0645598582,-0.000666664331,-0.00165817083,-6.78002834e-05
91107.464561,0.00570123928,0.00123655606,0.0733884768,0.00299598114,0.000689139357,5.39058819e-05
91107.474587,0.0100101212,0.00272694075,0.0783177499,0.000581026659,0.00134880433,0.000568429008
91107.484613,-0.00916548245,-0.00239425792,0.000308525266,0.00130699025,0.000462924934,0.00213044767
91107.494639,0.0063472513,-0.00775446978,-0.00193779236,0.000984215147,0.00167732632,0.000211640506
91107.504665,-0.0155947449,-0.0111202199,0.0073350629,-6.40050873e-05,-0.00192513172,-4.72187414e-05
91107.514691,0.00223297525,-0.00520968067,-0.00463126922,-0.000515144582,-0.000491285649,0.00035118988
91107.524717,0.00300100048,-0.00749092347,-0.00043907823,0.000316294316,-0.000388487661,-0.000911947095
91107.534743,0.00908953803,0.0185996495,0.00793712045,-0.00014576415,-0.000499275233,-0.000247222127
91107.544769,0.0156540043,0.00174883323,-0.00822724789,-0.000186244187,0.000992361387,0.00192698209
91107.554795,-0.0230424123,0.00142493504,-0.00523274225,0.00069579479,3.38897115e-05,-0.000351618731
91107.564821,0.0115466443,6.40219519e-05,-0.00223940565,0.000561837775,-0.000291282264,0.00125400141
91107.574847,-0.00200118259,0.0111730797,0.011076003,0.000782880203,-0.00116826123,-0.000107140036
91107.584872,0.00583264371,0.0029815899,0.00389105993,-0.00144512035,8.26254726e-05,-0.000689573342
91107.594898,-0.00633620356,0.0020349567,0.00509108337,0.000240127904,0.00012017605,-0.000596096495
91107.604924,-0.000734886698,-0.00734683883,-0.0130179893,0.000967969854,-4.12114424e-05,-0.000566002668
91107.614950,0.00447326727,-0.00411509036,0.0122748574,-0.00127574339,-0.000246008578,-0.000425121502
91107.624976,-0.0144741,0.00153124496,-0.000292363236,-0.000675200574,-0.000214849552,0.0012851602
91107.635002,0.00945772174,-0.0167639249,-0.00687407971,3.85266014e-05,0.000244812039,-0.000392098667
91107.645028,-0.0101064759,-0.00162115466,-0.00493054443,0.00108887741,-0.000450539356,0.00118768845
91107.655054,0.00173309601,0.0156895342,0.0160216427,-0.000321000147,-0.000197006342,0.00198610431
91107.665081,-0.0100181732,-0.00178598983,0.00135481945,0.000825490772,-0.00107185491,0.00125053922
91107.675106,0.0055065547,0.00104002738,0.000598448124,0.0021717186,-0.00113577065,0.00120420033
91107.685133,-0.0104808416,0.00391404844,-0.00838156167,-0.00166456486,4.00149036e-05,0.0002491905
91107.695159,-0.0121730565,-0.0105599557,0.0103295685,-0.000107148315,0.000441353291,-0.000772930437
91107.705185,0.00332721963,-0.0053987735,0.0205096018,-0.000311146463,-0.00137705305,0.000287540501
91107.715210,-0.0119913147,0.00371523794,0.00719302408,-0.00119531588,0.000576375565,-0.00112100573
91107.725237,0.0142153989,-0.00276550239,0.00195863056,-0.00119105485,0.000295944734,0.00185054938
91107.735263,-0.0118718633,0.00660270301,-0.00013278876,-0.000288775891,-0.00062178059,0.00157624368
91107.745289,0.00351822814,-0.00131515745,-0.00327576296,0.00154987056,-0.00072910597,-0.000711145566
91107.755314,-0.00497413741,0.00950704615,-0.0116583914,0.000537336657,-0.00131340343,-7.91770755e-05
91107.765341,0.00472520762,-5.71932749e-05,-0.00522514346,-0.00172821447,-0.00216561516,0.00116132317
91107.775367,0.00266081787,-0.00334213323,-0.0101637689,0.000592594121,0.0017915833,0.00101258537
91107.785393,-0.0133344661,0.00291904606,-0.0130051298,-0.0012697544,-0.000467043672,0.000853594637
91107.795419,0.0134107862,0.00795974364,0.00749814451,-0.000549103048,0.00141101754,-5.98698272e-05
91107.805445,-0.00032214917,-0.00610991744,0.000465177133,-0.0020338154,-0.00069793961,0.000523096195
91107.815471,0.0153723469,-0.00328338878,-0.00447169475,0.00070711001,-0.000267040287,-4.33584093e-05
91107.825497,-0.00462827056,0.00237587909,0.00630338177,0.000150243052,0.00114683195,0.000247192814
91107.835523,0.0119354324,-0.00341212973,0.000913505422,0.000498850828,0.000891701133,-9.90179717e-05
91107.845549,0.00650650954,0.00672859441,-0.00268481133,0.000332403228,5.25390968e-05,0.000140932633
91107.855575,0.00449877617,-0.00200913106,-0.0140531776,1.73512947e-05,0.000803284161,0.00145946328
91107.865601,-0.0052136932,0.00830687658,-0.0076187606,-0.00185165522,-0.000408720411,0.000260774291
91107.875627,-0.00267958874,0.0134950198,-0.00656779024,-0.000354425983,-0.000124028487,8.42067064e-05
91107.885653,0.00565973026,0.000178588242,-0.00162974932,0.000622687831,-0.000350929866,5.19829453e-05
91107.895679,-0.00966033388,0.00236893789,-0.00850957196,-0.00178720665,0.000231769798,0.000872236921
91107.905704,0.0165258107,0.000546837033,-0.00626325434,0.000609638372,0.000566262857,-0.00167001666
91107.915730,0.00763151667,-3.9584553e-05,0.00810078658,0.000874622811,-8.75432271e-05,0.000621632917
91107.925756,0.0019729863,0.00238851938,-0.00132813602,0.00107542515,0.000402744732,-3.9630325e-05
91107.935782,-0.00134070596,-0.00542091227,0.00464976934,0.002286631,0.000409136341,0.000677559769
91107.945808,-0.0147929978,-0.00945440556,-0.00148595693,-0.00118320171,-1.13767566e-05,0.000354252069
91107.955834,0.00584621215,0.00144634316,-0.0125579706,0.000676749942,0.000170517061,0.000824566244
91107.965860,-0.0141836759,0.00199330951,-0.00583012362,0.00130285913,-0.000440145679,-0.00118478922
91107.975886,0.0152363109,-0.000614461832,0.00733214029,0.000744394229,0.00109809607,8.84684385e-05
91107.985911,-0.00514079008,0.00897301233,0.00119641402,-0.000288912213,0.000585970225,-0.000547760853
91107.995938,-0.000544308587,-0.000333745194,-0.00388951095,-0.00050516092,0.000786772569,0.00307520317
91108.005964,-0.0111825647,-0.000896785904,-0.00568691576,0.000965969257,-0.00102630742,0.000794206059
91108.015990,0.00060628622,0.00316870997,-0.0133201871,-0.000861758164,-0.00102151367,-0.000452685857
91108.026015,0.00924211765,0.00163382855,0.0115219932,-0.000648438961,-0.000758127262,0.000209109171
91108.036042,-0.00951758724,-0.00591052241,-0.00731890087,-0.00183354566,0.00120914988,6.90270797e-05
91108.046068,-0.00324883201,0.0160462387,-0.0125538789,0.000488464486,-0.000910992687,-0.000446826906
91108.056094,-0.0129303857,-0.00440194448,0.00300492474,0.000783809081,-0.000982631649,-0.000760813931
91108.066119,0.00706070251,0.0106234099,0.0083977237,0.000130535655,-0.000891285203,0.00109940419
91108.076146,-0.00840103285,-0.00571982215,-0.00417008145,-0.00062447056,-0.00137065416,0.000100719056
91108.086172,0.014441812,-0.00461105719,-0.00686764997,0.00119127272,0.000445089001,0.000285808241
91108.096198,-0.0013619668,0.0130813244,-0.00013571137,1.09597151e-05,-0.00112990448,0.000588610081
91108.106223,-0.00671551489,0.00827268204,0.0127342916,-0.000337115432,-0.00145507646,-0.000345094816
91108.116249,-0.000835886829,0.010891267,-0.0162907274,-0.00103006992,-0.000130952754,-0.000982122251
91108.126274,-0.00649017028,-0.00442539842,-0.00985338779,0.000505242379,0.000746026217,0.00112550264
91108.136301,0.0133587866,0.00788536323,0.0100460754,0.000172347294,0.00094629596,0.000257845281
91108.146327,-0.00460968801,0.00102826387,-0.00536835133,0.00116464108,-0.000652932282,0.00035691472
91108.156353,0.00707716844,-0.00741632387,-0.0246768629,0.00117662523,0.000530576497,0.000547064713
91108.166379,-0.00805619804,0.00913419424,0.00898575272,0.0002767432,0.000370254205,1.62965269e-05
91108.176405,0.00419240907,0.00377873163,-0.00642867403,0.00030097796,0.000376379456,0.00154308673
91108.186431,-0.000127466848,0.00304398761,0.00733740099,-0.000572272549,-0.00100766537,-0.000111002231
91108.196457,0.0135690524,-0.000285741334,-0.00433199402,-0.000614616818,0.000428843708,0.000448793417
91108.206483,0.00538803033,-0.00105285325,0.00464743125,0.000202707304,0.000505809079,0.000994742161
91108.216509,0.000107439028,-0.00679556162,-0.00956463397,7.54081977e-05,3.20327707e-05,0.00150953071
91108.226535,0.0106028846,0.0175952947,0.00225673672,-0.000884927724,-0.000961326248,-0.00131102254
91108.236561,-0.000435307813,0.00876908726,-0.0230320183,0.000747590062,4.34843131e-05,-0.00113845033
91108.246587,-0.00226070232,0.00352241878,-0.00716984779,-0.000459620847,0.000351612038,-0.000302750373
91108.256613,0.000197246478,0.00553383167,0.00106548111,-0.000428728179,0.000166522386,0.000307645893
91108.266639,-0.0164901651,0.00712716527,-0.00416891241,0.000699653143,-0.00146439737,0.000697266555
91108.276665,-0.0105012988,-0.00496257404,0.0118405576,-0.000817816037,-0.000531492126,0.000604588783
91108.286690,-0.0118330143,-0.00948056292,0.00376188059,-0.00133979556,0.000190757146,0.000775563775
91108.296716,0.00208403176,-0.0148876096,0.00660616411,-0.00107081633,0.00170716101,-0.000318995432
91108.306742,-0.00790866563,-0.00549668092,0.0107983551,-0.000855632856,0.000146282302,0.000325222744
91108.316768,0.00139893786,0.00291524666,0.00302479849,-0.000877737098,-0.000802601873,-0.00141009291
91108.326794,-0.00424543384,-0.00837274781,0.00243033973,2.61397201e-05,0.000854416914,0.000369698054
91108.336820,-0.0117703426,0.0085050295,-0.0165712979,-0.000658026345,0.00103817501,0.000781422725
91108.346846,-0.00195707402,0.00857911765,-0.00235104933,-3.93740209e-05,0.000876521099,0.0010938116
91108.356872,-0.00249742569,-0.00238753592,0.00513316894,-0.00138613457,-0.00156320068,0.000582484773
91108.366898,0.00168613333,0.00643728331,0.00154245098,-0.000323267015,-0.000158915948,-0.000235371978
91108.376924,-0.00265594415,-0.00753081709,0.000348272755,-0.000908896125,-0.000172764365,0.000289004541
91108.386950,0.00437072592,-0.0108319045,0.00154595811,2.21449866e-05,0.000514064904,-0.000276917347
91108.396975,-0.00751793558,-0.00382553283,0.00723394062,0.00111084521,0.000220051897,-0.000216197909
91108.407002,0.00731458479,-0.00672023136,0.00184114166,0.000286064226,-8.06189602e-05,0.0016701196
91108.417028,-0.00610661432,-0.00109070104,-0.00638541941,-0.000772275993,-0.000470239389,-0.00031500099
91108.427054,0.00766706519,-0.0070093505,-0.0153584149,-0.00135550826,-0.000228956993,-0.000367731543
91108.437079,-0.00665434216,0.00566242648,0.0126267396,8.76587567e-05,-0.000428694137,0.000975833519
91108.447106,-0.00710274808,0.00112558677,-0.00412974944,0.00047381711,-0.000222299201,0.000132676458
91108.457132,0.0222653498,0.0142002455,0.012626155,0.00126983595,0.000539098622,-0.000649227516
91108.467158,-0.0124804351,-0.00513025876,-0.00818107066,0.00191751678,-6.22431509e-05,0.000767573959
91108.477183,-0.00066463904,0.00078429905,0.00902199308,0.000838403792,-0.00129528665,0.000233610405
91108.487209,-0.00571573129,0.0120744124,0.0221860106,0.00047408341,0.000641896611,0.00243844163
91108.497234,4.04781637e-05,0.0014866021,0.000486219921,0.000602181505,0.00131541006,-0.000153080316
91108.507261,-0.00260113723,0.00425701666,0.000481543746,0.00112469363,0.00049275962,0.0010586579
91108.517287,0.00268178417,0.00363632748,-0.00999191947,-0.00124711756,-0.00158743556,-0.000634579675
91108.527313,0.00432051184,0.00998153179,0.000188698279,2.26776158e-05,-0.000303525547,0.000678890629
91108.537338,-0.00610253066,0.00342034664,-0.0013088468,0.00100378608,-0.00150035014,0.000557450822
91108.547365,-0.00124434776,0.00354353463,-0.0152333273,0.000797657498,-0.000525100575,-0.00135070434
91108.557391,-0.0148681693,0.00322613924,0.0118522481,-0.00119172377,-0.000472636264,-0.00178053858
91108.567417,0.00566238002,0.0121776536,-0.00475577239,0.000334267445,0.000184099237,0.000131611025
91108.577443,-0.00589134359,0.0022119207,0.000477452093,0.00136224759,0.00111700459,-0.000619400048
91108.587469,0.000381630026,0.00174437625,-0.00550688301,-0.000263878524,0.000977987587,-3.24395834e-05
91108.597495,-0.00109273054,-0.00105197647,-0.0105875473,-0.0019025215,0.000752684125,-0.000829789543
91108.607521,-0.0116724489,0.00140725325,-0.00803844732,-0.0005890505,8.34317651e-05,0.000225886947
91108.617547,0.0111265215,0.0115815143,0.0153050189,-9.55667363e-05,-0.000280356104,0.000642937853
91108.627573,-0.00790958008,0.000545741054,-0.00908824863,0.00137609601,3.30979709e-05,0.000972371793
91108.637599,0.0147117824,0.00667576824,-0.00923730171,0.00024691579,0.0014357849,0.000336675218
91108.647625,0.000304372672,0.00222989475,-0.019565219,0.000385666497,-0.00029074233,-0.000942175032
91108.657651,-0.0020943636,-0.00321412294,0.0135081986,-0.0012275443,-0.000655937194,0.00133166999
91108.667676,0.00413213482,0.00850261834,-0.00504920237,0.000725884367,0.000921719522,0.000973474479
91108.677701,-0.00673194657,-0.00904494798,0.000180514973,0.0013418734,-0.00130548207,-0.000635074207
91108.687727,0.015037006,-0.0139670607,-0.00700325905,-0.000429661219,-0.00122958207,0.000592109992
91108.697753,-0.00109333333,-0.00446273476,0.00826503723,-0.00107308096,-0.000720652006,0.00178840176
91108.707779,0.0141810182,0.00179501046,0.0160473617,0.000769826495,0.000840493118,-0.000663304457
91108.717805,0.00735902672,0.00393151104,0.0133515467,0.000830013915,0.000206394401,-0.000212697068
91108.727831,0.018136769,0.00657837228,0.00542367632,-4.08810025e-06,-9.58791876e-06,0.000507421105
91108.737857,-0.0083283512,-0.000656839669,-0.00594527443,-0.00105923243,-0.000269246124,0.000161210319
91108.747883,0.0122348903,-0.00557697961,-0.0147750621,0.000973025714,-0.000160589185,0.0016557763
91108.757909,0.00333327263,-0.000976938468,-0.00414845414,-0.00149465926,0.00048149894,0.000461614935
91108.767935,0.00324540141,-5.58781007e-05,-0.00699273766,0.000445187178,-0.000438356841,-0.000195120217
91108.777961,0.0112954129,-0.00211332209,-0.00370304846,-0.000537519257,0.00139629485,-0.000562903227
91108.787987,-0.00919112949,-0.00708957613,-0.0105840401,-0.000977473481,-0.000615989742,0.000211544579
91108.798013,-0.00605684091,-0.00503848882,0.00109061555,1.1624563e-05,0.00112784822,0.000457354134
91108.808039,-0.00168849763,0.0191326604,-0.00100021924,-0.000153491435,0.000573644345,-0.00135972047
91108.818065,0.00948978597,0.00199725504,-0.0179040078,-0.000262414718,0.00163012038,-0.000748525129
91108.828091,0.00723218091,0.00391543668,-0.00667943392,-0.000628066746,0.00108523765,-0.000316028239
91108.838117,-0.0102909074,-0.00596320245,-0.00114284259,0.00071310115,-0.000320911477,-0.000177809724
91108.848143,-0.00484633261,-0.00725192708,0.00588661766,0.000595123127,-0.000366185163,0.00120250626
91108.858169,-0.00709554659,-0.0089471867,0.00273779824,0.000318953329,0.000128363888,0.000652297644
91108.868194,-0.00134761291,-0.00454946319,-0.00129657184,-0.001238197,0.00101466377,0.000312477595
91108.878220,-0.00186865595,0.00618951909,-0.00413734823,-0.00107121669,0.00135528219,0.000799304119
91108.888246,0.0114459901,0.00303872691,0.00439257971,0.00102495737,0.000161387073,-0.000317891815
91108.898272,0.00209831259,-0.0156910349,-0.00593124591,7.6872004e-05,0.000389619894,0.000942581578
91108.908298,0.00746852297,-0.0058006323,-0.0087749449,0.000583405226,0.000329166232,4.08409396e-06
91108.918324,-0.00286413669,-0.00228597524,-0.0220973678,5.1571986e-05,5.0066901e-05,0.00086854609
91108.928350,-0.00859773474,0.00117717083,0.000496741315,0.00083773714,0.000557399111,0.000362279138
91108.938376,0.00330204638,-0.000795809748,0.0103745767,-0.00177242715,-0.0013203958,-5.4239051e-05
91108.948402,-0.000591821541,-0.009122251,-0.00354522755,0.000649451655,6.39101549e-06,0.00102380874
91108.958428,0.0066626705,-0.0055637548,-0.0125217302,-0.00100783343,-5.8057438e-05,-0.000468094589
91108.968454,-0.00670747428,-0.02321427,0.000206818458,-0.00158866882,0.00172892369,0.000294900744
91108.978480,0.000325961166,-0.00129404159,0.00543945841,0.000944796162,0.00117072503,0.000128453842
91108.988506,0.00522605155,-0.000677224869,0.0133690824,-0.000624604612,-0.000471113668,-0.00104360351
91108.998532,0.00606261768,-0.00670233038,0.00663831281,-6.96018703e-05,0.000311323023,0.000301026052
91109.008558,0.00529275326,0.0129495147,-0.00143627257,-0.00211730637,0.000819720433,0.000192902295
91109.018584,0.00573932228,-0.00627570246,-0.00577108691,-0.000336716914,-0.00135235367,-0.000668364333
91109.028610,0.00402977841,-0.00151257972,0.00141327164,-0.000675737306,-0.000679639121,-0.000639335939
91109.038636,-0.0127379604,-0.0110797417,0.00156232472,-0.000328727417,0.000426904229,0.00142248372
91109.048662,0.00140339712,-0.0122009278,0.00574750145,0.00133841144,0.000435958896,0.000104485324
91109.058687,0.000500305095,-0.00248463962,-0.00907538915,0.00109260165,-0.00069055818,0.000896242692
91109.068713,0.00737200608,0.00237558683,-0.00848151491,0.00108328051,0.000956074324,-0.00114320567
91109.078739,0.00187754598,0.000990123821,-0.0153625066,-0.0014397983,0.00203518702,0.000422200433
91109.088765,0.000760960758,0.00244470654,-0.00189219965,-0.000179856726,-0.000110255391,-0.000128541829
91109.098791,0.00494433483,-0.00699393374,0.00424352663,-0.00120038007,-0.00115181757,-0.00103481555
91109.108817,-0.00192963917,-0.00916813597,-0.0128005472,-0.00252690065,-0.000449542142,-0.00101297697
91109.118843,0.011897652,0.000562107667,-0.00367323785,0.000719759059,-0.000560862198,-0.000539733784
91109.128869,-0.0178753084,-0.00459702866,0.011435484,0.00131976939,-0.000944890035,0.00102354238
91109.138895,0.0108314555,-0.00947384092,-0.00787185858,-0.000595842519,0.000927045872,0.000746040849
91109.148921,-0.0073673995,0.00228995437,0.00140976451,0.00103241423,0.000872717344,-0.000358106324
91109.158947,0.00608674177,-0.0088599468,0.00963515654,0.00151178319,0.00138351163,-0.00253976764
91109.168973,0.00329527871,-0.00172315373,0.0109754652,-0.00015375775,7.03069853e-05,0.000618741161
91109.178999,0.00183094634,-0.00396815617,-0.00937524888,-0.000756164811,-0.000922519434,-0.00013706343
91109.189025,0.00798515013,0.00196123388,-0.0186492732,0.000186594231,-0.0001286312,0.000636318012
91109.199051,-0.0119806974,-0.000638061903,0.00230349848,-0.00114312201,0.0010788461,-0.00116877233
91109.209077,0.0112627253,0.00816571454,0.000210325589,-0.000117272446,0.00136913061,2.40572379e-05
91109.219103,-0.00782954853,0.000100481505,-0.00457924678,0.00101909842,-0.000447411509,-0.00181485502
91109.229129,-0.00121587743,-0.00217111669,-0.00473648316,-0.0011934558,-0.00060080965,0.000169466494
91109.239155,-0.00309084327,0.00267720013,-0.0090794808,-0.000612886711,0.00106845975,0.000486382528
91109.249180,0.00799420451,-0.0100365894,-0.00833187731,0.000986075173,0.00170309101,0.000250160007
91109.259206,0.00573891357,0.00317791619,0.0209941704,0.00151577787,-1.78437441e-05,0.00051407913
91109.269232,-0.00970295831,0.00646906669,0.00228946995,-0.000502898156,0.000694285543,-0.000222285034
91109.279258,-0.00192689237,-0.0155203545,-0.00727798434,-0.00202356317,0.000879641553,3.97705124e-05
91109.289284,-0.0135115682,-0.011463042,-0.00128429688,-0.000573471918,-0.000318248243,-7.98057183e-05
91109.299310,0.00634493833,0.0046007886,0.00664298898,0.00227211564,0.00216221989,-0.000904586853
91109.309336,-0.00350583098,0.00588111073,0.00274715059,0.000711769592,-0.00166447619,0.000136442727
91109.319362,0.00509609475,-0.00533535287,-0.000544876693,-0.000470673929,0.000368048368,-3.98584991e-05
91109.329388,-0.00626997677,0.00253888763,0.00139456694,0.00145479161,-0.00157526038,0.00112287818
91109.339414,-0.0033744928,-0.0048216312,0.0145644296,-0.00030928635,-0.000618120143,0.00136362786
91109.349440,-0.00487613638,0.00623898426,0.00573639553,0.000136793124,0.000467384281,0.000350294879
91109.359466,-0.0076959693,-0.0102977976,-0.00294726166,-0.00010875032,0.000283626072,0.000182516186
91109.369492,-0.00139703926,-0.00305827479,0.00572821223,0.000104835197,0.00195768911,0.000559885299
91109.379518,-0.00532691464,-0.00589715147,0.00303473536,-0.00033884743,-4.36764205e-05,-0.000748258771
91109.389544,0.00530263419,0.00846418603,-0.0116297498,0.000774353887,0.000888962637,0.000910357817
91109.399570,-0.00642102773,0.00214199727,0.0030277211,0.00108328051,-0.000984038645,-0.000679283158
91109.409596,-0.00466290348,-0.00575277457,0.00796342393,-0.00014177352,-0.000273507158,-0.000992737466
91109.419622,-0.00532064587,-0.00514596778,0.0163524821,-0.00199586633,0.00169936258,0.000219000748
91109.429648,-0.00782171172,0.00519605108,-0.0147733085,0.0016044612,0.000943024806,0.000379855989
91109.439673,0.0105351269,0.00844387389,-0.00505329403,0.000477677763,0.0011262503,-0.00037621496
91109.449699,-0.00771356489,0.00993783878,0.00931191593,-0.000493310772,0.00145541695,0.00181130531
91109.459725,0.00320802226,0.0139434942,0.0184421479,0.000589264177,0.00170948256,-0.00100844981
91109.469751,-0.00544845923,-0.00261089635,-0.00251062381,0.00122256399,0.000256994553,-0.000333338731
91109.479777,0.0090072837,-0.00314164222,0.0040693391,0.00132642718,0.000778707781,0.00126029715
91109.489803,-0.0179721119,-0.00183041349,-0.00236273977,-0.00192795569,-0.000142213376,0.000804896711
91109.499829,0.0161535536,-0.00668625603,-0.00610894056,0.00186012461,-0.000161121785,0.00128080348
91109.509855,0.00572755421,-0.00530261965,0.00719711574,-0.000916220744,-0.0014711306,0.000154552294
91109.519881,-0.00580199337,0.0155465455,0.00645477294,-0.00110637039,0.000754206663,-2.14825734e-05
91109.529907,0.00912691204,-0.0108117385,0.010796017,-0.000222467295,0.000708400319,-0.000850258151
91109.539933,-0.00542876016,0.00203196102,-0.00102360012,0.000361031298,-0.000218113372,-5.47717675e-05
91109.549959,0.00469643476,0.00250308567,0.000780234431,-0.001314097,0.000692155026,0.000952169544
91109.559985,-0.0212419433,0.0126392067,-0.00834532131,0.000743985844,0.000353750587,-0.00158196943
91109.570011,0.00584775166,-0.00350156158,-0.00355808703,0.000626806721,-0.000653723208,-0.000261573808
91109.580037,0.00402367746,0.00493513512,0.00885832695,0.000257692618,-0.000151184806,-0.00140220554
91109.590063,-0.00133198494,-0.00345319239,0.00107775607,0.00054877615,-0.00141512109,0.00187587949
91109.600089,-0.00731421029,0.00248138529,-0.00460496574,0.000264616827,0.000973468111,-0.000339338311
91109.610115,0.000505270677,0.00430852765,0.00467022761,-0.000798517054,-0.00251474006,0.000292896538
91109.620141,0.00677032128,0.00925789369,0.00960709949,-0.000279466972,0.000128447125,-3.62701132e-05
91109.630166,-0.0183844076,-0.010142534,0.00243092425,-0.00102062468,-0.000713644269,-0.000767574401
91109.640192,0.00524389602,-0.00384511432,0.00407635337,0.00178128699,-0.000540805235,0.00116827736
91109.650218,-0.012780498,0.00605749021,-0.00625039486,-0.00127948393,-0.000586611637,-0.00155533733
91109.660244,0.000306007507,0.00484709151,0.0031773587,3.61176192e-05,-0.000438806204,0.000419662578
91109.670270,0.00397953978,-0.0126808933,-0.00624864129,-0.0016041233,0.00030554731,0.000699827692
91109.680296,-0.00472122324,-0.00575445507,-0.00788764067,-0.0016432718,0.000676525687,0.000205278641
91109.690322,0.00908618388,-0.000732827514,0.0106715138,-0.000201170029,-0.000482481974,0.00189611946
91109.700348,-0.00442075787,-0.00374830288,-0.00473999029,0.000288851587,0.000667737262,0.00143619139
91109.710374,0.0177471166,0.000643867666,0.00767642369,0.00075916582,-0.000255314353,0.000271857029
91109.720400,-0.0146488001,-0.0119836318,0.0142645699,-0.0016432718,0.000906090183,-0.00033800652
91109.730426,0.00347086703,0.00161278576,-0.0153531542,-0.00187097202,-0.000183142675,-0.00031590251
91109.740452,-0.0108973803,-0.00243393234,-0.00577576308,0.00134426236,0.000475989644,0.000253481104
91109.750478,-0.00233217325,-0.00794875024,0.00290146437,-0.00102302156,-5.26478508e-05,0.0012886522
91109.760504,-0.00159939629,-0.00337333209,0.0099385234,-0.000925017202,-0.000483813532,2.6846549e-05
91109.770530,0.000873595386,0.00748620784,-0.0213316441,-0.000406233421,0.000534579205,-0.00159315461
91109.780556,0.000713871355,-0.00372236472,-0.000383548651,-0.000145509957,-0.000395662919,0.000219659193
91109.790582,-0.00508446592,-0.00556952696,-0.00127786714,0.000179661989,-0.00114720706,-0.000554254965
91109.800608,0.0116584158,0.0033153519,-0.000982099066,0.000896851269,-0.00240022417,0.00112540066
91109.810634,-0.000525414945,0.0156847119,-0.0117624363,9.49735097e-05,4.85523377e-05,-0.00124188302
91109.820659,0.00879985377,0.00454927761,0.0103780839,-0.000264553267,-0.000979161541,0.0022287483
91109.830685,-0.00783107263,-0.00328141602,0.00529391246,-8.26593621e-05,0.000720467873,-0.000933489518
91109.840711,-0.00146962615,0.00552542916,-0.0217986771,0.000755703745,0.00159078888,0.000601290038
91109.850737,0.0027027225,0.0129885316,0.0130680536,-2.77982342e-05,0.000124718692,-0.000240801589
91109.860763,-0.0052460611,-0.00605621449,-0.000995543069,-0.000445115585,-0.00113202697,0.000437772146
91109.870789,0.00966976848,-0.000127043641,0.0193586782,0.000593250936,-0.000294995447,0.000322191289
91109.880815,-0.00435737948,0.00383323829,0.00064988605,0.000719751084,0.000511942362,-0.000661314221
91109.890841,-0.0006332501,-0.00260088641,-0.00877728299,0.000571679293,-0.00106837735,-0.000294596644
91109.900867,-0.0085514599,0.00835042346,0.00589480097,-0.00140944615,-0.00100845629,0.000985584466
91109.910893,0.0111266596,-0.000862299113,0.00185049401,0.00178714594,-0.000663577066,0.00134058368
91109.920919,0.00266738975,0.0114798075,0.00663422116,-0.000216616363,-0.000160505832,-0.00135400215
91109.930945,-0.00275324192,-0.00956772975,5.6596332e-05,-0.000449909277,0.000183840911,0.000529385416
91109.940971,0.0181875356,0.00305860066,0.00693641897,0.000887796485,-0.000420430395,-0.00120593117
91109.950997,-0.00482750062,-0.00869299274,0.00902666925,0.000497110798,0.00118039576,-0.000124154368
91109.961023,-0.0170142403,-0.00687629871,-0.00893101224,-0.000105296234,0.000579852949,0.00110862242
91109.971049,-0.0109268181,0.00706681339,-0.00279762406,-0.000391852374,-0.000373825034,-0.000879427174
91109.981075,0.00861282047,-0.00846071835,0.00991923418,0.000651041481,-0.000345329241,0.000966675824
91109.991101,0.00545139673,-0.00860093054,0.00513024633,-0.00115591326,-0.000113900471,0.000170657656
91110.001127,0.00384632131,-0.00728495257,-0.00489371955,0.000182591464,0.000476256002,0.000469996838
91110.011152,-0.00246022635,0.0023891039,-0.00309456118,0.00111656202,0.000408611715,0.000485442823
91110.021178,0.00197276311,-0.00297629559,-0.00863232156,0.00015542723,0.000753224758,0.00187002054
91110.031204,0.00882798846,0.002530339,0.00438790353,0.000353033798,-0.00140606631,0.000294493756
91110.041230,-0.0128711766,-0.00720750342,-0.00294375453,0.000994056665,-0.00140233776,0.000863079226
91110.051256,0.00183578692,-0.00745621749,0.00184172618,0.00128620546,-0.000898467795,0.000529385416
91110.061282,-0.00513032235,-0.00138654218,-0.0113322282,-0.000474942995,-0.000398326152,-0.000192864554
91110.071308,0.0028181787,0.0104449115,-0.00534730854,0.00107102198,-0.00154135488,0.000655885099
91110.081334,0.000181367347,-0.00232060816,0.013799875,0.00211551375,0.000110603916,0.00133259433
91110.091360,-0.0009305828,0.00285357961,0.00601287439,0.000497377098,0.000387040072,-0.000271693559
91110.101386,0.00656160872,-0.00609135887,0.000474529483,0.000229463125,-0.000577556854,-4.58580791e-05
91110.111412,-0.00758388951,0.00820144344,-0.0122405752,-0.000327137562,0.000968674478,-0.000667972246
91110.121438,0.00488853582,0.00910716011,-0.0210691938,0.000738659494,-0.00133043243,-9.48596164e-05
91110.131464,-0.00907876429,-0.00335601562,0.0137992905,-0.000476807212,5.22807712e-05,0.000742703921
91110.141490,0.00180326261,0.00376696812,-0.016573636,0.00016128618,0.000924465992,0.000854023977
91110.151516,0.00642919168,-0.00591877878,0.00138053841,0.00117914632,-0.000341334449,0.000296358264
91110.161542,-0.000163424078,0.00243922665,0.00512264755,-0.00170772025,0.00126481794,-0.000500725338
91110.171568,-0.00811334989,0.0101825343,-0.000411605702,-0.000650977921,0.000262404141,-0.000752128416
91110.181594,-0.000713047042,-0.000582751519,-0.0111855132,-0.00020915951,-9.23832355e-06,0.000848431385
91110.191620,0.0127109605,0.002782341,0.00617712504,-0.000130329952,0.000693836238,0.00124151424
91110.201645,-0.0101118462,-0.00854145544,-0.00608672873,0.000532264558,0.000219527213,-0.00117903271
91110.211671,0.0201355073,0.00529052443,-0.0107202337,-0.000960703621,-0.000379417627,0.000984519033
91110.221697,-0.0196168012,-0.00601507877,-0.00158766374,-0.000522613556,-0.00040738082,-0.000777427794
91110.231723,0.00361498478,0.00536804664,-0.00323426191,0.00120684327,-0.000370096601,0.000267063512
91110.241749,-0.010637562,-0.00877570259,0.00334570101,0.000496844498,0.000360674796,-0.000997405255
91110.251775,-0.00607913494,-0.00194417607,-0.00369369611,0.000988996673,-0.000598862138,0.000631650223
91110.261801,0.00850297374,-0.00307566431,0.00168916597,-0.00109705739,-0.00134401461,0.000960816874
91110.271827,-0.0163473214,0.00500082077,0.0159047383,0.000929874454,-0.000631885323,-0.000649862678
91110.281853,-0.00210334149,-0.00187644459,0.00109003103,0.000511758173,-0.000730688637,-0.00102643365
91110.291879,0.00533664948,-0.00422629565,-0.004598536,0.000120273528,0.000936716493,-0.000755057426
91110.301905,0.0173806146,6.25606472e-05,0.00722575731,-0.00163102118,0.000208075671,-0.000366768555
91110.311931,-0.00434009099,0.00362471011,-0.0075866119,0.000173803039,0.000801694277,0.000789841881
91110.321957,0.00826150455,-0.000865148657,-0.010579364,-0.000188919484,0.0002855737,0.000224719069
91110.331983,0.0114339629,0.00580738791,0.000497910359,-0.00169786651,-0.00132164401,-0.000181413011
91110.342009,-0.015203581,-0.00527675455,-0.00458918365,0.00126516641,-0.00114827226,0.00119384356
91110.352035,0.00256644156,-0.00959863634,-0.010875132,-1.31508584e-05,-0.00113069541,-0.000278085226
91110.362061,-0.00646223082,-0.0103162831,-0.00354522755,0.000729871068,-0.000243862811,-0.00118861975
91110.372086,0.0147444859,-0.00480577604,0.012318112,-0.000607302094,0.000693569938,0.000952295272
91110.382112,-0.0031188421,0.00301359247,0.00229940682,-0.000762564394,0.000711679448,0.00135256794
91110.392138,0.00411259672,-0.0141946589,-0.020594562,5.15639533e-05,0.00160357209,-0.000706321315
91110.402164,0.0123616436,-0.0094085206,0.00888404591,0.000553303484,0.000252550399,-0.000283944176
91110.412190,-0.0047169592,-0.00782227432,-0.00517838171,3.95797235e-05,-0.000326420715,-0.001121775
91110.422216,0.00770673277,-0.0227370079,-0.00173963944,0.000661694181,0.000396094856,-0.000528689229
91110.432242,0.00164626483,-0.012212326,-0.0179034233,0.00032214113,0.00124830641,-0.000103914866
91110.442268,-3.39205131e-05,0.00398207218,-0.00249308815,0.000211353616,-0.000534147326,-0.00104773858
91110.452294,-0.00479304979,0.00186719892,-0.00563430879,0.000711495259,0.00157401098,-0.000797401869
91110.462320,0.00918709268,-0.00495022601,-0.00908006533,-0.000620085253,0.00155776569,-0.000690076256
91110.472346,-0.00181184316,-0.0168150705,-0.00922678032,-0.000778809686,-0.00140952826,0.00110302983
91110.482372,0.00524460784,-0.00680126071,0.00394191333,0.000672879482,-0.000545332627,0.000421527086
91110.492398,-0.00366033884,0.0011681838,-0.00129774089,-0.000452039794,0.0007529584,-0.000597398484
91110.502424,0.000406630895,0.0014899631,-0.00174782274,7.71303005e-05,0.000892241765,-0.000217365788
91110.512450,0.000947528272,-0.00520420077,-0.0155168204,-0.000636596845,0.00129571061,0.000817273057
91110.522476,-0.0121140974,-0.00823896536,0.00259166777,-0.000421946084,0.000998501829,0.00116055437
91110.532502,-0.00320003014,0.00224209664,-0.010726079,0.000660895223,0.000481582294,-0.000100452208
91110.542527,0.00312169283,0.000441623093,0.00244203016,0.000416150693,0.000962815527,0.00103272243
91110.552553,0.0161681792,-0.00560262551,-0.0041472851,0.000362887482,0.00030554731,0.00182341483
91110.562579,-0.00593143814,0.00578999838,0.0142663235,-0.00269197711,0.00134905712,0.0011719477
91110.572605,0.0126978739,-0.00853911735,-0.00113933545,-0.00119235125,0.00126064026,0.00138073951
91110.582631,-0.00601543005,-0.00225265749,0.0148718881,6.83891396e-05,0.000511226699,-0.000499185862
91110.592657,-0.0154801067,-0.00906102233,0.00245664321,-0.0012954156,0.000648113189,4.96918918e-05
91110.602683,0.0174438571,0.012871408,0.00261037247,-0.00129062197,0.0014787531,0.000589248037
91110.612709,-0.00248149462,-0.00449977883,-0.00141990596,-0.000405120898,-0.000267747975,0.00110749925
91110.622735,0.0032582432,-0.0019766901,0.00681191581,0.000973065004,-0.00170239289,-0.000368957163
91110.632761,-0.0124599266,-0.00236269374,-0.00665956018,-0.000501527307,0.000188185298,0.00102973474
91110.642787,0.00955147586,-0.00368546677,0.00186802967,-0.000912453079,-0.000316217495,0.000497902057
91110.652813,-0.0136995377,-0.0096418179,-0.00995509459,-5.09204708e-05,0.000298173796,0.000762087537
91110.662840,-0.00777453326,0.00967480393,0.00485844366,0.000252679891,0.00116396747,0.000659289083
91110.672866,-0.00107744392,0.00270810672,0.00201123753,0.000526186514,0.00113520532,-6.05636626e-05
91110.682892,-0.0045369196,0.00187443237,0.00740345196,-0.00189835535,-0.000970289762,0.000386582001
91110.692918,-0.000951433792,-0.00526981336,0.00815865424,-0.00149302223,0.000305098063,0.000839052966
91110.702944,-0.00668263553,-0.00391036157,-0.0120430068,0.000236434598,0.00129179917,0.00150031528
91110.712970,0.00992659278,-0.011277164,0.00396997038,-7.24920844e-05,0.000123736729,-0.000845929363
91110.722995,-0.00631037557,0.0115586449,0.00936101577,0.000283572559,-0.00102222147,0.00106888382
91110.733021,0.0165242672,-0.000296335793,-0.0130828712,0.000137631343,0.000539189892,0.000142636022
91110.743047,-0.000983305647,0.0054637621,-0.00724174398,-0.00132817254,0.000426271861,-0.000699189247
91110.753073,-0.00109145076,0.000413054585,-0.00304487681,-0.000918312029,-8.90497578e-05,0.000791915006
91110.763099,0.000801013637,-0.000310656579,0.003986337,0.000162665061,0.00127422232,0.00144865016
91110.773125,-0.00115873642,-0.00373259385,0.00278806712,-1.89625441e-05,-0.000949517078,-0.000157235877
91110.783151,0.0129764065,-0.00420079589,-0.00155025434,0.000533377081,0.000415619161,0.000611352047
91110.793177,-0.00397709262,-0.00968214991,0.00099943014,-0.00215827991,0.00181724089,-0.000110364275
91110.803203,0.0149121181,-0.00744116605,-0.00872642958,0.00122792946,0.00106436519,0.000335715024
91110.813229,-0.00332187726,-0.00609062822,-0.000646583501,-0.00136572312,-0.00113327517,0.000329056999
91110.823255,0.0187853348,-0.0113503754,-0.000504544682,0.000529115989,0.00139592884,0.000142103306
91110.833281,-0.00936284078,-0.000937994697,0.00637293987,0.000153343977,0.00117515277,0.000256086944
91110.843307,0.00581923053,0.00416977677,-0.002756123,-0.000622168563,0.000398308668,0.00256105257
91110.853333,-6.60132764e-05,0.00605938991,-0.00350080389,0.000310736794,-0.000396644882,-0.000833412388
91110.863359,-0.00503750952,-0.00396231095,-0.00035841421,0.000363467405,0.000460360363,-0.00119001021
91110.873385,0.000958916174,-0.0064851805,0.00368004753,-9.43299981e-05,-0.000989198172,0.000549833535
91110.883410,-0.00312300796,-0.00437001497,-0.0141279964,-0.00106824798,0.00151683628,3.3712259e-05
91110.893436,0.0139859489,-0.00625509807,-0.00409643169,-0.000642941189,-0.00073699695,-0.00101637164
91110.903462,-0.0177971115,-0.00433998516,0.00637995413,-0.000116434241,-6.75809511e-06,-0.000591330917
91110.913488,0.00685918573,0.0121137946,0.00383669939,0.0004148664,-0.000284525868,-0.000462700368
91110.923514,0.00171488907,-0.00523444978,-0.00155083886,0.000675856221,1.50797894e-05,0.000204155466
91110.933540,-0.0160965638,-0.0075030523,-0.00334473654,-0.000624032722,-0.00076069911,-0.00148721853
91110.943566,0.00399928452,0.00256190318,0.0116166857,-0.000528425242,-0.00118414168,-1.79528608e-05
91110.953592,-0.0229229072,0.000669221303,0.0101168026,0.00101727337,0.00100550933,0.000327459781
91110.963618,0.000827157291,-0.0132207724,-0.0207102974,-0.00080432874,-0.00091755921,0.000388179219
91110.973644,-0.0163753762,-0.00248332444,0.00158804368,-0.000728428627,-0.000520748272,0.000753565005
91110.983670,-0.0106975566,-0.0102977245,-0.0109791769,0.00163965413,0.00094691983,0.000926138146
91110.993696,0.00693336179,-0.0141492854,0.0165512195,-0.000232015418,0.00015303148,0.000301626755
91111.003722,-0.0179236,-0.00731534771,0.000842778274,-0.000806725615,-4.27107554e-05,0.00108592795
91111.013748,0.0020085548,0.00927360272,-0.00169989195,0.000246820941,0.000312821172,0.000423066563
91111.023774,-0.0122946131,-0.00430242963,0.00188907246,-0.00126132721,4.42708901e-06,0.00111309184
91111.033800,0.00263031314,0.00575821501,0.00473920119,-7.16931261e-05,3.63850739e-05,-0.00045497691
91111.043825,-0.0114643893,-0.00561628871,-0.00917709596,-0.000924437338,0.00147449207,-0.00135752255
91111.053851,0.010966818,0.00661183616,-0.00588214607,0.000218058789,0.00104172835,0.000731727353
91111.063877,0.000505514418,-0.00359976125,-0.00558053277,-0.000858124609,0.000994324149,0.00120017702
91111.073903,-0.0138243811,0.0139158025,0.00115257488,0.000398887407,0.00112987896,0.000816149882
91111.083929,0.00826769112,0.00790830571,0.00713924807,-0.000585416886,0.00198501993,-8.58630403e-05
91111.093955,-0.00873718545,-0.000320593451,-0.00228792097,0.00126654535,0.00141856568,0.00121908566
91111.103981,0.0143226038,0.00469650406,0.0119229752,0.000403947457,-0.0013415345,-0.00101131176
91111.114007,-0.00846329813,-0.00187797896,-0.0203993317,-0.000996076416,0.000472877222,0.000984727649
91111.124033,0.00712591095,-0.00857762273,0.00249288357,0.000328579945,3.66514322e-05,0.000352759159
91111.134059,-0.00850514167,-0.00390970398,0.0188016288,0.000979190196,0.00179353873,-0.000529279688
91111.144085,0.00816603568,-0.00505982387,0.00413422103,0.000152545019,-0.000342582771,-0.00138415465
91111.154111,-0.00350766503,0.00300774725,-0.00529177896,0.000406876932,3.53197573e-05,0.000318937248
91111.164137,0.000184404121,-0.00170320692,-0.0018454379,-0.00106105747,0.000667820557,-0.0003015797
91111.174163,-0.00554070637,-0.0108164877,0.00174469555,0.00137360437,8.75177101e-05,-0.00114660034
91111.184189,-0.00843613612,-0.0111301568,0.00234441501,-0.00141472524,-0.000768954818,0.000155685714
91111.194214,0.0101424811,0.00444267543,0.00219419288,-0.000346265036,0.00187902623,0.00045742119
91111.204240,-0.00875372159,-0.00770778109,-0.00797941061,-0.000915559505,-0.000429188087,-0.000893699692
91111.214266,0.00186711021,-0.0085043383,0.00145068104,-0.00122155671,-2.75833992e-05,-0.000224447565
91111.224292,-0.00927088761,-0.0075099935,-0.0015385639,7.30058221e-05,0.00169494927,-0.000330974103
91111.234318,-0.000605140534,-0.00716476026,0.00984032372,-0.000954974357,-6.88624097e-05,0.00119741425
91111.244344,-0.0124597622,-0.00894989011,0.0117943804,-0.00200212925,-0.000331716332,0.000641612581
91111.254370,0.00803613026,-0.0088666688,-0.0107968061,-0.000787727798,0.000782017585,0.00176333567
91111.264396,0.0057907505,0.00894722031,0.00446564495,0.000107893253,-0.000582586112,0.00086904621
91111.274422,-0.0238717826,-0.00435898212,-0.00331609497,0.00174626996,0.0015032016,0.0015769147
91111.284448,0.00265157969,-0.00447975896,-0.00825588946,-0.00016534707,0.000310904394,-0.000387432741
91111.294474,-0.00599893843,-0.00963524202,-0.00600723375,-0.000796782582,0.00049839092,-0.00186282465
91111.304500,0.0125059497,-0.00109172395,-0.00615745588,-0.000282526163,0.000257108524,0.000207783899
91111.314526,0.0014884228,-0.00514633311,0.00327029768,-0.000287319855,6.74914807e-05,-0.00166761478
91111.324552,-0.00813078509,-0.000221297795,-0.00630533992,-0.000890525845,0.000889076666,-0.000510470697
91111.334577,0.0108588024,0.00161614676,-0.009151377,0.00083253937,-0.000425193295,0.000478094688
91111.344603,-0.0166876102,0.00379904376,-0.013037863,-0.00105217975,0.0002829412,0.000107649027
91111.354629,0.00947944952,-0.0156096403,0.00776819362,-0.00169160476,0.000821698679,0.000571837893
91111.364655,-0.0143244007,-0.0031957105,-0.00779353265,0.00048659474,-0.000238239369,0.000952669664
91111.374681,0.00411617292,-0.00162517324,-0.00345871831,0.000239719693,7.46819895e-05,0.00113988972
91111.384707,-0.00580292038,-0.00809546524,0.0118066554,-0.000555766486,7.62799062e-05,0.000720707944
91111.394733,-0.00632440238,-0.0210876333,-0.0076479867,0.000919092067,-0.000790312606,0.00036837185
91111.404759,-0.00960927841,0.00138606434,0.00731402011,-0.00062500869,0.000135402126,-0.000150943862
91111.414785,-0.0144369063,-0.0118678234,-1.29617729e-05,-0.00155045724,0.0014166489,-0.00014535127
91111.424811,-0.0100648008,-0.0133188259,-0.00988261388,0.000221610242,-0.000295763672,0.000653596839
91111.434837,-0.00582323366,-0.00367326488,-0.0128794576,0.000549711722,-0.00054210606,0.000764650537
91111.444863,0.00232725052,0.000846623697,0.00866660377,-2.15363996e-05,0.000428616116,0.00170021901
91111.454889,-0.000862505408,0.00706966293,-0.0166186441,-0.00150891187,0.00197910836,0.00109674666
91111.464915,0.00583776056,-0.0156069368,-0.00554020076,0.000884470965,-0.000805492699,0.00102910238
91111.474940,-0.026780738,-0.00394630967,-1.2377251e-05,-0.000183456579,-0.000455020763,0.00180674555
91111.484966,0.00316960879,-0.00659806629,0.00598014116,-0.000750177221,-0.000437976512,-0.000863872224
91111.494992,0.0140387431,-0.00508451992,-0.000745367701,-4.7901676e-05,-6.91286515e-05,0.00121792058
91111.505018,-0.0197995373,-0.0022286921,-0.0142133366,0.000263155553,-0.000541839818,-0.00108038703
91111.515044,-0.0121409261,-0.0145260828,-0.0152590462,-5.64238014e-05,0.000853922964,-0.00129716912
91111.525070,-0.0127130554,-0.0060728003,-0.00642575142,9.00500438e-05,-0.00203933527,0.000486083573
91111.535096,-0.000201197092,-0.00329939007,-0.00462600853,-0.00114991775,0.00112689699,-0.000490763912
