t,ax,ay,az,gx,gy,gz
83659.631241,0.122065706,-0.110185153,0.00635433746,0.0539757088,0.317584366,-0.125312552
83659.641266,0.149577544,-0.230225637,-0.217464939,0.0528704971,0.319527119,-0.117501758
83659.651291,0.302731924,-0.300919979,-0.417423448,0.0630951673,0.245637193,-0.045050472
83659.661316,0.444616722,-0.338112522,-0.520549476,0.0594620854,0.156729683,0.0534593239
83659.671341,0.157076668,-0.28996392,-0.647734425,0.174764186,0.0754396245,0.105379514
83659.681366,-0.00855447786,0.195082427,-0.550244942,0.263124406,-0.00757083297,0.101512343
83659.691392,-0.0054635261,0.217890764,-0.553802342,0.258617282,-0.0258939136,0.100919522
83659.701417,0.0365093834,0.31761882,-0.243335878,0.192174062,-0.0338168181,0.0603028499
83659.711442,-0.0704334264,0.45644328,-0.0165320326,0.068416968,-0.0256792624,0.00290906522
83659.721467,-0.144814714,0.513164626,0.0613683687,-0.0366684422,-0.00448050024,-0.0477059111
83659.731492,-0.150724668,0.461221454,-0.0697141722,-0.0879316255,0.010182864,-0.0934209302
83659.741517,-0.145392952,0.384210768,-0.194668586,-0.0752081126,0.00147699076,-0.13617532
83659.751542,0.020527532,0.25787871,-0.267038825,-0.00209847838,-0.0125850318,-0.132332653
83659.761567,0.0564158608,0.103805389,-0.196975694,0.0489921346,-0.00975409243,-0.108340494
83659.771592,0.0843025234,-0.0948795931,-0.056355509,0.0719887987,-0.00747762155,-0.0820281953
83659.781618,0.0850204624,-0.0859312937,-0.0576864653,0.0791819915,-0.0275187083,-0.0683414117
83659.791643,0.157716281,-0.0519635576,0.00142272628,0.0627271235,-0.040006537,-0.0505632162
83659.801668,0.17650413,0.00165244338,0.0676180767,0.0485194251,-0.0540491194,-0.0411795676
83659.811693,0.144484313,0.0707080056,0.104128483,0.0345309041,-0.0572784692,-0.0387587547
83659.821718,0.0592722732,0.0928637233,0.129430682,0.00688329851,-0.0511944778,-0.0355970487
83659.831743,-0.0137342186,0.0891183993,0.141314012,-0.0243505202,-0.0499838032,-0.0459495559
83659.841768,-0.0221260532,0.09792919,0.154963183,-0.0441383421,-0.0550027974,-0.0622978993
83659.851793,0.0380048826,0.0672318539,0.173780111,-0.0458113402,-0.0523809157,-0.063560769
83659.861819,0.0505363013,0.0230428758,0.189504919,-0.0486028641,-0.0386163667,-0.0533118658
83659.871844,0.011081366,0.0221295604,0.218701788,-0.0583883822,-0.0314189084,-0.0456800424
83659.881869,-0.0194755387,0.00187850722,0.282370834,-0.0689110681,-0.0177289285,-0.0397925936
83659.891894,-0.0373719915,0.00313186828,0.306421572,-0.069135569,0.00346424151,-0.0362244882
83659.901919,-0.0645898149,0.021332857,0.310130364,-0.0599489957,0.0271557234,-0.0312023014
83659.911944,-0.0705107294,0.0570198181,0.27507191,-0.0385702029,0.0479134656,-0.0337307043
83659.921969,-0.035888475,0.0458403985,0.236221078,-0.0303205289,0.0676962212,-0.0362362079
83659.931994,-0.0350320043,0.0427576301,0.257818577,-0.0522460677,0.0795145333,-0.0409438759
83659.942020,-0.037858606,0.0489256512,0.284720028,-0.0949751586,0.090906471,-0.0472909883
83659.952045,-0.0654312342,0.0169262926,0.229015092,-0.117483929,0.0977603793,-0.0546407811
83659.962070,-0.0932749344,-0.0900457432,0.102407066,-0.120041363,0.0951768458,-0.0530277044
83659.972095,-0.0603624065,-0.18739896,0.101463063,-0.115357392,0.0849497765,-0.0353597626
83659.982120,-0.0222162157,-0.238344427,0.11868717,-0.0979544371,0.0721096098,-0.00474139769
83659.992145,-0.0174858262,-0.254482126,0.104227267,-0.0744022354,0.0609560311,0.0279283971
83660.002171,-0.0477568997,-0.192043352,0.155223295,-0.0602411442,0.0587256327,0.0523589067
83660.012196,-0.108484486,-0.0830732739,0.167509945,-0.0449207798,0.0521066114,0.0541679896
83660.022221,-0.167016462,0.00157777071,0.176199447,-0.0284909364,0.0515097976,0.0437832586
83660.032246,-0.163569098,0.0067575845,0.188908122,-0.018987447,0.061997328,0.036207635
83660.042271,-0.157548377,0.00799742849,0.233670224,-0.029745819,0.0661776885,0.0288341381
83660.052296,-0.131235832,-0.0103356622,0.244068284,-0.0533030778,0.0616740175,0.0267424919
83660.062321,-0.117814332,-0.0950853448,0.173423553,-0.0680660456,0.0526986346,0.0330131724
83660.072347,-0.0423886507,-0.0527590919,0.170350721,-0.0795629099,0.0415421203,0.0483899973
83660.082372,0.0440307188,0.0718525725,0.173991124,-0.0687012076,0.039032355,0.0693890229
83660.092397,0.082353289,0.243732549,0.122026543,-0.0255398881,0.0462612398,0.0782554895
83660.102422,0.113812696,0.475664625,0.114819388,0.00393624464,0.0569698103,0.0696188509
83660.112447,0.182076669,0.695116938,0.130288176,0.00175405049,0.0655449182,0.042717997
83660.122472,0.227657101,0.893167421,0.157114223,-0.0176521372,0.0744798258,-0.00179780554
83660.132497,0.248892197,0.974535353,0.218875975,-0.0579420365,0.0960034952,-0.0484705046
83660.142523,0.26129619,0.985207626,0.250081261,-0.0991203636,0.130037352,-0.0971347094
83660.152548,0.262344822,0.949637058,0.268437586,-0.141427055,0.167233199,-0.140432984
83660.162573,0.286179141,0.898586232,0.202825004,-0.176799163,0.192146003,-0.175483376
83660.172598,0.387543566,0.882965688,0.154994162,-0.209336862,0.207215771,-0.200659305
83660.182623,0.484641273,0.879085339,0.0632230566,-0.219277382,0.211695731,-0.215509623
83660.192649,0.517017941,0.955608899,-0.0729804805,-0.195037544,0.207358241,-0.23666285
83660.202674,0.4926992,0.980670787,-0.261927181,-0.158666223,0.186057493,-0.26503855
83660.212699,0.4228671,0.921459742,-0.341468336,-0.135522559,0.154556289,-0.289276004
83660.222724,0.377863883,0.849704493,-0.352480143,-0.121111393,0.119621478,-0.305585444
83660.232749,0.332647462,0.76095142,-0.330766909,-0.124994554,0.0822352245,-0.320088208
83660.242774,0.291998056,0.668332173,-0.224271697,-0.148899883,0.0541207604,-0.325265944
83660.252800,0.281760594,0.607725509,-0.0707885235,-0.167403787,0.0465946682,-0.325081408
83660.262825,0.252037802,0.620461072,-0.00190554136,-0.166653052,0.0539007857,-0.340220928
83660.272850,0.157819157,0.584366991,0.0106055652,-0.159468904,0.0741248354,-0.362550735
83660.282875,0.101527945,0.525628971,0.0822439834,-0.176573053,0.10177777,-0.376997828
83660.292900,0.101875736,0.504344703,0.0814998871,-0.201020345,0.122622326,-0.391090751
83660.302925,0.1363428,0.51451005,-0.0108779524,-0.21497184,0.129708454,-0.401128471
83660.312951,0.153808898,0.549335645,-0.0757961225,-0.219418257,0.126349688,-0.415222466
83660.322976,0.160807671,0.52778235,-0.133248779,-0.212420806,0.11888884,-0.423866808
83660.333001,0.197906837,0.559356834,-0.1260463,-0.224326193,0.100478679,-0.439569652
83660.343026,0.166209238,0.545170561,-0.0896650734,-0.254036158,0.0813782215,-0.472305179
83660.353051,0.156795951,0.517853807,-0.140300451,-0.270905703,0.0567130819,-0.496243298
83660.363077,0.209691675,0.497141493,-0.0992950715,-0.268008173,0.0425024554,-0.507083416
83660.373102,0.202137314,0.474115642,0.00157294841,-0.268314183,0.0462255552,-0.50830102
83660.383127,0.132259914,0.480155506,0.0300473477,-0.249060303,0.0573413223,-0.513855875
83660.393152,0.12358371,0.534532701,-0.0176408706,-0.20302543,0.0658123121,-0.516304612
83660.403177,0.151727123,0.573082942,-0.0333598333,-0.140361786,0.07029441,-0.521757424
83660.413203,0.139353818,0.519404763,-0.0927408275,-0.097202599,0.068785198,-0.525996685
83660.423228,0.168662768,0.492034891,-0.0925537805,-0.0970761031,0.05720843,-0.529637754
83660.433253,0.223190331,0.519979348,-0.0438122537,-0.146554977,0.0378182195,-0.53708899
83660.443278,0.272296015,0.562952374,-0.0105190559,-0.198630691,0.0238456801,-0.554107904
83660.453303,0.309798501,0.594700973,0.00522445665,-0.222184211,0.0179334618,-0.58111614
83660.463329,0.293648308,0.646728463,0.0514057776,-0.226041809,0.0232659094,-0.606896818
83660.473354,0.205773186,0.641367739,0.0735883833,-0.216814756,0.0313893519,-0.643745422
83660.483379,0.124927525,0.579569966,0.052752516,-0.199369445,0.032852225,-0.680845916
83660.493404,0.13307123,0.485173408,0.147765965,-0.20214127,0.0454955809,-0.707061529
83660.503429,0.152854374,0.325814474,0.140330846,-0.210747808,0.0486508943,-0.729238451
83660.513455,0.196922794,0.198233658,0.0933849707,-0.213246644,0.0459283441,-0.743672788
83660.523480,0.206705207,0.0217548088,0.0659340692,-0.193008229,0.0457142256,-0.751501143
83660.533505,0.113732908,-0.22639015,-0.0118096803,-0.17246832,0.0462484583,-0.745810807
83660.543530,0.00139335405,-0.483301841,0.00841711521,-0.161567479,0.0381942578,-0.723927617
83660.553556,-0.0679115067,-0.754901326,-0.00937222398,-0.15968515,0.0326484926,-0.684607327
83660.563581,-0.128117992,-1.04160968,0.0223918646,-0.183914065,0.0336668864,-0.625334978
83660.573606,-0.142854519,-1.26117948,0.0859095202,-0.21254091,0.0308236945,-0.550533414
83660.583631,-0.10763693,-1.37071377,0.0155628953,-0.190393537,0.0205923636,-0.470775187
83660.593656,-0.0649877282,-1.36407988,-0.100370007,-0.114379726,0.00663580094,-0.394951046
83660.603682,-0.125779612,-1.31842712,-0.153654438,-0.0311665963,-0.0104371924,-0.321962059
83660.613707,-0.268556098,-1.27046768,-0.0913935046,0.0178691242,-0.0297232717,-0.256365418
83660.623732,-0.367425638,-1.15983712,-0.0244277543,0.0405291617,-0.0513015352,-0.210917532
83660.633757,-0.406042953,-1.0638237,0.049787821,0.0434628986,-0.0629267618,-0.180302098
83660.643783,-0.426951593,-1.01066699,0.1510048,0.0335303731,-0.0643576756,-0.161502853
83660.653808,-0.465884258,-0.995485859,0.254034967,0.0169221032,-0.0538909249,-0.148081586
83660.663833,-0.489280916,-1.02439522,0.322083252,0.00405823626,-0.0352874137,-0.13689284
83660.673858,-0.504452474,-1.12499794,0.363347574,-0.0113982176,-0.00870880112,-0.118959382
83660.683883,-0.494999732,-1.20099155,0.430792633,-0.0319929756,0.0213926435,-0.0870677605
83660.693909,-0.484104975,-1.23744395,0.393609442,-0.0492398739,0.046285741,-0.057745032
83660.703934,-0.500533401,-1.33907915,0.3199024,-0.0650121719,0.066129759,-0.028650526
83660.713959,-0.496411206,-1.4084204,0.260042683,-0.0713976324,0.0826410875,0.0175459962
83660.723984,-0.418018784,-1.42523139,0.151927761,-0.0491842106,0.0844131559,0.0690515339
83660.734010,-0.36887569,-1.41135236,0.00042377837,-0.0011964466,0.0753195286,0.126465291
83660.744035,-0.314805077,-1.38229081,-0.122608143,0.0518284217,0.0576917939,0.185929954
83660.754060,-0.209697228,-1.30288789,-0.0957850175,0.0660933778,0.0387519263,0.236543328
83660.764085,-0.133329005,-1.22898913,-0.0043044192,0.046371337,0.037963897,0.275972486
83660.774111,-0.0591201514,-1.11759738,0.0425853423,0.0121984547,0.0516418926,0.311763227
83660.784136,0.0448398432,-0.90151549,0.0407709863,-0.0101665054,0.0806620941,0.341219127
83660.794161,0.130168495,-0.617486294,-0.18537118,-0.0157474261,0.0958466381,0.350832343
83660.804186,0.21725042,-0.254647911,-0.372157488,-0.0375800207,0.0906729177,0.340219378
83660.814212,0.283748845,0.0652091889,-0.51308104,-0.050787434,0.0691761449,0.326529384
83660.824237,0.325006007,0.365044368,-0.665544222,-0.0651120394,0.0434332304,0.305612385
83660.834262,0.30682913,0.58616235,-0.721034639,-0.0949511677,0.0140577648,0.279908121
83660.844287,0.330418972,0.725261536,-0.722073919,-0.138345778,-0.0246789791,0.25461632
83660.854313,0.326599414,0.890374576,-0.764704854,-0.171058446,-0.0763632059,0.234029561
83660.864338,0.253698136,1.03889297,-0.877498874,-0.168259472,-0.142979532,0.219470337
83660.874363,0.164766345,1.23240668,-0.883499576,-0.133282572,-0.218647659,0.213515237
83660.884388,0.0656232496,1.42461998,-0.774029732,-0.0890280306,-0.283628792,0.21362336
83660.894414,-0.0124577689,1.56338782,-0.623981793,-0.0380655155,-0.340897143,0.203068987
83660.904439,0.0182598793,1.66986593,-0.360972662,0.00743379351,-0.365861088,0.185052976
83660.914464,0.163794724,1.70022425,0.0156663557,0.0320659019,-0.351105034,0.154959783
83660.924489,0.270760768,1.65872246,0.294729381,0.0301223267,-0.293910176,0.110911362
83660.934515,0.338326677,1.57152159,0.459037315,0.0084444629,-0.210874155,0.0559660904
83660.944540,0.429810636,1.48048391,0.45524669,-0.0203530975,-0.145968124,-0.00906537473
83660.954565,0.512544887,1.35839424,0.298453954,-0.038534496,-0.111664474,-0.0696602762
83660.964590,0.569921848,1.18652595,0.116359019,-0.0461881571,-0.115762278,-0.114311367
83660.974616,0.591294891,1.01077147,0.0948433528,-0.06767001,-0.129738286,-0.144031718
83660.984641,0.522514492,0.791577371,0.14285715,-0.0847717673,-0.146341503,-0.168384984
83660.994666,0.429848922,0.593069207,0.179364049,-0.090810746,-0.149217188,-0.188813835
83661.004691,0.422005661,0.387455011,0.202317055,-0.0874434486,-0.154611155,-0.199750632
83661.014717,0.444160941,0.210988875,0.199929867,-0.0715156123,-0.165226772,-0.202710211
83661.024742,0.406310079,0.0104991822,0.0752016637,-0.0289963856,-0.194436863,-0.193765178
83661.034767,0.344461234,-0.152880604,-0.00588321282,-0.00281644752,-0.242167369,-0.166851804
83661.044793,0.279844239,-0.270342251,0.0625023411,0.0148935728,-0.290639818,-0.126692399
83661.054818,0.206021024,-0.292782484,0.0631172582,0.0439108424,-0.328793615,-0.0906585008
83661.064843,0.0845113439,-0.215139711,0.186830147,0.0519160405,-0.35128665,-0.0724270344
83661.074868,-0.100201227,-0.124889933,0.392609325,0.0405813605,-0.341240138,-0.0726699159
83661.084894,-0.233969646,-0.0495456097,0.475004115,0.0379879735,-0.310399413,-0.0927842408
83661.094919,-0.288453808,-0.00275240398,0.469441805,0.0580184087,-0.266534746,-0.119830504
83661.104944,-0.286985196,-0.00768299225,0.505988451,0.0820576996,-0.212593228,-0.139278769
83661.114970,-0.281407981,-0.0586443505,0.546733719,0.0781612322,-0.156985089,-0.145152643
83661.124995,-0.298074015,-0.110664168,0.621661242,0.0292807687,-0.100388385,-0.144527063
83661.135020,-0.360544354,-0.163507358,0.662137629,-0.0578317642,-0.0442779809,-0.143953145
83661.145045,-0.364289531,-0.21629922,0.440247274,-0.137112737,-0.00614044815,-0.146871969
83661.155071,-0.292596314,-0.210403842,0.207127085,-0.194598481,0.00482963305,-0.1510811
83661.165096,-0.201390003,-0.218249295,-0.0139969612,-0.202380776,-0.0020972488,-0.14286232
83661.175121,-0.123446785,-0.266810314,-0.23689094,-0.167857155,-0.0258640982,-0.119487226
83661.185147,-0.121552058,-0.29326161,-0.345537192,-0.122618034,-0.0569983162,-0.0905810073
83661.195172,-0.123976654,-0.288486687,-0.360956295,-0.0940404534,-0.091331251,-0.0589032397
83661.205196,-0.10522227,-0.247529859,-0.335583954,-0.0956412777,-0.123779736,-0.033409331
83661.215223,-0.0946089595,-0.219393387,-0.374552859,-0.119523443,-0.168379694,-0.0155187473
83661.225247,-0.0360885276,-0.198400612,-0.490645336,-0.122326687,-0.225352168,-0.00126044825
83661.235273,0.173039084,-0.384247849,-0.664897157,-0.404438794,-0.429965764,0.0688723028
83661.245298,1.54032945,-2.75822436,-2.69311037,-1.0550139,-0.997970581,0.317076504
83661.255324,1.97357869,-3.33533656,-4.95845418,-0.612859666,-1.20459652,0.512513936
83661.265349,0.219514273,-0.53251442,-4.21874056,0.348182768,-1.14446044,0.511455059
83661.275374,-0.875559722,1.2610126,-1.53216514,0.931314588,-1.0710057,0.437677741
83661.285400,-0.935382323,1.71859957,0.798661484,1.02768517,-0.971919,0.35359484
83661.295425,-0.615566724,1.70457557,1.78096046,0.819789171,-0.864741981,0.234673783
83661.305450,-0.23365678,1.50337686,1.86612354,0.489604354,-0.747353554,0.0998616442
83661.315475,0.105252226,1.25180039,1.7124919,0.172669277,-0.60957253,-0.0369737037
83661.325501,0.318024624,0.987901103,1.54315182,-0.0942604318,-0.470923066,-0.147828847
83661.335526,0.392431338,0.736820383,1.28158762,-0.280413002,-0.374954462,-0.203081712
83661.345552,0.2892226,0.554380105,0.698975367,-0.336019248,-0.346377134,-0.224279687
83661.355577,0.219816763,0.360720733,0.0549754528,-0.265921652,-0.371003658,-0.216056898
83661.365602,0.317388664,0.199963806,-0.30863048,-0.133690923,-0.423463941,-0.178033084
83661.375627,0.485968576,0.0878926934,-0.393071097,0.0114196585,-0.486482859,-0.119882435
83661.385653,0.624563393,0.0495488977,-0.268065246,0.106074527,-0.540393472,-0.0620234013
83661.395678,0.602241379,0.043515755,-0.0738496646,0.126948386,-0.569711387,-0.0134931467
83661.405703,0.47416065,0.092973175,0.033966567,0.0934346318,-0.593696117,0.0132417949
83661.415729,0.34426878,0.208657656,0.128238257,0.025811648,-0.607972741,0.0190392304
83661.425754,0.248532862,0.330654388,0.165459442,-0.0435743481,-0.626720071,0.0249093696
83661.435779,0.159567462,0.385065193,0.12309388,-0.0733452961,-0.61989069,0.0232891031
83661.445805,0.123974755,0.415318037,0.115811907,-0.0534741171,-0.604207575,0.00780122355
83661.455830,0.0981754198,0.425099536,0.151708565,-0.0193222743,-0.561893165,-0.00592870358
83661.465854,0.063046531,0.389694241,0.18633155,-0.000578680891,-0.51416558,-0.027251035
83661.475881,0.0334226694,0.30312823,0.234646376,-0.0259649977,-0.460632086,-0.0373252407
83661.485905,-0.0273433495,0.208097392,0.213335292,-0.0682844892,-0.421158433,-0.0438143015
83661.495931,-0.0196036951,0.121174055,0.103062315,-0.110938206,-0.404399425,-0.0508394539
83661.505957,0.0534071805,0.0780185478,-0.0635422056,-0.114936411,-0.406753123,-0.0505760647
83661.515982,0.14318419,0.0667228814,-0.330987858,-0.0816245303,-0.43780905,-0.0439687632
83661.526007,0.23522856,0.0996034799,-0.465322679,-0.029825516,-0.483701438,-0.0359534472
83661.536033,0.301565072,0.119205421,-0.359822907,0.00649547344,-0.519655406,-0.0326671079
83661.546058,0.242857447,0.120296066,-0.193408941,0.021092793,-0.543186069,-0.0362591781
83661.556082,0.0960489292,0.106440596,0.0224497322,-0.0197063033,-0.567772865,-0.0424369127
83661.566109,-0.0035755204,0.138742883,0.198089208,-0.0495938919,-0.578204215,-0.0437953919
83661.576133,-0.0618202041,0.152869243,0.192640295,-0.0266409088,-0.569618464,-0.0553093031
83661.586159,-0.117648474,0.0139177219,0.212802208,0.00345840515,-0.544018805,-0.057425186
83661.596184,-0.0907929083,-0.134983092,0.300953954,0.0275357775,-0.514155746,-0.0394440517
83661.606210,-0.0119078799,-0.144633768,0.373202614,0.030749416,-0.497612476,-0.0110363793
83661.616235,-0.0196659467,-0.117019821,0.429313792,0.0169465169,-0.481619924,0.00601583999
83661.626261,-0.0867199598,-0.0568876065,0.361717343,0.0115030156,-0.476614505,0.00994879659
83661.636286,-0.0879933408,0.0417020201,0.281065013,0.0356496312,-0.484134734,0.0105943466
83661.646311,-0.0970507997,0.0652302317,0.235055541,0.0961830169,-0.494527996,0.0175297521
83661.656337,-0.144523329,-0.000733867233,0.176188926,0.19758448,-0.508161187,0.0343353599
83661.666361,-0.136180156,-0.0921169966,0.227686474,0.273104787,-0.527321577,0.0609520599
83661.676388,-0.0789563401,-0.0687134707,0.419088166,0.327755779,-0.540666938,0.0797108337
83661.686412,-0.0161526779,-0.0227186854,0.459960275,0.373677999,-0.547665238,0.0947031006
83661.696438,0.0229845697,0.0146418349,0.487407085,0.407789648,-0.559488058,0.104309119
83661.706463,0.0668111443,0.00818096837,0.539729393,0.409546256,-0.572771609,0.113412075
83661.716489,0.163852592,-0.0330955563,0.80908234,0.330717772,-0.553514838,0.11878074
83661.726514,0.200581609,-0.011726532,1.165833,0.217102513,-0.483377874,0.104096867
83661.736540,0.207822374,0.0446442476,1.21197574,0.126097769,-0.387425512,0.0776058733
83661.746565,0.109869072,0.170003223,1.17296241,0.0494200401,-0.302499682,0.0469808504
83661.756590,-0.0106596334,0.219466854,1.00392219,0.0245024376,-0.226091191,0.0273522884
83661.766616,0.00502922634,0.230987853,0.601535568,0.0574646518,-0.175227478,0.019583581
83661.776641,0.100701431,0.252233032,0.32605917,0.108801343,-0.155467093,0.0225346293
83661.786666,0.0757990451,0.248941297,0.00486205308,0.173063412,-0.154749095,0.0276100822
83661.796691,0.0423135396,0.299778262,-0.213522339,0.19672294,-0.187152311,0.0292234253
83661.806717,0.00243687176,0.361061217,-0.224252992,0.155594409,-0.242741004,0.0269810427
83661.816742,0.0326239202,0.380271456,-0.29966976,0.132827312,-0.290315986,0.0090201525
83661.826768,0.100204588,0.393149058,-0.500963317,0.15793933,-0.32960695,-0.00828000903
83661.836793,0.129444711,0.391521018,-0.541381252,0.185500115,-0.373544842,-0.0223412327
83661.846819,0.152671272,0.335211102,-0.550444264,0.222889826,-0.41733253,-0.028018292
83661.856844,0.149362878,0.27351657,-0.537856585,0.24029173,-0.435483843,-0.00812714361
83661.866869,0.181723179,0.131571274,-0.353583721,0.197819635,-0.425475955,0.00629414059
83661.876895,0.177984577,0.0879524242,-0.226118201,-0.0051555899,-0.421873212,-0.00863367692
83661.886920,0.165465872,0.149261756,-0.265817175,-0.257053882,-0.414242744,-0.0388789289
83661.896946,0.106060328,0.182019678,-0.68519351,-0.360904098,-0.401930958,-0.0714632347
83661.906971,0.0142523972,0.204317508,-1.05684071,-0.281467855,-0.416738659,-0.0900803357
83661.916996,-0.0692746118,0.225330923,-1.04060854,-0.0746150911,-0.449635625,-0.0822908506
83661.927021,-0.022430443,0.179945137,-0.812989869,0.157120407,-0.464815378,-0.0476939939
83661.937047,0.0262327579,0.0566750963,-0.331006563,0.304723442,-0.447145283,-0.0187329147
83661.947072,0.0468996983,0.0500265251,0.263698283,0.325565875,-0.415848345,-0.00362879783
83661.957098,0.0363496628,0.12039032,0.773272776,0.282011747,-0.343299598,-0.0185544845
83661.967123,-0.0224520703,0.140115523,1.03559042,0.200622872,-0.245686203,-0.0439139009
83661.977149,-0.0589677373,0.104623646,1.11661509,0.093504943,-0.147676542,-0.0604233742
83661.987174,0.00476093079,-0.0138338796,1.01571609,-0.000611704076,-0.0752249882,-0.0615813136
83661.997199,0.0790700296,-0.0848315888,0.87167236,-0.0754119083,-0.0261658337,-0.0626130179
83662.007225,0.0841261439,-0.140070807,0.739361738,-0.116503417,-0.000614933204,-0.055715166
83662.017250,0.0614881957,-0.239130316,0.626937721,-0.115818985,0.0093769813,-0.0341755226
83662.027276,0.0182476044,-0.289594721,0.470955716,-0.0611331016,0.00639477279,-0.0059175184
83662.037301,-0.0097813893,-0.252653084,0.319977219,0.00732131954,-0.00338435429,0.0235437006
83662.047326,0.0130517893,-0.21214937,0.366183675,0.0447427295,-0.00397371221,0.0508909039
83662.057351,0.0459703085,-0.13882899,0.374824662,0.0522424579,0.00221547438,0.0662035495
83662.067377,0.0765191761,-0.00331314314,0.322590617,0.0394355804,0.0114694266,0.0649531931
83662.077402,0.0184235454,0.103848497,0.25749066,0.0147475442,0.0138399061,0.0533743016
83662.087428,-0.0223906955,0.199269796,0.280115164,-0.0165738929,0.0145861246,0.0358365849
83662.097453,-0.0605798486,0.236387666,0.184865569,-0.0204096437,0.0134145999,0.0178610478
83662.107479,-0.0530541293,0.238607534,0.156665895,-0.00797720905,0.0180229321,0.00612396467
83662.117504,-0.0374696067,0.221340685,0.171074944,0.0216547195,0.0348868668,0.00367492158
83662.127530,-0.0537666615,0.170567798,0.165991942,0.0522139631,0.0610162057,0.00533859851
83662.137555,-0.0663590166,0.0725528297,0.168456286,0.0403660908,0.0785989314,0.0134417992
83662.147580,-0.0582306552,0.0144382752,0.23158465,-0.00865525007,0.0854464471,0.0193665326
83662.157606,-0.0113134212,-0.0104981593,0.100619598,-0.0271291696,0.103419103,0.0323206931
83662.167631,0.0437596467,0.0131438515,-0.115821843,-0.0261161029,0.11118488,0.0369324908
83662.177657,0.0382364994,0.101518081,-0.259225521,-0.0243224632,0.0881456062,0.0342259221
83662.187681,0.0321831907,0.159296828,-0.377673037,-0.00597008737,0.0434969142,0.0271357857
83662.197708,0.0687888741,0.169229243,-0.389010424,0.0234253518,-0.00597929163,0.0250920765
83662.207732,0.0867675983,0.159611812,-0.230911865,0.0446478166,-0.0378570631,0.0266478956
83662.217758,0.0297393047,0.162663016,-0.0360801982,0.0341174118,-0.0491331555,0.0189734641
83662.227783,0.000603811112,0.109214627,0.284672097,-0.00102299929,-0.0257103853,0.0105421627
83662.237809,0.0220487502,-0.0160513364,0.384489147,-0.0345543288,0.0255876891,0.00468880078
83662.247834,0.0237175602,-0.119161875,0.324725291,-0.0532214902,0.0639888719,0.00821695663
83662.257860,0.0267623347,-0.161524879,0.0780178902,-0.0388167165,0.0764854923,0.0184837095
83662.267885,0.0211380651,-0.153252287,-0.189532392,-0.0043652663,0.0539538153,0.0288284905
83662.277911,0.0336667073,-0.0962406524,-0.30201077,0.0204751007,0.00513274781,0.0364177004
83662.287936,-0.00592120674,-0.0865650615,-0.274672097,0.0463138893,-0.0333326198,0.0466674119
83662.297962,-0.0503273347,-0.0980907372,-0.212440974,0.0781748816,-0.0484487228,0.0620777942
83662.307987,-0.049427171,-0.0996812213,-0.0769143129,0.0950028673,-0.0403540432,0.0723024607
83662.318013,-0.0408399599,-0.0437378733,0.0482335773,0.0949477404,-0.0155749274,0.0787289366
83662.328038,-0.0565098227,-0.0141221219,0.0527127685,0.0895330012,0.0158735439,0.0768956169
83662.338062,-0.0728337655,-0.0373068173,-0.130987848,0.0833179802,0.0268492289,0.0734651983
83662.348089,-0.0262660756,-0.0408710857,-0.139475106,0.0509917326,0.00429518381,0.0774170607
83662.358113,0.0276794496,-0.0862364871,-0.151162037,0.0437852181,-0.0164638888,0.0898476318
83662.368140,0.0518763177,-0.134751073,-0.145100545,0.0775602236,-0.0131013831,0.111203253
83662.378164,0.0611129326,-0.165887312,-0.0893944397,0.110146664,0.00543368515,0.123901211
83662.388191,0.0493014988,-0.106244087,0.131029349,0.0943258926,0.0230542254,0.136923805
83662.398216,0.0123164607,-0.0829653565,0.346411053,0.0755801648,0.061948359,0.145367622
83662.408241,-0.0306868147,-0.0812412361,0.354693143,0.0770337209,0.121565618,0.154660448
83662.418267,-0.053498366,0.0100689741,0.385198172,0.0720544085,0.162352189,0.153782412
83662.428292,-0.115896662,0.106541243,0.291843012,0.0804601386,0.181729615,0.140921742
83662.438318,-0.161789814,0.139943308,0.143467975,0.0829352811,0.17833516,0.114729814
83662.448343,-0.105094698,0.0254314514,0.261352596,0.0746294186,0.177208632,0.104623653
83662.458369,-0.0606312866,-0.16447445,0.364860902,0.101349175,0.205880761,0.115880303
83662.468394,-0.0509229625,-0.278316591,0.354683791,0.163726002,0.245922714,0.12975803
83662.478420,0.0378068758,-0.297618234,0.489740496,0.229307145,0.292053223,0.148494706
83662.488445,0.131556004,-0.282448064,0.653734542,0.309661925,0.35429129,0.165072873
83662.498470,0.128715812,-0.264433904,0.828204974,0.383296728,0.450254291,0.18483673
83662.508496,0.0925245544,-0.399225236,1.00076051,0.392976522,0.57967329,0.212485671
83662.518521,0.0155810155,-0.570886967,1.41036481,0.283791184,0.708495438,0.237088218
83662.528547,-0.169516609,-0.56242382,1.46581899,0.165927634,0.812934518,0.232576028
83662.538572,-0.385315661,-0.637459042,0.977293127,0.0751663074,0.851884305,0.206699684
83662.548598,-0.206352009,-0.929497795,0.902634484,-0.0160813108,0.846712172,0.229717925
83662.558623,0.172139943,-1.30197882,0.981864673,-0.0177844036,0.857344568,0.313936949
83662.568649,0.308359847,-1.5828543,0.804720638,0.123546362,0.908461571,0.409636825
83662.578674,0.242618962,-1.65585319,0.558369211,0.276708215,0.943375051,0.507675529
83662.588700,0.073305767,-1.55906163,0.606244477,0.324596912,0.947526395,0.593356848
83662.598724,-0.0615340806,-1.47109547,0.713791244,0.349912673,0.94236654,0.654474258
83662.608750,-0.0913534648,-1.33040339,0.779907684,0.3920151,0.973009109,0.70061779
83662.618775,-0.104981885,-1.23196376,1.0368676,0.426039398,1.06809318,0.731231093
83662.628801,-0.28516368,-1.35351947,1.16526368,0.375220954,1.16763556,0.745582342
83662.638826,-0.502620144,-1.57640351,1.02566874,0.197501004,1.1897049,0.745688319
83662.648852,-0.440957761,-1.73723734,0.851190713,0.00104388001,1.15057719,0.75298512
83662.658877,-0.286724354,-1.81333142,0.436318118,-0.130905896,1.08380008,0.772485852
83662.668903,-0.0823351689,-1.83441118,0.138573189,-0.139874086,1.01414394,0.806883216
83662.678929,0.0997977603,-1.89052499,-0.183465639,-0.000890373893,0.96585083,0.870075762
83662.688954,0.131776368,-1.94241329,-0.510381718,0.209822923,0.913929284,0.947279513
83662.698980,0.153611184,-1.92173612,-0.725765759,0.43802017,0.842321396,1.0275315
83662.709005,0.254201556,-1.94100913,-0.751820238,0.648922026,0.779173613,1.11371589
83662.719031,0.331569457,-2.11563606,-0.718507751,0.771291614,0.696754336,1.20536458
83662.729056,0.487755752,-2.40347393,-0.662318831,0.776826978,0.567358792,1.30733037
83662.739082,0.849197201,-2.63902632,-0.534975476,0.705363452,0.41623801,1.41641903
83662.749107,1.18687316,-2.80420577,-0.426876921,0.616091609,0.278672695,1.50315082
83662.759132,1.39503397,-2.75986482,-0.268162861,0.557326019,0.193124756,1.56977725
83662.769158,1.45226246,-2.43053203,0.069066522,0.521633029,0.14624539,1.61123729
83662.779183,1.44400463,-2.16097947,0.371776965,0.551995218,0.14851974,1.64703226
83662.789209,1.48972622,-2.02427909,0.506415152,0.646788836,0.185314775,1.695557
83662.799234,1.44965842,-1.84856714,0.604919366,0.739248693,0.236888483,1.74864709
83662.809260,1.3066262,-1.60138963,0.745726597,0.761720479,0.295826375,1.79525876
83662.819285,1.1853347,-1.37206051,1.00798871,0.689275563,0.350442231,1.82369339
83662.829311,1.21039695,-1.17061958,1.10714583,0.617705762,0.411589742,1.83643103
83662.839336,1.38779554,-0.928323856,0.904097542,0.608232617,0.485068202,1.82554102
83662.849362,1.45429075,-0.740802439,0.799927558,0.617312968,0.575959206,1.79994619
83662.859387,1.45673961,-0.721998004,0.768433519,0.593227029,0.64677161,1.78456807
83662.869413,1.43887428,-0.757981683,0.767365013,0.539767802,0.70155257,1.79202068
83662.879437,1.41598879,-0.779241402,0.688655049,0.47662428,0.747040451,1.80809629
83662.889464,1.42386434,-0.721429337,0.511348517,0.402823806,0.749596,1.82554531
83662.899488,1.50150843,-0.454332717,0.153411277,0.403135687,0.716602385,1.83762121
83662.909515,1.53557554,-0.0248315128,-0.165287593,0.467126906,0.671563506,1.8145473
83662.919539,1.47920015,0.350665203,-0.207088507,0.532694459,0.595151544,1.75153184
83662.929566,1.43416946,0.567496813,-0.114088151,0.575262427,0.521415293,1.66254437
83662.939590,1.42279905,0.533078045,0.119562199,0.582466006,0.484400541,1.57803881
83662.949617,1.47601159,0.224516538,0.349925198,0.551338971,0.501931071,1.52396369
83662.959641,1.55251352,0.000849456436,0.610011136,0.462981969,0.540087223,1.4931978
83662.969668,1.52460465,-0.0398108361,0.646914925,0.392070502,0.567774534,1.45972586
83662.979693,1.60179193,-0.0766592421,0.679336601,0.363096118,0.608423173,1.43352938
83662.989719,1.7928771,-0.163318266,0.651538493,0.393532306,0.674246371,1.41739118
83662.999744,1.84659876,-0.0886124956,0.489508441,0.410532862,0.740846455,1.38452184
83663.009770,1.78004656,0.0847301742,0.483366285,0.395520359,0.794825256,1.33860147
83663.019795,1.84233584,0.134203522,0.32151685,0.392117649,0.84487617,1.30769396
83663.029821,1.92043147,0.108936468,-0.0841623843,0.389967948,0.877314031,1.29128623
83663.039846,1.8516049,0.221493464,-0.298546309,0.355688006,0.865099967,1.26521838
83663.049872,1.93825968,0.255226442,-0.554010432,0.343150377,0.847067952,1.24698269
83663.059897,2.11797941,0.255573063,-0.764221454,0.327180177,0.819856822,1.22582996
83663.069923,2.15175352,0.392094507,-0.817943108,0.259348422,0.769338548,1.18372059
83663.079948,2.08921977,0.460117365,-0.763898798,0.171675265,0.711479247,1.13061452
83663.089974,2.1370132,0.519688621,-0.893827493,0.119249612,0.648430526,1.08270931
83663.099999,2.15060026,0.588358253,-0.991478304,0.101004295,0.57731694,1.03617823
83663.110025,2.01886905,0.701095063,-0.990071945,0.094861187,0.508067548,0.992354035
83663.120050,1.89326976,0.87589027,-1.05258715,0.153907463,0.450720608,0.959813952
83663.130076,1.81301388,0.975564111,-1.22349316,0.252459079,0.409155875,0.933206797
83663.140101,1.76506584,0.893129062,-1.0698247,0.263790041,0.380309045,0.916626751
83663.150127,1.76922866,0.873178015,-0.798753254,0.21356307,0.371831387,0.897226989
83663.160152,1.87366124,0.901736512,-0.811811473,0.160038382,0.394282073,0.873137414
83663.170178,1.93871166,0.95326314,-0.756115889,0.0741647482,0.421087056,0.834475219
83663.180204,1.89648098,1.11155379,-0.703053577,-0.023595104,0.448052377,0.774883509
83663.190229,1.73364911,1.27104811,-1.08404378,-0.0218517985,0.473553985,0.709357262
83663.200255,1.59428696,1.43289565,-1.4091946,0.0119080301,0.467516601,0.646673918
83663.210280,1.51416406,1.45678842,-1.53745039,0.0594654307,0.418730974,0.586730957
83663.220306,1.38935213,1.31436264,-1.61578509,0.124486774,0.360585362,0.551677346
83663.230331,1.31644223,1.01625874,-1.47672149,0.168670744,0.286487162,0.544557929
83663.240357,1.37378105,0.672574048,-1.29121119,0.202287033,0.229803935,0.571000457
83663.250382,1.42406396,0.28623825,-1.0222563,0.193488479,0.223775595,0.626831472
83663.260408,1.34198554,0.0729050041,-0.734195149,0.130651996,0.234168321,0.688740671
83663.270433,1.19485831,0.225337207,-0.771735483,0.0998328254,0.24912037,0.711401999
83663.280459,1.07972167,0.515345331,-0.784872613,0.103077091,0.24759917,0.696807623
83663.290484,1.00861356,0.702568716,-0.842501795,0.160621345,0.234113455,0.67296809
83663.300510,0.92277477,0.828131689,-0.851610984,0.210232839,0.209727421,0.651367962
83663.310535,0.726643419,0.930853447,-0.692731505,0.195321262,0.169440195,0.616323948
83663.320561,0.641560705,0.99214802,-0.540645923,0.148185447,0.135831892,0.582148135
83663.330587,0.518921875,1.07661056,-0.509282817,0.145015478,0.109729983,0.549594223
83663.340612,0.386892262,1.09746951,-0.536887447,0.159168318,0.0841793492,0.523029447
83663.350638,0.326979499,1.14619906,-0.388358097,0.156633526,0.0577615872,0.491106659
83663.360663,0.268388048,1.19165162,-0.218868961,0.164923146,0.0464966819,0.461146653
83663.370689,0.195517458,0.982538042,-0.0763859051,0.170847341,0.0619049333,0.450473219
83663.380714,0.164064773,0.703924733,0.114888946,0.119345278,0.08498469,0.471424043
83663.390740,0.107193716,0.628049774,0.102484807,0.0886648595,0.0799707547,0.502753198
83663.400765,0.0160050861,0.716446873,-0.101277185,0.125203431,0.0957212225,0.52971077
83663.410791,-0.00805441938,0.86670217,-0.0419008671,0.140551493,0.120928571,0.549683988
83663.420816,0.0214881937,1.06825167,0.0408732777,0.147414729,0.130143657,0.549589694
83663.430842,-0.0318128961,1.25741794,-0.0903057093,0.154036671,0.13907057,0.534175873
83663.440867,-0.121831167,1.40022131,-0.155264796,0.133034185,0.114227794,0.507362604
83663.450893,-0.0663107935,1.42559614,-0.266348505,0.160709232,0.0993716195,0.505448818
83663.460919,-0.0572740851,1.40653561,-0.471199462,0.247682214,0.101573251,0.499359548
83663.470944,-0.189473793,1.39743241,-0.53055123,0.326295525,0.120157056,0.486351073
83663.480970,-0.238991127,1.17668874,-0.458415384,0.343251884,0.140322521,0.491053402
83663.490995,-0.215441178,0.947652899,-0.421390014,0.303806186,0.155178159,0.507529855
83663.501021,-0.194670631,0.782486302,-0.263047125,0.204848185,0.192939922,0.511166155
83663.511046,-0.154974289,0.6683047,-0.129979548,0.086355634,0.253006428,0.498803735
83663.521072,-0.163571729,0.570054461,9.5277068e-05,-0.0183231104,0.32337755,0.475501865
83663.531098,-0.104028968,0.393936043,-0.0378700042,-0.0328133665,0.387780488,0.466255665
83663.541123,0.00310432269,0.19109818,-0.458282697,0.0405540578,0.41150102,0.484860241
83663.551149,-0.0513466678,0.109701972,-0.783563868,0.115964927,0.364362538,0.520632327
83663.561174,-0.144603263,0.0293736863,-0.897452698,0.167712808,0.268362224,0.551377475
83663.571200,-0.0874091842,-0.0699743575,-0.853430016,0.201004446,0.163066983,0.575888395
83663.581225,0.0334258112,-0.202427237,-0.633808191,0.226674393,0.0755762756,0.588430583
83663.591251,0.0510655128,-0.287236541,-0.378717578,0.262652099,0.0346485451,0.591148317
83663.601277,-0.0230869341,-0.298088482,-0.133945529,0.28416431,0.0201652125,0.588643372
83663.611302,-0.119459323,-0.393290001,0.0516226352,0.307531953,0.0127022369,0.583938897
83663.621328,-0.100092725,-0.501933477,0.11726912,0.33803606,0.0138314171,0.586886704
83663.631353,-0.164916129,-0.522629424,0.228479085,0.363983244,0.00784489699,0.582186759
83663.641379,-0.30282479,-0.543174565,0.306850027,0.393984824,0.0157464948,0.571758628
83663.651404,-0.374691025,-0.658242083,0.347646147,0.379542768,0.0231628679,0.570989251
83663.661430,-0.489725737,-0.668523896,0.552110151,0.279246539,0.0270124655,0.576654077
83663.671456,-0.56195781,-0.481061442,0.792241096,0.132656023,0.00696898298,0.574550986
83663.681481,-0.562460426,-0.130044722,0.635415042,0.103342608,-0.0138484146,0.557430327
83663.691507,-0.477835027,0.254862431,0.525192333,0.17606315,-0.0262896363,0.532424271
83663.701532,-0.423438397,0.530658344,0.642435149,0.267912388,-0.0306755956,0.500617862
83663.711558,-0.3839424,0.747296477,0.748230104,0.330775499,-0.0300292466,0.462526947
83663.721583,-0.39633251,0.92915395,0.887172711,0.35212633,-0.0176090635,0.408023775
83663.731609,-0.409919575,1.05117911,1.03477735,0.309610009,0.0304918867,0.336918175
83663.741635,-0.400886958,1.09007779,1.11918114,0.231713623,0.0886454657,0.253812075
83663.751660,-0.243568956,0.928243192,1.03442079,0.161017627,0.170641005,0.196355984
83663.761686,-0.102077469,0.706903384,0.810991973,0.0921179131,0.232489735,0.159115404
83663.771711,-0.0986244788,0.575747485,0.534302107,0.0140603967,0.256072015,0.134992748
83663.781737,-0.127789783,0.488006658,0.274368145,-0.0721043125,0.248143792,0.120409824
83663.791763,-0.0978022026,0.470539244,0.0815899035,-0.133491248,0.229499802,0.129274949
83663.801788,-0.0867455326,0.551027397,-0.129263509,-0.146902129,0.209061906,0.15811272
83663.811814,-0.145499189,0.750001571,-0.289799523,-0.152177319,0.176737249,0.178596959
83663.821839,-0.217005797,1.07737475,-0.337477805,-0.138859108,0.121460676,0.164485931
83663.831865,-0.244091811,1.31907389,-0.429505515,-0.124939032,0.0745307133,0.134307265
83663.841890,-0.232661851,1.48352971,-0.36449616,-0.164051548,0.0220864173,0.0879405662
83663.851916,-0.231140998,1.64638218,-0.344336585,-0.231744036,-0.0286100488,0.0187630896
83663.861942,-0.247980124,1.8056758,-0.289672682,-0.294482529,-0.0645494089,-0.0633160695
83663.871967,-0.255503943,1.83280141,-0.244058932,-0.34351477,-0.0865431279,-0.14144443
83663.881993,-0.256592688,1.71536263,-0.0987117186,-0.37052989,-0.103340216,-0.220514223
83663.892018,-0.181144503,1.49950323,0.00235270061,-0.385580748,-0.101052828,-0.292125016
83663.902044,-0.115874523,1.26386317,0.104689039,-0.396749765,-0.0865604356,-0.352801412
83663.912070,-0.166489881,1.11381048,0.268737446,-0.431476057,-0.0721077248,-0.400019526
83663.922095,-0.253588757,0.978887922,0.40696869,-0.500302255,-0.0540642776,-0.436773002
83663.932121,-0.293475874,0.786752946,0.393543391,-0.542749107,-0.0318939947,-0.456344038
83663.942147,-0.336402577,0.536485808,0.245737094,-0.542334676,-0.0128326844,-0.438088864
83663.952172,-0.350486997,0.459644414,0.14099311,-0.552332222,-0.0223313812,-0.412743837
83663.962198,-0.420827338,0.688510964,0.055208677,-0.551647782,-0.0631123707,-0.40791899
83663.972223,-0.43557994,0.887831029,-0.109929278,-0.49630034,-0.11274197,-0.409141898
83663.982249,-0.392275855,1.04802546,-0.14393267,-0.417716563,-0.171499819,-0.403367102
83663.992275,-0.329068873,1.2054082,0.0131312843,-0.338272363,-0.206711069,-0.393907279
83664.002300,-0.290964621,1.22503309,0.105771574,-0.244794592,-0.213594273,-0.387971908
83664.012326,-0.189544374,1.16421168,0.118576695,-0.145940185,-0.185274482,-0.379496932
83664.022351,0.0133226421,0.959764265,0.266874575,-0.0705162734,-0.110642873,-0.358738124
83664.032377,0.147725121,0.538234405,0.326630832,-0.0409123078,-0.00333265634,-0.318414658
83664.042403,0.27282077,0.197088287,0.414758028,-0.0843697712,0.0984797254,-0.256022394
83664.052428,0.271656402,0.10621961,0.336002471,-0.170511574,0.156149685,-0.190092921
83664.062454,0.083826065,0.406592477,0.17479601,-0.269073844,0.153520882,-0.162436262
83664.072480,-0.0124365069,0.850472043,0.0239157131,-0.276877701,0.152722999,-0.157778665
83664.082505,-0.0282941474,1.20679052,-0.115207511,-0.185381874,0.166236401,-0.167485893
83664.092531,-0.0912576032,1.440035,-0.128723995,-0.0462689884,0.19215402,-0.19535853
83664.102556,-0.174736462,1.50782682,-0.199891289,0.0998679772,0.230907276,-0.234794885
83664.112582,-0.164350312,1.36258891,-0.24744156,0.180907711,0.269311637,-0.267298222
83664.122608,-0.0512757945,1.0030438,-0.23654841,0.193992615,0.310946167,-0.26873073
83664.132633,0.0211391611,0.659459423,-0.278375043,0.115067177,0.339860648,-0.262802005
83664.142659,0.0737834675,0.475578663,-0.27389819,-0.0149685908,0.3603715,-0.260511428
83664.152684,0.0735854607,0.351918235,-0.437711618,-0.133231044,0.368689626,-0.258408308
83664.162710,0.025801673,0.398433647,-0.542601733,-0.192519218,0.379071414,-0.235684872
83664.172736,-0.0899292042,0.565348549,-0.645457128,-0.167891115,0.374266803,-0.227946252
83664.182761,-0.244141642,0.759493841,-0.864925808,-0.0905302763,0.321606517,-0.243337989
83664.192787,-0.278872398,0.852707035,-1.0224679,-0.00736028515,0.235917181,-0.241314799
83664.202813,-0.229661646,0.921703049,-1.01180271,0.0485961922,0.158529192,-0.238972276
83664.212838,-0.226942304,1.03120504,-0.911293007,0.069137685,0.110384293,-0.256566703
83664.222864,-0.223443795,1.13345166,-0.818296743,0.06468115,0.0831966177,-0.292141229
83664.232890,-0.186002245,1.17232733,-0.690335549,0.00752225798,0.057027325,-0.340252817
83664.242915,-0.182810098,1.15535208,-0.584127337,-0.0678611845,0.0124563966,-0.397438616
83664.252941,-0.187690125,0.989535353,-0.605603841,-0.101903841,-0.0279363003,-0.448508441
83664.262966,-0.110919093,0.675323127,-0.635214551,-0.1083114,-0.0722427741,-0.456293941
83664.272992,-0.036808074,0.396834651,-0.589915273,-0.12371406,-0.135086715,-0.419583857
83664.283018,-0.0383097108,0.302025054,-0.514432454,-0.108317792,-0.204642892,-0.36680162
83664.293043,-0.0656895198,0.212119121,-0.417770654,-0.0631836057,-0.261740535,-0.30866161
83664.303069,-0.0525984945,0.24164566,-0.174032625,-0.028837081,-0.304237127,-0.25193575
83664.313095,-0.0708637076,0.409750247,0.125868606,-0.00878560916,-0.344327837,-0.202302411
83664.323120,-0.159470942,0.629216041,0.42014089,-0.0068636057,-0.361393631,-0.178852737
83664.333146,-0.249774241,0.841007099,0.614842794,-0.0345181338,-0.380374759,-0.186759666
83664.343172,-0.334482568,1.06339393,0.874057209,-0.103276432,-0.410354525,-0.218489364
83664.353197,-0.405139063,1.25288453,1.01784784,-0.162121907,-0.451705933,-0.261797696
83664.363223,-0.555031007,1.45285546,1.13856213,-0.210068122,-0.511866748,-0.327029973
83664.373249,-0.719365317,1.73127522,1.50305888,-0.252331406,-0.57640183,-0.408974618
83664.383274,-0.910614377,1.92687144,1.83836694,-0.272766113,-0.637820184,-0.507847965
83664.393300,-1.22065611,2.16887198,2.10031048,-0.302736521,-0.709708989,-0.633037567
83664.403326,-1.37936162,2.29344441,2.48570973,-0.336306989,-0.788923919,-0.762723625
83664.413351,-1.29560797,2.09401372,2.87728621,-0.328306854,-0.84551847,-0.872851193
83664.423377,-1.11570616,1.83864488,3.06967983,-0.221723184,-0.881898046,-0.963129699
83664.433403,-0.921793358,1.55327471,2.97867854,-0.0154009014,-0.925939322,-1.02404451
83664.443428,-0.755607355,1.19095794,2.96920636,0.200887993,-0.987120092,-1.04803538
83664.453454,-0.681175799,0.963498191,2.92579918,0.395781606,-1.08901906,-1.05075765
83664.463480,-0.646739276,0.915461306,2.94189633,0.471716046,-1.23613429,-1.04488373
83664.473505,-0.591908493,0.831077022,3.23987156,0.403062671,-1.41382086,-1.0299089
83664.483531,-0.427207175,0.805471602,3.77990082,0.190911785,-1.57671583,-1.02075362
83664.493556,-0.0994474856,0.83017474,4.39758614,-0.0980699509,-1.66697037,-1.02143621
83664.503582,0.244610282,0.836128095,4.93209108,-0.451759309,-1.66394496,-1.04285145
83664.513608,0.705962742,0.775395759,6.0569713,-1.32821715,-1.81521678,-1.01067209
83664.523633,1.18444739,0.231397311,5.78425911,-1.87298059,-1.88561296,-1.02469945
83664.533659,1.15481827,-0.236666118,4.57157785,-2.07267618,-1.79754889,-1.00747705
83664.543685,0.916102161,-0.614584362,3.7403509,-1.79599786,-1.52107036,-0.908051014
83664.553710,0.653193567,-0.853681945,2.98965177,-1.1534189,-1.10058177,-0.719139397
83664.563736,0.132203654,-0.520383581,2.96020122,-0.501821935,-0.824486971,-0.575674117
83664.573762,-0.413123997,0.00925542007,3.31121304,-0.154155061,-0.72614336,-0.48868677
83664.583788,-0.172116562,0.11196862,3.91467403,-0.107408062,-0.654206336,-0.414787501
83664.593813,0.764636173,-0.267799763,4.68217933,-0.286531448,-0.393504947,-0.350402653
83664.603839,1.47940152,-0.601484861,5.43943912,-0.588363767,-0.0273967441,-0.320206404
83664.613865,1.37840023,-1.03108069,5.33156912,-0.91856724,0.378937989,-0.237473175
83664.623890,1.02987409,-1.65520349,4.88502654,-1.30188906,0.688881755,-0.0882607922
83664.633916,1.03455552,-1.91951582,3.84281875,-1.47757518,0.847471356,0.109837644
83664.643942,1.07814887,-1.50302439,2.03640529,-1.27382815,0.878820777,0.242126182
83664.653967,0.800342569,-0.777223632,0.614291005,-0.836929619,0.828903794,0.285428107
83664.663993,0.622618688,-0.116034902,-0.0502712206,-0.390841097,0.741573989,0.300122112
83664.674019,0.888991159,-0.130859692,-0.277990427,-0.0804350302,0.673641264,0.344610482
83664.684044,0.986351463,-0.757380721,0.0560474659,-0.0724918842,0.674526513,0.455653638
83664.694070,0.877003492,-1.24216747,0.370993705,-0.217356935,0.749659359,0.626051188
83664.704096,0.725672236,-1.34508307,-0.0585667553,-0.299827546,0.832750201,0.772009492
83664.714121,0.485204314,-0.974701795,-0.642014878,-0.190455005,0.891551197,0.84779799
83664.724147,0.451160882,-0.483384186,-1.71275552,0.161895841,0.886936247,0.86591655
83664.734173,0.483200573,-0.15361659,-2.62305133,0.655096531,0.765047073,0.823286533
83664.744198,0.340262759,-0.013844474,-3.12275559,1.11363876,0.544903278,0.783793688
83664.754224,0.304889102,-0.0697193598,-3.06982421,1.33163095,0.279171169,0.756578565
83664.764250,0.325806072,-0.301518529,-2.497807,1.21565855,0.0580260083,0.727844119
83664.774275,-0.0083494568,-0.232821937,-1.41449387,0.91427213,-0.0710598007,0.668109417
83664.784301,0.551715599,-0.194109052,-1.26500649,0.713314831,-0.0968458578,0.650379717
83664.794327,1.55734445,-0.0433413483,-1.33061498,0.611739159,-0.0402843133,0.679718435
83664.804353,1.43382957,0.510316251,-1.03390056,0.451169759,0.0256267935,0.597108245
83664.814378,0.69605495,1.07823538,-0.646619157,0.246715397,0.0450715944,0.372784585
83664.824404,0.532959606,1.07850229,-0.477813912,0.101082303,0.0667031258,0.152641296
83664.834430,1.00389019,0.731864368,-0.436762355,0.0209560432,0.111422658,-0.0161152259
83664.844455,1.22175158,0.329838067,-0.304366978,-0.00664602546,0.182016671,-0.157596186
83664.854481,0.95114644,0.0339371583,-0.22268472,0.00190245546,0.285159558,-0.260048538
83664.864507,0.732568133,-0.10598602,-0.305226225,0.0575049967,0.398232043,-0.327188432
83664.874532,0.961216729,-0.299627674,-0.548752073,0.186134607,0.494996935,-0.32288155
83664.884558,1.57862163,-0.702637689,-0.918714681,0.252887547,0.527002573,-0.293206751
83664.894584,1.23944696,-0.387691998,-0.971361983,0.222903013,0.478448063,-0.347291827
83664.904610,0.975508582,-0.0815699384,-0.951068552,0.149153948,0.433778852,-0.456528574
83664.914635,0.942783101,-0.0771104565,-0.805300484,0.0751359165,0.438132614,-0.536315024
83664.924661,1.03760205,-0.396385227,-0.669157152,-0.0220452212,0.47883743,-0.538003445
83664.934687,1.07307639,-0.842324392,-0.501779894,-0.169046924,0.559445977,-0.455822825
83664.944712,0.98172541,-1.05662568,-0.62590487,-0.269739687,0.674090028,-0.32864356
83664.954738,0.576866845,-0.975191917,-1.12754156,-0.290580809,0.778370619,-0.206662536
83664.964764,0.065595631,-0.784468123,-1.5908944,-0.306183189,0.81831485,-0.128446028
83664.974790,-0.177097419,-0.593220598,-1.97881878,-0.284322619,0.796818316,-0.0761620551
83664.984815,-0.165382285,-0.432630625,-2.45385446,-0.195097432,0.734008729,-0.0328289606
83664.994841,-0.0688178079,-0.344332676,-2.74478211,-0.0921164528,0.626491606,0.00227762898
83665.004867,0.0305570508,-0.256003162,-2.78498085,0.0233792532,0.499039888,0.0368217565
83665.014892,0.0653702978,-0.10172829,-2.7949107,0.181049034,0.385770053,0.0676142871
83665.024918,-0.0154475984,0.113187257,-2.65219442,0.362659603,0.304838985,0.0826371834
83665.034944,-0.252959008,0.383613825,-2.47760124,0.511108458,0.277331471,0.0585307814
83665.044970,-0.422507035,0.629425592,-2.21874572,0.558898866,0.268357426,-0.0248458683
83665.054995,-0.456015191,0.729827821,-2.16123754,0.575355053,0.262834013,-0.140616149
83665.065021,-0.300166019,0.652599547,-2.09784205,0.551913917,0.271440566,-0.24401924
83665.075047,-0.104881493,0.485545127,-2.08023099,0.506816745,0.279709935,-0.321600854
83665.085072,0.0750739457,0.293572776,-2.11980604,0.420917571,0.277031332,-0.374248862
83665.095098,0.331060704,0.0845200204,-2.09679049,0.309291452,0.257142574,-0.39680478
83665.105124,0.518188008,-0.0858108821,-2.09909292,0.159732834,0.248654023,-0.408448398
83665.115150,0.554868729,-0.186253041,-1.97838799,-0.0121640954,0.253117472,-0.402388901
83665.125175,0.511531984,-0.362164393,-1.91281047,-0.153295383,0.252906024,-0.379591435
83665.135201,0.356032868,-0.558256837,-1.95215289,-0.213040739,0.249575198,-0.353148639
83665.145227,0.239282073,-0.731205539,-1.98687583,-0.218057871,0.23576884,-0.321991533
83665.155253,0.187968503,-0.826135182,-2.03541862,-0.144229189,0.20279412,-0.278409958
83665.165278,0.11894319,-0.871055178,-2.13733936,-0.0187248942,0.149610341,-0.229497075
83665.175304,0.0542149898,-0.746881685,-2.12860719,0.158624858,0.0876292586,-0.186978906
83665.185330,0.070865315,-0.516794982,-2.05714296,0.339085966,0.0362046883,-0.165257901
83665.195355,0.0857750071,-0.329410928,-2.00092423,0.530337453,-0.00805625133,-0.15981707
83665.205381,0.0566345451,-0.340427887,-2.01505446,0.659057856,-0.0483679883,-0.137043312
83665.215407,0.106867626,-0.436595364,-1.76669578,0.656740904,-0.0753990784,-0.0885511339
83665.225433,0.22162732,-0.434612995,-1.40391578,0.537234247,-0.0670663118,-0.0229446962
83665.235458,0.192398303,-0.303602533,-1.19205115,0.363996923,-0.0370663293,0.03339554
83665.245484,0.0450234561,-0.112963093,-1.19882926,0.233926535,-0.00942405127,0.0655441582
83665.255510,-0.190619018,0.0568798616,-1.58671039,0.193671525,-0.0265266038,0.0775116012
83665.265536,-0.0983640742,0.191547531,-1.90157713,0.181028172,-0.0999946967,0.0846464783
83665.275561,-0.00086304657,0.298073431,-1.97516259,0.206076533,-0.194768071,0.0652195141
83665.285587,0.0445186484,0.367815916,-2.00921158,0.261277735,-0.289880216,0.0353436433
83665.295613,0.216368595,0.44149574,-1.73867264,0.298119903,-0.383702844,0.00137422606
83665.305639,0.293598185,0.458566811,-1.3118226,0.330128431,-0.438806057,-0.0348117389
83665.315664,0.264931185,0.422511784,-0.857403011,0.353000194,-0.457711041,-0.0808181167
83665.325690,0.267813317,0.412595443,-0.423316598,0.373096943,-0.438170344,-0.114073537
83665.335716,0.24888679,0.428938748,-0.115437813,0.3768107,-0.379737675,-0.128810421
83665.345742,0.27028073,0.370863795,0.115665192,0.348694921,-0.301878035,-0.14226523
83665.355767,0.211063256,0.290971197,0.207571322,0.297964901,-0.214441374,-0.140290231
83665.365793,0.248559896,0.162230689,0.286377732,0.222892269,-0.138989493,-0.127318248
83665.375819,0.285487651,0.118436629,0.250950445,0.166574657,-0.0675398186,-0.112848751
83665.385845,0.222939279,0.0836721166,0.113693015,0.111625656,-0.0062229312,-0.114067949
83665.395870,0.204166774,0.0746249598,0.0642407092,0.0414729342,0.0320512205,-0.111610651
83665.405896,0.211516991,0.0343514747,-0.111936526,0.0253797155,0.0564809293,-0.0968125239
83665.415922,0.139402333,-0.0113531687,-0.449908252,0.0562044755,0.0538979322,-0.0791483149
83665.425948,0.0840714911,-0.0442158661,-0.630865708,0.0965942368,0.0175156891,-0.0642180964
83665.435973,0.0783595432,-0.0680634093,-0.75870123,0.15494597,-0.0355605781,-0.0482423268
83665.445999,0.0311008023,-0.0901336407,-0.701078477,0.188740417,-0.0862914026,-0.0279564969
83665.456025,0.0177563137,-0.0828791395,-0.429584426,0.187778756,-0.11288067,-0.00402852893
83665.466051,-0.0375140304,0.0668544719,-0.131523855,0.166714475,-0.101457044,0.0110761216
83665.476077,0.201046158,0.144333944,0.221976279,0.115746364,-0.0536082909,0.0432513691
83665.486102,0.194253283,0.233079492,0.473248796,0.0220670104,0.0146906059,0.0624642111
83665.496128,0.0184592013,0.334539486,0.505851089,-0.0572837368,0.0840126872,0.0669958442
83665.506154,-0.0384483886,0.430882065,0.322286081,-0.113259926,0.134625539,0.0620287843
83665.516180,-0.0318355463,0.442583827,0.134932787,-0.179846138,0.156343088,0.0456657894
83665.526205,0.0161881876,0.383080741,-0.108319505,-0.220314205,0.147778884,0.0364504531
83665.536231,0.0192344234,0.28981757,-0.370355992,-0.21978955,0.112487204,0.0365481935
83665.546257,-0.0372330215,0.273796337,-0.431379493,-0.204306737,0.0675391704,0.0352112837
83665.556283,-0.0264351486,0.336845352,-0.331515681,-0.167574555,0.0474613383,0.0319236144
83665.566308,-0.0828537859,0.366895184,-0.169826405,-0.133136958,0.0467510708,0.0191263258
83665.576334,-0.129450556,0.426351655,-0.0748304923,-0.102698624,0.046780102,0.00395669322
83665.586360,-0.0931689898,0.413952119,-0.0617336949,-0.0831302479,0.0466432124,-0.00367752463
83665.596386,-0.0288170753,0.38411761,-0.0547457357,-0.0792191327,0.0410580337,-0.00558274984
83665.606412,-0.00406476522,0.372675375,-0.0913362214,-0.0978825688,0.0376246832,-0.00874099229
83665.616437,0.00486146856,0.413251569,0.00968318962,-0.153388962,0.0419406034,-0.0158950426
83665.626463,0.0212099613,0.414902113,0.0300204597,-0.176164582,0.0568452515,-0.0187022798
83665.636489,-0.00703179833,0.33807957,-0.108880061,-0.163212821,0.0603036322,-0.00883553457
83665.646515,0.0171292678,0.31549306,-0.128967156,-0.149481297,0.0540848859,0.000679407269
83665.656540,-0.0313834186,0.290408887,-0.143849083,-0.128167227,0.0561693422,0.00219128374
83665.666566,-0.106256289,0.285343859,-0.107502928,-0.112671368,0.0577565841,0.000763828866
83665.676592,-0.127930799,0.294964797,-0.0586374824,-0.0902851,0.0715160668,-0.00181251299
83665.686618,-0.119132722,0.269010856,-0.121864631,-0.0613503829,0.0779923424,-0.00255739875
83665.696644,-0.131483961,0.204529105,-0.196603938,-0.0639501661,0.0664589927,0.00382220326
83665.706669,-0.0829519856,0.161811185,-0.246305834,-0.0914022923,0.0706516057,0.0125222178
83665.716695,-0.0492525451,0.121360481,-0.261817291,-0.153600678,0.0648331344,0.0218033344
83665.726721,-0.109572866,0.123247683,-0.208192084,-0.231462449,0.0609888621,0.0286167674
83665.736747,-0.110602501,0.114759877,-0.225941676,-0.284883887,0.059570197,0.033871714
83665.746772,-0.101686643,0.127520574,-0.259051334,-0.314773351,0.048599571,0.0378291719
83665.756798,-0.115210141,0.149975604,-0.282370834,-0.307413161,0.0291078966,0.0312863179
83665.766824,-0.0733240333,0.144439999,-0.308712898,-0.258705795,0.00728621986,0.0234371834
83665.776850,-0.0432049355,0.153859094,-0.301703311,-0.202410296,-0.0257052854,0.0135254301
83665.786876,-0.0250195827,0.163409195,-0.263131881,-0.134122059,-0.0619173534,0.00366667472
83665.796901,-0.00800210467,0.187384895,-0.174468678,-0.0614851378,-0.0791256353,-0.00378032215
83665.806927,-0.00191767019,0.198078431,-0.00605330869,-0.0285130758,-0.0752259716,-0.0121471761
83665.816953,0.0367931687,0.177154556,0.187615744,-0.0423388742,-0.0563257784,-0.0176766962
83665.826979,0.0708113198,0.114651046,0.23572891,-0.0761562288,-0.0365225114,-0.0159967765
83665.837005,0.117208037,0.13691512,0.227802209,-0.126040697,-0.0209872294,-0.0235095508
83665.847030,0.14725933,0.12101912,0.109552846,-0.145979241,-0.0158795528,-0.0286395997
83665.857056,0.133614836,0.133507065,-0.0599719459,-0.145695627,-0.0367286429,-0.0414344892
83665.867082,0.137379887,0.181304114,-0.100680973,-0.120817974,-0.0583937243,-0.0594734102
83665.877108,0.133364807,0.195194582,-0.141367204,-0.0845515803,-0.0834908262,-0.0845116526
83665.887134,0.120288614,0.173804972,-0.0694949765,-0.0455407947,-0.0997113362,-0.102223009
83665.897159,0.119849345,0.116447318,0.0426654218,-0.0083332397,-0.103539102,-0.108188756
83665.907185,0.125214672,0.037211796,0.176445531,0.0118181007,-0.0984242335,-0.108023368
83665.917211,0.172586372,-0.0168788002,0.281401113,0.0216872431,-0.0866900831,-0.0997087136
83665.927237,0.207347158,-0.091260745,0.390282343,0.0271509849,-0.0667672381,-0.0834189579
83665.937263,0.1906839,-0.0917520357,0.441546082,0.0268455204,-0.0394173674,-0.0642450005
83665.947289,0.137498107,-0.0322015301,0.484497335,0.0215652715,-0.0140491612,-0.0544642732
83665.957314,0.120572399,-0.00633026247,0.438922163,0.0205503404,0.0101866685,-0.051855173
83665.967340,0.134197312,-0.0232513675,0.321769363,0.0318131149,0.0241474919,-0.04466011
83665.977366,0.112120943,-0.0613880598,0.183254627,0.0437491387,0.0223951321,-0.0362812728
83665.987392,0.139759768,-0.0796354814,0.094475104,0.0503210202,0.0146908723,-0.0262960158
83665.997418,0.147932115,-0.0688793288,0.0465472316,0.0478812978,0.00262116082,-0.0184000097
83666.007443,0.156884652,-0.042349853,0.0538642767,0.0356376804,-0.00701602036,-0.0115892431
83666.017469,0.135677321,0.0213091108,0.0907785876,0.0253472254,-0.00473209331,-0.00847441051
83666.027495,0.153766374,0.0617609847,0.152041158,0.0132455556,0.00319160987,-0.00331347063
83666.037521,0.108085842,0.0853659149,0.1971756,-0.00500135869,0.0132586248,-0.00147988368
83666.047547,0.102965431,0.0910179127,0.219295662,-0.00574544631,0.0238814428,-0.00740009081
83666.057572,0.0787555568,0.0926980478,0.144075878,0.0165785011,0.0290940478,-0.00988535304
83666.067598,0.0840519096,0.0756708887,0.062310618,0.0415491015,0.0199226532,-0.0117812576
83666.077624,0.0863721693,0.0777490466,0.0656418082,0.0655796006,0.0149372146,-0.0117373159
83666.087650,0.0931273426,0.0977183968,0.117830261,0.0708454698,0.0176794734,-0.0138832899
83666.097676,0.102897626,0.126675721,0.194027365,0.0701850057,0.0271856263,-0.0195933729
83666.107702,0.0770816322,0.121560679,0.196155025,0.0734066293,0.0394058079,-0.0188761838
83666.117727,0.0655981152,0.0660740987,0.146178988,0.0782527849,0.0503375493,-0.0111695295
83666.127753,0.0434663629,0.0222322901,0.135094115,0.0663402006,0.0583685786,-0.00181677379
83666.137779,0.0563577009,0.0220026826,0.124302087,0.0558105931,0.0677301213,0.00808485877
83666.147805,0.0492075369,0.0239965598,0.0847989286,0.0503101014,0.0772615746,0.0190458968
83666.157831,0.0522492427,0.0494660052,0.0237450327,0.0400428176,0.0871243253,0.0288423337
83666.167857,0.0717570762,0.0915070114,0.0179103352,0.0110038798,0.090967007,0.0321771279
83666.177882,0.101518447,0.147768595,-0.0234235457,-0.0116271302,0.0891307592,0.0264726356
83666.187908,0.0850153479,0.187579321,-0.0957645593,-0.0171593148,0.0763694271,0.0157190561
83666.197934,0.081134707,0.214898486,-0.17239421,-0.0121011725,0.0525035076,0.00658228388
83666.207960,0.0478879787,0.251918121,-0.196831901,-0.000163553341,0.0320160761,0.00676391134
83666.217986,0.0423702382,0.256069578,-0.107296592,-0.00583715178,0.0219578501,-0.00246314239
83666.228012,0.0468076361,0.2692679,0.0101923082,-0.0291997325,0.0181548558,-0.0103207994
83666.238037,0.0663096245,0.283845985,0.0246276608,-0.0358821377,0.0212108325,-0.0137237869
83666.248063,0.0240700269,0.292785919,0.00152384857,-0.0368768275,0.0182629805,-0.0217862409
83666.258089,0.00719166507,0.290704655,0.0178740949,-0.0340493508,0.0127829928,-0.0314125046
83666.268115,0.0364196593,0.294634688,-0.0134510177,-0.00581691135,0.0146954088,-0.0391521826
83666.278141,0.0235892576,0.261608617,-0.0682511139,0.0177073218,0.00661085034,-0.045063071
83666.288167,0.0414249202,0.256495914,-0.0268371535,0.0236182082,0.000482384115,-0.051848799
83666.298192,0.11405235,0.232318846,0.0190396315,0.018090019,0.0055269436,-0.0524882302
83666.308218,0.129224054,0.185100291,0.0426449635,-0.00537376152,0.0167135522,-0.0504831299
83666.318244,0.116829705,0.121720583,0.0340063145,-0.035813693,0.0225850232,-0.0467413887
83666.328270,0.0957357716,0.0988242026,0.00394084658,-0.0525202341,0.0220214985,-0.0378983617
83666.338296,0.0729030314,0.0459963928,0.0220972655,-0.0604732335,0.0233722534,-0.0287432168
83666.348322,0.0682537443,0.0307901289,0.0615361265,-0.0518824086,0.0269566029,-0.0156087726
83666.358348,0.0647951283,0.0183521242,0.0554576833,-0.0356887914,0.0279749949,-0.00615534931
83666.368373,0.0695034521,0.0368947659,0.113345224,-0.0242001805,0.0214933939,-0.000834353268
83666.378399,0.0863045109,0.04364066,0.145075995,-0.00653676409,0.0175492521,0.00560889859
83666.388425,0.0656167468,0.0303497648,0.181073776,0.00576917082,0.0207357258,0.0151145197
83666.398451,0.0641800651,0.0205608497,0.268033097,0.00363091845,0.035463538,0.0238491558
83666.408477,0.064179919,-0.0437316993,0.316659473,-0.00541291013,0.062590763,0.03220056
83666.418503,0.0867242707,-0.0710495855,0.256114696,-0.0161883272,0.0876609609,0.0426593274
83666.428529,0.0928635771,-0.0791728324,0.116477092,-0.0267594792,0.0912250727,0.0562611595
83666.438554,0.0965927537,-0.0585450914,-0.0413069929,-0.0227940325,0.077710323,0.0589576066
83666.448580,0.123770537,-0.029288273,-0.184407888,-0.00386135234,0.0551285855,0.0662663877
83666.458606,0.120680024,0.0420587246,-0.243056477,0.0120744705,0.0259501934,0.0695993304
83666.468632,0.13632351,0.123021948,-0.153408354,0.00589433918,0.0082798535,0.0607397929
83666.478658,0.161403006,0.14922179,-0.06523615,0.00212756405,0.00101581519,0.0482176095
83666.488684,0.156699432,0.186221696,-0.00388765509,-0.0132125095,-0.00666340999,0.0330692828
83666.498710,0.139931691,0.220646711,0.0635813686,-0.017122563,-0.00412861304,0.0254856665
83666.508735,0.101600645,0.236081377,0.100137952,-0.011713949,0.00221423781,0.017270349
83666.518761,0.095601843,0.232357973,0.162077399,-0.0216573942,0.0118689956,0.0102601089
83666.528787,0.110810591,0.244567648,0.172236974,-0.0199780054,0.0245094243,0.00364907831
83666.538813,0.0916398075,0.213855224,0.136429163,-0.0119653512,0.0338925384,-0.000501458533
83666.548839,0.102298126,0.202584218,0.0850865134,-0.00253882678,0.0350499488,-0.00849653408
83666.558865,0.106161304,0.186324024,0.0223112005,0.0037765936,0.0285784677,-0.0114611648
83666.568891,0.0725230191,0.143211114,-0.0175292269,0.0154359126,0.0206877887,-0.0114238802
83666.578916,0.0973702409,0.0909289923,-0.0134890116,0.019213073,0.0135350693,-0.00924328528
83666.588942,0.107179906,0.0665922043,0.00242108967,0.0303474832,0.00984925404,0.000932654366
83666.598968,0.0696140728,0.0697413525,-0.00310673384,0.0379124582,0.0114093339,0.00942227896
83666.608994,0.0449446918,0.0690074487,0.00450023403,0.0388887748,0.00778184226,0.012608218
83666.619020,0.0690357615,0.0641382718,0.00578618219,0.0385356396,0.00595624512,0.0227500685
83666.629046,0.0768736886,0.0773129933,0.0118541039,0.0280851275,0.00402279058,0.0301890764
83666.639072,0.111297644,0.147308321,0.0834124427,0.00247031311,0.0105283605,0.0301264916
83666.649098,0.0890760945,0.234548213,0.110543611,-0.00813652482,0.0190986805,0.0240310486
83666.659123,0.0685164138,0.282257035,0.0477899252,0.00340348482,0.0174296759,0.0127605516
83666.669149,0.0357315309,0.357547985,0.0242968214,0.0347518176,0.0208212119,-0.000379219651
83666.679175,-0.00886785465,0.400669261,0.0424655153,0.0710810646,0.0245943796,-0.00911305659
83666.689201,-0.0224678524,0.401631603,0.0969885481,0.0882102549,0.0388537422,-0.013984777
83666.699227,0.0290936272,0.384434603,0.106283615,0.094622612,0.0519852564,-0.0175387654
83666.709253,0.0154746325,0.36590157,0.0228998141,0.102957509,0.0605814047,-0.0149099585
83666.719279,0.0414714627,0.358052135,-0.0977501801,0.100413121,0.0585664585,-0.011636667
83666.729305,0.094551311,0.335633967,-0.162021869,0.0812602043,0.0482336618,-0.00145993009
83666.739330,0.113505091,0.379709109,-0.22336861,0.0587772615,0.0316624083,0.00258514518
83666.749356,0.0892246361,0.494229807,-0.246447288,0.0263482146,0.0207101591,0.000935849734
83666.759382,0.0362672452,0.589988777,-0.22832711,-0.0084433211,0.013870894,-0.0138870385
83666.769408,0.0163727504,0.651232204,-0.305823022,-0.0420369692,-0.00694064517,-0.0382528305
83666.779434,0.0466174473,0.679950495,-0.379147201,-0.0628048256,-0.0372660607,-0.0685018152
83666.789460,0.0656343556,0.690104225,-0.395004695,-0.0767075941,-0.0695829913,-0.108946443
83666.799486,0.0930117534,0.680965225,-0.371273691,-0.0759504586,-0.104409412,-0.142905742
83666.809512,0.119505427,0.650730027,-0.310680983,-0.0428100824,-0.124902435,-0.166197747
83666.819538,0.0804272894,0.559336485,-0.178589557,-0.0190528221,-0.136255756,-0.182345301
83666.829564,0.071119509,0.507072484,0.00456219335,-0.0106827728,-0.129476145,-0.183813497
83666.839589,0.079349431,0.498867148,0.163073424,-0.0140013378,-0.0988529921,-0.184544533
83666.849615,0.0412082087,0.538554065,0.285827112,-0.0355758741,-0.0618566275,-0.189245015
83666.859641,-0.0165408004,0.598486739,0.288061155,-0.0555200204,-0.024888752,-0.195040047
83666.869667,-0.00245879133,0.6323105,0.191250886,-0.0687697753,0.00688941684,-0.193281829
83666.879693,0.0234338479,0.690641181,0.089095749,-0.0778128058,0.0259424709,-0.192079425
83666.889719,0.0178941878,0.782324536,-0.108952542,-0.0777142718,0.033017423,-0.191442654
83666.899745,0.031213542,0.883500891,-0.270347804,-0.0844808295,0.0231613312,-0.193611532
83666.909771,0.0123570119,1.01114381,-0.441138086,-0.0976352468,0.0112005416,-0.197753012
83666.919797,-0.0372258611,1.10869949,-0.565183567,-0.133774877,-0.00758353155,-0.207166225
83666.929822,-0.0011645868,1.22191546,-0.622367344,-0.21110642,-0.0271910541,-0.220089749
83666.939848,0.0739206109,1.32516738,-0.653943801,-0.299365163,-0.0531022809,-0.238065287
83666.949874,0.119201257,1.48431779,-0.731573569,-0.369581789,-0.0777594224,-0.260638744
83666.959900,0.0831681856,1.68094277,-0.788488465,-0.393237323,-0.0963200629,-0.293457419
83666.969926,-0.0416936541,1.85168176,-0.867892841,-0.395171583,-0.115347013,-0.330863655
83666.979952,-0.046674219,1.92214368,-0.814624192,-0.409076482,-0.132227451,-0.366133749
83666.989978,0.00713766986,1.98411732,-0.749108641,-0.424992323,-0.14603515,-0.406264395
83667.000004,0.0100789109,2.02539494,-0.782610513,-0.439470083,-0.151126847,-0.458424538
83667.010030,0.0446370141,2.03350752,-0.780932935,-0.469202399,-0.169311166,-0.522293508
83667.020056,0.0964753379,2.00720842,-0.846775819,-0.488442153,-0.197317779,-0.586594462
83667.030082,0.149775989,1.84392866,-0.929445919,-0.489855736,-0.238266811,-0.647532701
83667.040107,0.214949011,1.64773082,-0.949637058,-0.473439217,-0.286242068,-0.692713499
83667.050133,0.273953427,1.48505458,-0.93492172,-0.445175081,-0.327987105,-0.720551491
83667.060159,0.276018397,1.36940049,-0.79926588,-0.421847939,-0.355533779,-0.740765929
83667.070185,0.282904795,1.25356564,-0.6406734,-0.419719815,-0.37318176,-0.764487803
83667.080211,0.315905878,1.13406285,-0.449092259,-0.437397599,-0.371507972,-0.789091945
83667.090237,0.378412019,0.946000675,-0.274663329,-0.475756705,-0.362481177,-0.805607796
83667.100263,0.480133148,0.765686558,-0.156489369,-0.511851609,-0.343944252,-0.813887835
83667.110289,0.500048101,0.606615137,-0.132585347,-0.530487359,-0.331121922,-0.822869062
83667.120315,0.502097727,0.475622685,-0.136246207,-0.532452762,-0.325966567,-0.837022424
83667.130341,0.623646132,0.297442841,-0.151485277,-0.531700432,-0.334797353,-0.840853691
83667.140367,0.713090402,0.135393938,-0.109292734,-0.515544891,-0.346421242,-0.837311149
83667.150393,0.69669807,-0.0920453196,-0.0522463201,-0.500895083,-0.35536468,-0.824910104
83667.160419,0.803288267,-0.327119602,0.0748912826,-0.494490176,-0.36082682,-0.80193156
83667.170444,0.866281753,-0.492353528,0.210078921,-0.474940658,-0.361977279,-0.779349744
83667.180470,0.805151723,-0.611261136,0.315598566,-0.440859646,-0.349209815,-0.756586373
83667.190496,0.786267574,-0.719762719,0.507504701,-0.411464214,-0.3254821,-0.738029957
83667.200522,0.745255472,-0.836532073,0.697887572,-0.38566643,-0.28142944,-0.720359087
83667.210548,0.750129508,-1.02027083,0.878210237,-0.371368736,-0.228404015,-0.70388639
83667.220574,0.807179868,-1.22656643,0.908088658,-0.348365396,-0.176868647,-0.674445689
83667.230600,0.832549433,-1.46010792,0.812466722,-0.334788352,-0.152770236,-0.63771534
83667.240626,0.848732214,-1.6633133,0.749620682,-0.309584975,-0.142441958,-0.600405276
83667.250652,0.764184191,-1.79651429,0.70361764,-0.262799114,-0.130451873,-0.561735928
83667.260678,0.651255439,-1.90220023,0.772467889,-0.230017185,-0.121762522,-0.516596138
83667.270704,0.643000236,-1.9307588,0.914568083,-0.206041813,-0.105555855,-0.471245974
83667.280730,0.620202421,-1.91317785,0.966504607,-0.170564517,-0.0769031644,-0.432762504
83667.290756,0.566542873,-1.92620114,1.0061083,-0.130354509,-0.0450483039,-0.397667915
83667.300782,0.564492663,-1.94514155,1.02187812,-0.0932010114,-0.0192723665,-0.36083585
83667.310808,0.52162485,-1.95296435,1.01488841,-0.0693681166,0.00529156672,-0.327647001
83667.320833,0.470589513,-1.94610338,1.02723468,-0.0599645004,0.0313482024,-0.295543134
83667.330859,0.398494583,-1.90417109,1.0161048,-0.0475014411,0.0567638129,-0.256382674
83667.340885,0.313137436,-1.88458567,0.982405355,-0.0380184539,0.0856463313,-0.229724184
83667.350911,0.289332929,-1.87084736,0.910734788,-0.0116955033,0.10463547,-0.207721412
83667.360937,0.243780699,-1.91336694,0.763030783,0.0299158562,0.106443219,-0.1851165
83667.370963,0.201269884,-1.96086285,0.648159372,0.0830179602,0.0960544944,-0.164240777
83667.380989,0.133665982,-2.07284614,0.588743307,0.137970954,0.0815959275,-0.137617946
83667.391015,0.0294729089,-2.19038618,0.645181233,0.179369524,0.0701299533,-0.0999422148
83667.401041,-0.0317817703,-2.27794522,0.700138566,0.217310771,0.0745947435,-0.0546674058
83667.411067,-0.121263304,-2.31315785,0.751682291,0.241918385,0.0895531848,-0.00599680655
83667.421093,-0.188994486,-2.34113847,0.814123257,0.250495642,0.113303259,0.0444610417
83667.431119,-0.226391319,-2.32147793,0.801186034,0.264962703,0.139241114,0.0997493267
83667.441145,-0.298394918,-2.32514917,0.731446143,0.27978614,0.162279859,0.164801836
83667.451171,-0.288511091,-2.34345639,0.699932814,0.288119435,0.182261288,0.237601206
83667.461197,-0.292970262,-2.31552794,0.642389557,0.299343318,0.197897509,0.311970502
83667.471223,-0.319550518,-2.24858191,0.595669307,0.293554425,0.212815464,0.389255434
83667.481249,-0.32865357,-2.17656473,0.568002132,0.293276906,0.235360995,0.466082573
83667.491275,-0.316482509,-2.06916307,0.490174796,0.291422546,0.265405953,0.533280015
83667.501301,-0.3133144,-1.96972318,0.34242286,0.28742221,0.276982188,0.596568704
83667.511326,-0.183083508,-1.88015251,0.203118434,0.279188246,0.273998111,0.66507268
83667.521352,-0.0882705503,-1.75164566,0.11385785,0.282549173,0.267586827,0.729998946
83667.531378,-0.053518532,-1.46957249,0.0532487751,0.3007873,0.257217526,0.782951355
83667.541404,-0.0447001425,-1.16012324,0.0379559289,0.322104841,0.253117323,0.809919596
83667.551430,-0.0546875757,-0.807487326,0.0496118799,0.354774356,0.267464846,0.822364271
83667.561456,-0.154280607,-0.563155642,-0.0578501314,0.386035621,0.286039859,0.820917666
83667.571482,-0.155425101,-0.425123136,-0.194818808,0.393887401,0.278545737,0.831133008
83667.581508,-0.101759124,-0.348859359,-0.334210327,0.394926041,0.264327914,0.840688944
83667.591534,-0.13543796,-0.285169507,-0.492283166,0.380173981,0.233010486,0.850144804
83667.601560,-0.033433483,-0.232613975,-0.477192565,0.336878717,0.201139897,0.854102254
83667.611586,0.00876154473,-0.151817469,-0.471282464,0.304003865,0.171328738,0.852632701
83667.621612,-0.0117833768,0.00712570543,-0.509847465,0.298350781,0.134960085,0.843185425
83667.631638,0.0316448461,0.0784499067,-0.508369209,0.307897389,0.093447797,0.83999306
83667.641664,0.064946081,0.14530816,-0.467955365,0.338353038,0.0671858266,0.835200191
83667.651690,0.0490242893,0.197644277,-0.414093427,0.375638366,0.0508673079,0.83249253
83667.661716,0.0615706133,0.150793642,-0.312909181,0.390394688,0.0395017341,0.836667359
83667.671742,0.0927206615,0.110629243,-0.21050796,0.418147475,0.0429625139,0.845920503
83667.681768,0.0699377518,0.143777845,-0.241290052,0.464921892,0.052228447,0.851336539
83667.691794,0.0179876382,0.170932595,-0.279479789,0.513311267,0.0531986393,0.857346773
83667.701820,0.0814506411,0.117288683,-0.33188393,0.536682904,0.0564397052,0.883964002
83667.711846,0.276220203,0.0926593233,-0.204087571,0.48777315,0.0668345615,0.924339652
83667.721872,0.366194781,0.109461944,-0.0684983667,0.411878914,0.097492069,0.974046767
83667.731898,0.372980495,0.0819271726,-0.120555302,0.330127329,0.127410561,1.02103865
83667.741924,0.375752736,0.134095359,-0.196786308,0.251649857,0.145440161,1.05895758
83667.751950,0.321740576,0.271287642,-0.392280239,0.222821921,0.144073427,1.06711221
83667.761976,0.275344005,0.364588953,-0.619097529,0.22592397,0.120165691,1.0602684
83667.772002,0.375669734,0.427663103,-0.739507284,0.244659305,0.0682902411,1.05383611
83667.782028,0.48972413,0.489383061,-0.77261285,0.27104032,0.0114940684,1.05215001
83667.792054,0.574631195,0.61506725,-0.654036155,0.282502294,-0.0390870832,1.0472014
83667.802080,0.625749241,0.783848384,-0.459388028,0.28236568,-0.0574487783,1.03237844
83667.812106,0.551122163,0.889747092,-0.269305017,0.269824862,-0.0470041297,1.00553727
83667.822132,0.468969072,0.921919176,-0.0846656576,0.239736721,-0.0255041625,0.972729802
83667.832158,0.45663493,0.909764774,-0.0286772284,0.211085364,-0.00664924923,0.93675822
83667.842184,0.443923625,0.864404122,-0.110577513,0.203654349,0.000819053792,0.906779051
83667.852210,0.452941336,0.820800762,-0.108055301,0.189388603,-0.00223559188,0.877921283
83667.862236,0.483495026,0.803184368,-0.0620364772,0.180223599,-0.00662101898,0.854258597
83667.872262,0.498907845,0.829127496,-0.0317874694,0.177260295,-0.0124679897,0.834927738
83667.882287,0.469350911,0.849787568,-0.0216664729,0.192038447,-0.0143146254,0.803997815
83667.892314,0.406204719,0.812640544,-0.0176133981,0.212885395,-0.015358584,0.776150703
83667.902340,0.435280007,0.717321171,-0.0117214175,0.217735812,-0.0211104807,0.755237162
83667.912365,0.447594276,0.65053655,0.018598902,0.202154189,-0.0306888036,0.736314118
83667.922391,0.410548009,0.640723231,0.022337504,0.181463033,-0.0378417894,0.713835657
83667.932417,0.383275533,0.608112061,0.0413438178,0.150328279,-0.0394338258,0.700108707
83667.942443,0.41759822,0.620818142,0.144825235,0.116666734,-0.0365139358,0.68794018
83667.952469,0.447243125,0.638522725,0.205614927,0.0973420367,-0.016090421,0.662335992
83667.962495,0.444439758,0.650965808,0.248839736,0.0824469775,0.0100991046,0.636201084
83667.972521,0.466214075,0.602869228,0.229631762,0.0817082152,0.0342768803,0.610496521
83667.982547,0.488545587,0.527963077,0.0983797102,0.10467159,0.0406671353,0.598713338
83667.992573,0.452418043,0.407410296,-0.0073860186,0.139638349,0.0332481004,0.59074676
83668.002599,0.44204351,0.317272344,-0.0258709388,0.164663538,0.0210510883,0.598643839
83668.012625,0.446367949,0.347882075,0.0281698634,0.176068798,0.0166041423,0.604638875
83668.022651,0.416899863,0.38965442,0.100081838,0.158112168,0.0311796218,0.610550582
83668.032677,0.485656588,0.4658855,0.22893735,0.105455093,0.0532542989,0.616208732
83668.042703,0.524267912,0.639438013,0.243110253,0.0598074384,0.0806241408,0.611480534
83668.052729,0.502197827,0.805603631,0.182992176,0.0411903448,0.11324653,0.594628572
83668.062755,0.455143084,0.952531611,0.0988993502,0.033545211,0.131508887,0.572230637
83668.072781,0.412675231,1.11466271,0.00212532159,0.0322269462,0.140490934,0.539466262
83668.082807,0.406728597,1.24462027,-0.112860071,0.0410721004,0.140209436,0.513613105
83668.092834,0.419546139,1.36606185,-0.205960379,0.0482005849,0.133571774,0.488533825
83668.102860,0.385344741,1.50968253,-0.274533565,0.0472405143,0.12058381,0.454566807
83668.112886,0.414209454,1.66690387,-0.284122062,0.031417612,0.115215138,0.407636315
83668.122912,0.449642733,1.7791651,-0.318562092,0.0070347744,0.107002221,0.354584813
83668.132938,0.479934849,1.89801462,-0.403364528,-0.0249947961,0.0906384289,0.28750512
83668.142964,0.487477812,2.03277892,-0.526138674,-0.0201009717,0.0638052151,0.206637695
83668.152990,0.434787109,2.08199844,-0.721864075,0.0289131757,0.0233813543,0.121421069
83668.163016,0.36613779,2.06932162,-0.78386139,0.068143934,-0.0323567428,0.0382175259
83668.173042,0.404452761,1.92107766,-0.733676678,0.0905165598,-0.0764427483,-0.0261046924
83668.183068,0.448857282,1.70014504,-0.55558981,0.0697521642,-0.103201658,-0.0669442639
83668.193094,0.493458055,1.51803842,-0.347739086,0.0143616088,-0.11429958,-0.0928616151
83668.203120,0.487678011,1.43692987,-0.222802793,-0.0433898382,-0.11109367,-0.120907374
83668.213146,0.412707525,1.40380501,-0.16692893,-0.0797664896,-0.104825385,-0.157367378
83668.223172,0.374438439,1.39876366,-0.169301505,-0.0841865391,-0.103299931,-0.209183156
83668.233198,0.332814635,1.36148504,-0.186444363,-0.0607025176,-0.112716869,-0.269248903
83668.243224,0.335669586,1.27404788,-0.184310273,-0.0107179116,-0.132748365,-0.322848231
83668.253250,0.305397198,1.08515904,-0.124878426,0.0465981066,-0.151377723,-0.360899985
83668.263276,0.319848771,0.899063494,0.041163785,0.0784047693,-0.163027719,-0.385626912
83668.273302,0.327101518,0.798110937,0.244139596,0.0865015835,-0.159933656,-0.399941146
83668.283328,0.323324776,0.790410081,0.406972781,0.0892473012,-0.138833433,-0.412888885
83668.293354,0.246056828,0.870233997,0.482965888,0.105598576,-0.0987371355,-0.44229579
83668.303380,0.129246704,0.936696767,0.432741429,0.133027017,-0.0589260757,-0.493269742
83668.313406,0.11768866,0.914738544,0.267837867,0.171239913,-0.0466225371,-0.549035013
83668.323432,0.149285868,0.846533827,0.0114624743,0.232408464,-0.0528633893,-0.599621236
83668.333458,0.150421448,0.78613138,-0.278960734,0.291703194,-0.0880908817,-0.642880023
83668.343484,0.16508301,0.716050859,-0.419196303,0.321164161,-0.133190721,-0.679248929
83668.353510,0.143687025,0.518692523,-0.462234065,0.317948908,-0.166940168,-0.689717591
83668.363536,0.120985071,0.327624775,-0.374614818,0.274923146,-0.184607312,-0.685761154
83668.373562,0.105318131,0.226761687,-0.31582536,0.214511216,-0.186590031,-0.667421341
83668.383588,0.0846538211,0.13617906,-0.363376801,0.136309355,-0.18601878,-0.652945161
83668.393614,0.0666407561,0.0237720669,-0.359307944,0.0502210706,-0.193193868,-0.630526423
83668.403640,0.0989534184,-0.0644326516,-0.375870956,-0.0145422108,-0.206831381,-0.599866509
83668.413666,0.0905332345,-0.0960452759,-0.403304322,-0.0561469123,-0.225555003,-0.567750633
83668.423692,0.0581030833,-0.0826337134,-0.322941914,-0.0852435455,-0.241901219,-0.53298974
83668.433718,0.0585189706,-0.0281827229,-0.199829914,-0.0947789922,-0.242209092,-0.507938981
83668.443744,0.0328154973,0.0607590046,-0.0876607478,-0.105531238,-0.228627756,-0.485933542
83668.453770,-0.000848287392,0.159204327,0.0309796602,-0.119096048,-0.207913429,-0.472649157
83668.463796,-0.0348297597,0.270170767,0.050643561,-0.119474754,-0.183248565,-0.464725196
83668.473823,-0.0444607808,0.351101037,0.0644067135,-0.122854039,-0.158987164,-0.460714489
83668.483849,-0.0712286684,0.498631074,0.0481920762,-0.109087624,-0.133384869,-0.472256869
83668.493875,-0.160946787,0.665893109,-0.0936316389,-0.0761094391,-0.111583427,-0.496801913
83668.503901,-0.223982651,0.792246722,-0.21293431,-0.0459233038,-0.0966494828,-0.540707588
83668.513927,-0.292594268,0.891075856,-0.376689287,-0.0235711262,-0.0926267803,-0.59812665
83668.523953,-0.358758493,0.914430282,-0.532056374,-0.0103583848,-0.0984465852,-0.651930749
83668.533979,-0.435390336,0.967463588,-0.770351335,0.00283358293,-0.118690334,-0.700731337
83668.544005,-0.557583906,1.03730694,-0.8532418,-0.0246515721,-0.144169867,-0.757258534
83668.554031,-0.936568026,1.18265627,-0.482563736,-0.124521174,-0.133204564,-0.844286084
83668.564057,-0.879208893,1.23981769,-0.49087856,-0.105139226,-0.070364885,-0.868667364
83668.574083,-0.835957342,1.17550172,-0.482131775,-0.120314717,-0.0138715142,-0.853275359
83668.584109,-1.24001029,1.35054864,-0.530640077,-0.13687478,0.0430389047,-0.837376535
83668.594135,-1.40821552,1.63984284,-0.543458058,-0.238498867,0.120841295,-0.840263426
83668.604161,-1.43847491,1.91640368,-0.19086744,-0.431739718,0.232573405,-0.87495482
83668.614187,-1.51760821,1.98186501,-0.42313072,-0.515022874,0.388339043,-0.93835026
83668.624213,-1.69354404,1.95541321,-1.09447574,-0.544182122,0.517200649,-1.03150129
83668.634239,-1.86640484,1.88047998,-1.84117323,-0.452676684,0.606971264,-1.1388272
83668.644265,-1.85129948,1.68497042,-2.64122646,-0.346768886,0.606660724,-1.22047997
83668.654291,-1.84344877,1.57382519,-3.19538536,-0.215969056,0.511898577,-1.25198805
83668.664318,-1.79492629,1.268556,-3.79393343,-0.0494602472,0.387005061,-1.2796818
83668.674344,-1.70905024,1.06900563,-3.94390772,-0.00574925262,0.216734529,-1.25721109
83668.684370,-1.1265372,0.84188885,-3.5107431,-0.129125774,0.0356696732,-1.19968331
83668.694396,-0.966036843,0.623127588,-3.26370603,-0.281919062,-0.111932829,-1.16170061
83668.704422,-1.02191991,0.455632329,-3.40086584,-0.316551089,-0.223083064,-1.13620448
83668.714448,-0.656759005,0.0484050979,-3.89455829,-0.182488605,-0.29883188,-1.08486092
83668.724474,-0.249510329,-0.293298617,-4.26815546,-0.0138143692,-0.422858477,-1.01167035
83668.734500,-4.2377837e-06,-0.26108631,-4.29556077,0.102861382,-0.641876042,-0.949205041
83668.744526,0.20449396,-0.207800527,-4.21446712,0.158151001,-0.920254111,-0.912038505
83668.754552,0.341511882,-0.187150684,-3.92402755,0.161018431,-1.19726634,-0.881387651
83668.764578,0.606446867,-0.36646461,-3.64609265,0.186973065,-1.43949819,-0.855748057
83668.774604,0.899426774,-0.543903756,-3.45067646,0.225433648,-1.64091516,-0.826213598
83668.784630,1.08239791,-0.557264684,-3.071607,0.243992418,-1.79690289,-0.805006325
83668.794656,1.2103458,-0.569000422,-2.64648072,0.243573233,-1.90749145,-0.803100824
83668.804682,1.324149,-0.621295842,-2.14193546,0.207685277,-1.96552861,-0.814041138
83668.814709,1.39980688,-0.656469228,-1.57568338,0.140788525,-1.9747293,-0.83027494
83668.824735,1.43788059,-0.654286185,-1.07775724,0.0530099347,-1.94213569,-0.853258848
83668.834761,1.553919,-0.68216934,-0.69252283,-0.0372664332,-1.88625216,-0.864653707
83668.844787,1.66485454,-0.740234356,-0.42945057,-0.114853635,-1.83637309,-0.843402743
83668.854813,1.53440299,-0.873145501,-0.383376802,-0.152383953,-1.79024208,-0.814407825
83668.864839,1.31724989,-0.961976315,-0.468686018,-0.169180512,-1.75068128,-0.775215149
83668.874865,1.22357003,-0.998904801,-0.452519311,-0.192101017,-1.70325518,-0.729719043
83668.884891,1.20016314,-1.03206217,-0.383577877,-0.203867391,-1.6203028,-0.683421075
83668.894917,1.22338327,-1.06951168,-0.472518728,-0.192052543,-1.5110482,-0.632742703
83668.904943,1.24317401,-1.02464152,-0.522621606,-0.184444696,-1.38640618,-0.581453383
83668.914969,1.28198159,-1.02751656,-0.590427314,-0.179752201,-1.29345119,-0.509685755
83668.924995,1.29492408,-1.00184129,-0.616855303,-0.195038214,-1.23001873,-0.422389716
83668.935022,1.23036276,-0.9990304,-0.595117518,-0.224419802,-1.19199467,-0.335825533
83668.945048,1.21863549,-0.99215993,-0.626765287,-0.280530214,-1.1687572,-0.255829245
83668.955074,1.24052701,-0.969681337,-0.632800475,-0.337696314,-1.15795457,-0.174534917
83668.965100,1.24212071,-0.959146353,-0.779364078,-0.379713267,-1.16233265,-0.0892647505
83668.975126,1.24660165,-0.867326512,-0.904212109,-0.406593084,-1.16754174,0.00445588073
83668.985152,1.2103952,-0.832168617,-0.901608064,-0.419749886,-1.15118086,0.10706082
83668.995178,1.14006844,-0.819065828,-0.882735021,-0.407812268,-1.1018815,0.202444583
83669.005204,1.06394674,-0.725370549,-0.716855307,-0.401043057,-1.02837217,0.27651003
83669.015230,0.941284241,-0.599858575,-0.512462031,-0.415947974,-0.956530929,0.319034845
83669.025256,0.781249161,-0.438311776,-0.415756392,-0.45904085,-0.886791229,0.336079866
83669.035282,0.651238634,-0.185588184,-0.257085587,-0.535612881,-0.827088773,0.333105117
83669.045309,0.671435619,-0.0129061703,-0.145040339,-0.607511282,-0.754296839,0.32647866
83669.055335,0.715258394,0.042455067,-0.301675254,-0.624751508,-0.671854675,0.302350938
83669.065361,0.850819541,0.027124373,-0.480579869,-0.593364835,-0.590216279,0.27620697
83669.075387,0.94041681,0.0138755633,-0.592245177,-0.527672887,-0.539954484,0.257708371
83669.085413,1.04068043,-0.124698612,-0.880508577,-0.408228278,-0.518768489,0.253722966
83669.095439,1.13222591,-0.187852531,-1.09290104,-0.257705063,-0.533709049,0.250978053
83669.105465,1.08664665,-0.178838582,-1.05125911,-0.103779413,-0.577779353,0.256604761
83669.115491,1.06438046,-0.235241529,-1.01614513,0.0689007491,-0.632341921,0.26991576
83669.125517,1.07264151,-0.252984344,-1.04698041,0.250636995,-0.684271157,0.28236872
83669.135543,1.09340548,-0.164605876,-0.793625828,0.366821647,-0.722164214,0.302218318
83669.145570,1.0797528,-0.0692825576,-0.410008203,0.416696519,-0.734563351,0.30632171
83669.155596,1.08654611,0.0048389462,-0.0830932938,0.397431225,-0.72329098,0.292899638
83669.165622,1.07162795,0.0160094152,0.197900992,0.321459234,-0.698527336,0.273561388
83669.175648,1.15240244,-0.0945217013,0.333665553,0.253719449,-0.651182473,0.240160748
83669.185674,1.19572019,-0.298668693,0.111990302,0.235797152,-0.587441325,0.206715971
83669.195700,1.08067108,-0.397869145,-0.189844526,0.2636666,-0.53534776,0.200312123
83669.205726,1.01165308,-0.538748967,-0.488016157,0.305114448,-0.529473662,0.211531758
83669.215752,1.03298462,-0.707855278,-0.597080927,0.321575433,-0.561859012,0.243013248
83669.225778,1.18432084,-0.91812899,-0.605862784,0.311148375,-0.626328528,0.308428735
83669.235805,1.44457103,-1.08197654,-0.680870386,0.267140687,-0.713579834,0.400071591
83669.245831,1.6868121,-1.13488206,-0.652799892,0.195764244,-0.79755038,0.496936083
83669.255857,1.89341721,-1.01823991,-0.470607341,0.100284867,-0.85748744,0.580090642
83669.265883,1.90173671,-0.56513644,-0.274673266,0.0039519337,-0.912466586,0.613428593
83669.275909,1.83519883,-0.0792210189,-0.271089562,-0.0169610716,-0.954735696,0.581189692
83669.285935,1.77174255,0.107206429,-0.521086652,0.044592835,-0.985588431,0.508428156
83669.295961,1.78290516,0.139141691,-0.599078238,0.190091968,-0.975916386,0.414701641
83669.305987,1.84952137,-0.010865166,-0.682739103,0.315415293,-0.985539198,0.333417445
83669.316014,2.02121181,-0.184775644,-0.289489142,0.304550111,-1.03432059,0.292777628
83669.326040,2.25502758,-0.370401804,0.126701549,0.228407934,-1.091084,0.278968066
83669.336066,2.34437994,-0.433399418,0.383484938,0.156567842,-1.12799728,0.275525391
83669.346092,2.25153214,-0.379728399,0.657998629,0.0988925621,-1.14410758,0.272425205
83669.356118,2.08502465,-0.227125972,0.935847602,0.0747653916,-1.14774811,0.26669994
83669.366144,1.92601015,0.000321350042,1.07149584,0.104237527,-1.11803281,0.25360918
83669.376170,1.79990481,0.212806884,1.24836106,0.131929874,-1.05380106,0.224476859
83669.386196,1.66275143,0.394140736,1.48602532,0.122153148,-0.961545408,0.191730618
83669.396223,1.56049049,0.387737262,1.56319624,0.117892623,-0.847234011,0.148222029
83669.406249,1.14772393,0.454227394,1.44393624,0.0807969198,-0.757071376,0.0853117779
83669.416275,1.03226566,0.510449888,1.51333185,-0.0201555341,-0.723523557,0.042784024
83669.426301,0.967851345,0.438242912,1.43610365,-0.0952177867,-0.725288689,-0.00265136734
83669.436327,0.710095896,0.485311318,1.21299281,-0.0798521489,-0.743602693,-0.0553345494
83669.446353,0.683981796,0.361786718,0.976525065,0.031894885,-0.756497443,-0.0889084861
83669.456379,0.78670392,0.141822418,1.00952133,0.184062585,-0.762494087,-0.0879715905
83669.466405,0.831370744,-0.0236441936,0.985059085,0.393698364,-0.754094243,-0.0538743399
83669.476432,0.799400904,-0.17074257,1.12606739,0.545093238,-0.725950718,-0.00467536971
83669.486458,0.746608641,-0.187664077,1.52644034,0.588842034,-0.667441368,0.0337114334
83669.496484,0.64601067,-0.0930059813,1.74881175,0.582959354,-0.594279528,0.0672611371
83669.506510,0.560623712,-0.0766158962,1.62602942,0.572794378,-0.516127467,0.0936384201
83669.516536,0.501204724,-0.122136397,1.5439795,0.530412555,-0.471237004,0.12837483
83669.526562,0.458000958,-0.0937633207,1.52486797,0.45617348,-0.457039148,0.165728316
83669.536588,0.5241513,-0.0660594491,1.57221717,0.359578222,-0.457373381,0.206970826
83669.546615,0.57636664,-0.0416911699,1.59615042,0.271318942,-0.456828773,0.221287191
83669.556641,0.460700864,0.0671592636,1.64984518,0.215244994,-0.4427782,0.229014874
83669.566667,0.376349679,0.242533147,1.48517484,0.229490787,-0.430420071,0.228858545
83669.576693,0.31905309,0.415339262,1.42031805,0.257193804,-0.426390439,0.216914535
83669.586719,0.278969502,0.569776631,1.48933664,0.289540559,-0.425059378,0.1957203
83669.596745,0.230544786,0.743040427,1.48662972,0.34963131,-0.424218893,0.16366969
83669.606771,0.203088039,0.826560495,1.40303491,0.438357443,-0.41965422,0.126375318
83669.616798,0.210260707,0.914543825,1.38736271,0.530821323,-0.416824341,0.0871927738
83669.626824,0.231135737,0.97921445,1.28213474,0.675156176,-0.419220924,0.0489859954
83669.636850,0.254075883,0.992253746,1.09686935,0.84253931,-0.417042196,0.0134572955
83669.646876,0.225778594,0.963323785,1.15673375,0.942587852,-0.395078033,-0.0163863525
83669.656902,0.231868728,0.865331028,1.34732763,0.95133847,-0.349322021,-0.0438094586
83669.666928,0.224426011,0.85533205,1.25270055,0.922825575,-0.292833954,-0.0777599663
83669.676954,0.218907539,0.849643483,1.17152917,0.833111703,-0.255266339,-0.108410284
83669.686981,0.202537419,0.75899444,1.14111649,0.715577066,-0.235222608,-0.130344093
83669.697007,0.228237093,0.674089348,1.00355511,0.628494918,-0.214567393,-0.133733496
83669.707033,0.253590146,0.664604311,0.789110396,0.583763361,-0.197749525,-0.134617388
83669.717059,0.204607211,0.696373368,0.548414219,0.585357845,-0.184315473,-0.129409313
83669.727085,0.160975575,0.545485984,0.293562091,0.586400449,-0.181241661,-0.103571855
83669.737111,0.174793088,0.409381231,0.287612242,0.524683297,-0.201081142,-0.076494962
83669.747138,0.222680044,0.422885221,0.274047827,0.446814328,-0.229701608,-0.0508404672
83669.757164,0.297718626,0.459795805,0.226666483,0.361450166,-0.259694934,-0.0254573487
83669.767190,0.264359961,0.523429196,0.327408246,0.271879256,-0.283735543,-0.00778434332
83669.777216,0.173479083,0.63922006,0.376914912,0.219220296,-0.286046088,-0.00613132026
83669.787242,0.0963549264,0.802654207,0.408199693,0.197471589,-0.273945749,-0.0125183789
83669.797268,0.0598883593,0.90306345,0.41943245,0.202663958,-0.253916115,-0.0295058861
83669.807295,0.0633282706,0.982021544,0.451841266,0.205128714,-0.237453267,-0.0543616973
83669.817321,0.0979518402,1.06021413,0.430108742,0.236099407,-0.230938911,-0.0858850032
83669.827347,0.163750885,1.09087121,0.312516382,0.296115905,-0.229775369,-0.112972543
83669.837373,0.220611421,1.07039132,0.281943549,0.364525586,-0.230744764,-0.140881419
83669.847399,0.235327928,1.03222094,0.202540634,0.433246851,-0.235447645,-0.167142317
83669.857425,0.266592835,0.89650716,0.193858146,0.455253869,-0.246792436,-0.177285492
83669.867452,0.275282922,0.671346917,0.373762878,0.414701939,-0.253149927,-0.169175103
83669.877478,0.298859028,0.5153956,0.478334136,0.351840407,-0.246934116,-0.153093874
83669.887504,0.301764686,0.467364341,0.429162401,0.32715717,-0.230848625,-0.133230418
83669.897530,0.255530174,0.537662377,0.32581747,0.309799761,-0.216412693,-0.117918305
83669.907556,0.215209269,0.599329583,0.327379897,0.266086608,-0.204480663,-0.117592059
83669.917582,0.2734031,0.5974426,0.382017204,0.178738922,-0.192829877,-0.117583804
83669.927609,0.351302332,0.575562777,0.371658307,0.123907901,-0.177263424,-0.110271566
83669.937635,0.331945889,0.579040682,0.145036832,0.109659992,-0.170855328,-0.107765801
83669.947661,0.300979089,0.665193802,0.0953863736,0.0918162763,-0.187300086,-0.119178243
83669.957687,0.276878667,0.861846985,0.0673471508,0.0874111429,-0.215088576,-0.146665275
83669.967713,0.292194309,0.931502705,-0.024821722,0.115871817,-0.235390112,-0.179227471
83669.977739,0.294078808,0.851811183,-0.0551975711,0.16028668,-0.236757383,-0.202748507
83669.987766,0.283185073,0.672792294,-0.0695049134,0.187329471,-0.235414088,-0.210466623
83669.997792,0.298714651,0.443734824,0.0670890844,0.135218337,-0.246542096,-0.203320026
83670.007819,0.341978039,0.266405934,0.314969913,0.00850487407,-0.261074692,-0.190182388
83670.017845,0.380116923,0.172987354,0.51076458,-0.137466446,-0.26929003,-0.15946202
83670.027871,0.321396438,0.110171124,0.520985529,-0.219072893,-0.254885793,-0.145539016
83670.037898,0.288790638,0.12985899,0.492792285,-0.227114573,-0.236059099,-0.128707305
83670.047924,0.316247385,0.151141725,0.454543511,-0.188117906,-0.221903339,-0.110110715
83670.057950,0.290626622,0.146000124,0.505226819,-0.135443509,-0.209054917,-0.0861047134
83670.067976,0.284952668,0.142667765,0.556456071,-0.0758257136,-0.184308022,-0.070748657
83670.078002,0.276643689,0.157195764,0.594201572,-0.0456710123,-0.147372648,-0.0621557049
83670.088028,0.261838919,0.200828131,0.691082568,-0.0591620542,-0.109369591,-0.063089937
83670.098055,0.236162626,0.247192992,0.735724259,-0.0780611709,-0.0766262934,-0.0798438862
83670.108081,0.247411749,0.218338946,0.592240209,-0.0495746732,-0.0442079008,-0.0875683874
83670.118107,0.26211189,0.137146517,0.456890366,-0.0131237218,-0.0248752162,-0.0862506554
83670.128133,0.270749955,0.136458827,0.452683562,0.00720418617,-0.0110416915,-0.0848777965
83670.138159,0.279803614,0.112668932,0.407217111,0.0149366744,0.00135239342,-0.087008059
83670.148186,0.319894217,0.0194068574,0.423362775,-0.00952019915,0.0233242698,-0.074489601
83670.158212,0.318972426,-0.0779106304,0.501933038,-0.0741580427,0.0531793721,-0.0622358657
83670.168238,0.328775443,-0.14137451,0.557501196,-0.155849457,0.0740340576,-0.0505970567
83670.178264,0.3233201,-0.133063193,0.51236617,-0.203149289,0.0913510248,-0.0483811721
83670.188290,0.270175954,-0.135335814,0.322670112,-0.182582498,0.100585803,-0.0437217019
83670.198317,0.198896432,-0.134656746,0.197479551,-0.132716671,0.108699925,-0.0317065865
83670.208343,0.221444949,-0.164456841,0.20260084,-0.0853768587,0.112109572,-0.0168277696
83670.218369,0.121025257,-0.166305392,0.230509714,-0.0668268725,0.120707318,-0.0122631127
83670.228395,0.0831143365,-0.104922848,0.290068403,-0.0680556595,0.13592568,-0.011742997
83670.238421,0.139272862,-0.0746080817,0.316137203,-0.0880978107,0.152496934,-0.0121960016
83670.248448,0.111003629,-0.0401123763,0.330788244,-0.12349388,0.15863286,-0.0211450197
83670.258474,0.0782645584,-0.0267372003,0.292057239,-0.14531289,0.158560693,-0.0216630064
83670.268500,0.106000122,-0.0520819233,0.197951553,-0.149229601,0.164086223,-0.0257568173
83670.278526,0.0782131205,0.00651654229,0.113897597,-0.139029697,0.162510693,-0.0317185707
83670.288552,0.0980126305,0.00300254282,0.067237553,-0.126631081,0.157873601,-0.040974386
83670.298579,0.109918172,-0.021809973,0.0571209404,-0.121732205,0.14240782,-0.0480330959
83670.308605,0.138997552,-0.024129502,0.0815720755,-0.106241129,0.12347807,-0.0503961183
83670.318631,0.0841471867,-0.0236183376,0.0652338119,-0.0426898487,0.124376886,-0.0454429053
83670.328657,0.00995849943,-0.0623277152,-0.069642276,0.0440666191,0.138233051,-0.0431131721
83670.338684,0.0022591771,-0.100987262,-0.0473135398,0.104316913,0.149276912,-0.0259219334
83670.348710,0.0803489635,-0.123444009,0.057938102,0.0957761556,0.141609132,-0.00564222783
83670.358736,-0.0142459675,-0.0999357075,0.489157436,-0.0824780092,0.102921665,-0.0194896013
83670.368762,-0.104006318,0.0336123467,0.636895051,-0.194699079,0.104203179,-0.0376014933
83670.378788,0.00762158092,0.206764682,0.307161577,-0.132348359,0.160696819,-0.0507809445
83670.388815,-0.00814122088,0.276707548,-0.0535538955,0.0269757845,0.230055109,-0.0600135885
83670.398841,-0.0387391882,0.214756849,-0.111372463,0.119827956,0.269757241,-0.0653931722
83670.408867,0.0286900879,0.116251613,0.136010937,0.0845554546,0.277681202,-0.076845035
83670.418893,0.0932458545,0.0107028881,0.22176702,-0.00700135715,0.264436513,-0.0989535302
83670.428919,0.174129655,-0.0906404943,0.194324887,-0.104643233,0.248283386,-0.117308304
83670.438946,0.257585937,-0.128182874,0.0612090865,-0.149864763,0.213825285,-0.130252063
83670.448972,0.296644274,-0.0779147221,-0.125670453,-0.124100283,0.164570108,-0.13174583
83670.458998,0.270943432,0.027025808,-0.310993118,-0.0134078581,0.112209171,-0.137867644
83670.469024,0.148012048,0.161378749,-0.491679063,0.143742889,0.0737219676,-0.141732946
83670.479051,0.114557523,0.168432905,-0.387393344,0.250876248,0.0557930358,-0.153031945
83670.489077,0.20446868,0.0946370165,-0.0273062323,0.267593443,0.0486435108,-0.156249046
83670.499103,0.276212896,-0.0117211252,0.305793503,0.213711053,0.0581198372,-0.147820935
83670.509129,0.229752174,-0.0772843152,0.457442447,0.131890222,0.0872380435,-0.141842142
83670.519155,0.120113403,-0.169050745,0.482056956,0.0387000851,0.127091184,-0.125746533
83670.529182,0.0769903007,-0.254498347,0.459038192,-0.0439979918,0.171710044,-0.0964381769
83670.539208,0.0236520937,-0.311943843,0.345472603,-0.0909396708,0.212591439,-0.0540880598
83670.549234,0.0189051915,-0.291069543,0.106045423,-0.0956382826,0.234747872,-0.0221570246
83670.559260,0.0750204619,-0.262267665,0.00526361962,-0.104019254,0.241206571,0.000127243809
83670.569287,0.164223763,-0.289781111,0.0376765274,-0.134165168,0.236880794,0.0254935883
83670.579313,0.239110369,-0.300162219,0.0497013118,-0.170909598,0.225567162,0.0477224588
83670.589339,0.269822903,-0.214875215,0.0950315688,-0.198817119,0.219552666,0.0668338388
83670.599365,0.185812494,-0.106576168,0.105460024,-0.209768042,0.216541171,0.0741029382
83670.609392,0.108196171,0.000699380441,0.0203209035,-0.187459007,0.215862334,0.0698666424
83670.619418,0.0527951861,0.0581551057,-0.0276578223,-0.136773199,0.219898358,0.0690024495
83670.629444,0.0222205996,0.101444358,-0.186627318,-0.0674069151,0.204030171,0.0609141625
83670.639470,0.0761491737,0.126308897,-0.230574596,-0.0156952459,0.171844274,0.0658652484
83670.649496,0.144852123,0.0860343156,-0.149288644,-0.0056830924,0.134187445,0.0732216984
83670.659523,0.166875739,0.0706947077,-0.0490074843,-0.0319146961,0.103113145,0.074349016
83670.669549,0.188393743,0.00925765769,0.0321650705,-0.0752310157,0.0815524608,0.0703944862
83670.679575,0.235278244,-0.0217578044,0.0889297448,-0.101960093,0.0604482405,0.0778401494
83670.689601,0.217778828,-0.0357964128,0.0912199016,-0.087333478,0.0395365655,0.0970697701
83670.699628,0.141012983,-0.00398570864,0.0618242958,-0.0538740568,0.0275432877,0.104291201
83670.709654,0.0315144977,0.0577117459,0.0379874931,-0.0138920201,0.0155888889,0.110055879
83670.719680,0.0335515565,0.0896267872,0.0861158564,0.0114647346,0.00285738101,0.115872756
83670.729706,0.136598674,0.156199739,0.250811913,0.0194195975,0.00239931722,0.109830305
83670.739733,0.127743167,0.281947202,0.342829103,0.0221796986,0.0219951235,0.0783690587
83670.749759,0.0564975478,0.380171283,0.408119029,0.026227437,0.0449284017,0.0321901068
83670.759785,0.032297757,0.470244938,0.43454877,0.0186579339,0.069158107,-0.00860020053
83670.769811,-0.0095838209,0.42399099,0.377142876,0.00835868996,0.0949937031,-0.0241663791
83670.779838,-0.0189554604,0.273249809,0.322329335,-0.0187445655,0.123077802,-0.0205383524
83670.789864,-0.00269639948,0.122095663,0.315543036,-0.0742424503,0.154095903,-0.00808061752
83670.799890,0.0173977095,0.00608750322,0.298557999,-0.14043051,0.183018103,0.00707303453
83670.809916,0.110824181,-0.038782589,0.214870831,-0.183110863,0.214985624,0.0264145099
83670.819943,0.193892341,-0.0437273519,0.0484311457,-0.187893644,0.2191737,0.0337975882
83670.829969,0.170068982,0.022599516,-0.0637350978,-0.18358092,0.199925438,0.0445298627
83670.839995,0.0963140099,0.112257137,-0.121468909,-0.160672665,0.172270909,0.0500266254
83670.850021,0.0301812033,0.182922326,-0.215594469,-0.121540718,0.142986,0.0545316301
83670.860048,0.0336819048,0.271368233,-0.257840789,-0.0757596493,0.123808034,0.0572664291
83670.870074,0.0294254164,0.315874314,-0.240769827,-0.0433383286,0.111380398,0.0471315049
83670.880100,0.0834247177,0.346013578,-0.256056244,-0.0230748653,0.0972427428,0.0378770195
83670.890126,0.131001292,0.318256971,-0.287289586,0.000141507131,0.0783287063,0.0363872461
83670.900153,0.114932786,0.297019099,-0.337615752,0.032333266,0.0501194373,0.0287498347
83670.910179,0.0673024349,0.258386148,-0.326397608,0.0637218133,0.0222459938,0.0244368445
83670.920205,0.0498544565,0.231573983,-0.307688816,0.0984683409,-0.00171659817,0.0206929743
83670.930231,0.0578232434,0.255560569,-0.23772213,0.122317486,-0.0132608693,0.0200458243
83670.940258,0.0381149189,0.213258135,-0.126337977,0.113300554,-0.0126755061,0.0116954837
83670.950284,0.065650576,0.218763016,0.0400584541,0.0646493956,-0.00917611271,-0.00104028545
83670.960310,0.112552612,0.192661776,0.0797358,0.0184073299,-0.00873402786,0.00511854049
83670.970337,0.0718716425,0.110604986,0.00354746335,-0.00289103435,-0.00500799902,0.0115593961
83670.980363,0.0189127903,0.0747951287,-0.0575397503,-0.00923761353,-0.00976600312,0.0230346918
83670.990389,0.0260053789,0.079548753,-0.0260270062,-0.0213017333,-0.0140401097,0.0401239283
83671.000414,-0.00410977341,0.0924289851,-0.00263385563,-0.0291412789,-0.0149045726,0.053523358
83671.010441,-0.0481622656,0.158415515,0.0499164158,-0.0342087448,0.00165123527,0.0544216409
83671.020467,-0.0824713625,0.191923232,0.0826350286,-0.0411814339,0.0187306199,0.0491158254
83671.030493,-0.0653361033,0.203081901,0.0973977134,-0.0449538007,0.0306778271,0.0474497527
83671.040519,-0.0331429757,0.210552091,0.103825116,-0.0482942052,0.0495449938,0.0455317423
83671.050546,-0.062617492,0.209187817,0.0745657039,-0.0407705083,0.0681501031,0.0423519276
83671.060572,-0.112912093,0.235534995,-0.0102601127,-0.0351861231,0.0849533156,0.027329836
83671.070598,-0.130754624,0.184093123,-0.114894792,-0.0465005636,0.0855133757,0.0110656461
83671.080624,-0.08559797,0.116591074,-0.218720492,-0.0537286513,0.0682475716,0.00769994268
83671.090651,0.0776344438,0.0799251851,-0.306623817,-0.0377992168,0.0365466364,0.0183288846
83671.100677,0.143044781,0.130083739,-0.405592725,0.0103153149,-0.00379919005,0.0312026069
83671.110703,0.111399935,0.160802703,-0.351305839,0.0364055037,-0.0349328741,0.0429886915
83671.120730,0.0466501075,0.167024646,-0.163671974,0.0238087531,-0.0514394119,0.0520415753
83671.130756,-0.0106219318,0.174490159,0.0180003516,-0.0174057949,-0.0451666042,0.0507203788
83671.140782,-0.0142085581,0.167032683,0.153894677,-0.0547315963,-0.0251500178,0.0493408628
83671.150808,-0.0207931972,0.21684067,0.149155958,-0.0678471327,-0.0116621731,0.0445929766
83671.160835,-0.0301660057,0.277204538,0.105673959,-0.0544756651,-0.00669830758,0.0345973372
83671.170861,0.00679506697,0.346093219,0.0488438181,-0.0141583364,-0.0147564998,0.0236480162
83671.180887,0.0787181474,0.436289184,0.00839139625,0.0389115773,-0.0281973518,0.00557587529
83671.190914,0.126664724,0.419481403,0.090844054,0.0626403391,-0.0405387096,-0.0104861809
83671.200940,0.119710083,0.386491719,0.230621943,0.0485511534,-0.0394310988,-0.0293110013
83671.210966,0.106017073,0.336681247,0.33185412,0.00720903836,-0.0354201123,-0.0421144143
83671.220992,0.205086519,0.227780874,0.446015336,-0.0324917659,-0.024981318,-0.0372402966
83671.231019,0.187789932,0.130318425,0.404968456,-0.0406519584,-0.000631238916,-0.0329134576
83671.241045,0.123207277,0.103252869,0.300710209,-0.031015845,0.0182114262,-0.0276390687
83671.251071,0.140181793,0.086193744,0.229081143,-0.00967114232,0.0227411967,-0.0210472122
83671.261097,0.173059396,0.0767582455,0.11168109,0.0196161736,0.0309716947,-0.0128875533
83671.271124,0.18660043,0.0696726712,0.0917985783,0.0389669687,0.0411244631,0.00203253981
83671.281150,0.162110132,0.0817626297,0.14348025,0.0284586661,0.058252316,0.013675347
83671.291176,0.0466769955,0.116820645,0.185418527,0.00480207335,0.088427797,0.00332843373
83671.301203,0.0230348386,0.178790341,0.167093765,-0.0176180154,0.116257027,-0.00666987244
83671.311229,0.0314092837,0.192333859,0.0258288533,-0.010003238,0.134161741,-0.0100289164
83671.321255,0.0316454306,0.204409058,-0.163037768,0.0127148572,0.146928936,-0.0111378571
83671.331282,0.0728209061,0.191921917,-0.17759061,0.0165426191,0.174426332,-0.00125886127
83671.341308,0.0820259568,0.199229318,-0.172753691,-0.014968968,0.182347372,-0.0140209952
83671.351334,-0.0289765036,0.219102039,-0.12533786,-0.0973767564,0.179869309,-0.0236698948
83671.361360,0.025755788,0.218148245,-0.176575295,-0.145387426,0.164349198,-0.026436653
83671.371387,0.129883102,0.238354875,-0.252141116,-0.146514475,0.149012849,-0.0166442096
83671.381413,0.0773415984,0.313255948,-0.346985053,-0.1004069,0.128917977,-0.0124952709
83671.391439,0.004406126,0.358058236,-0.40799511,-0.0407209359,0.0998586193,-0.0152915893
83671.401466,-0.0160538937,0.396133553,-0.364727631,0.00172772002,0.0691771358,-0.0241324827
83671.411492,0.0089402623,0.375086674,-0.317002587,0.0233469959,0.0420906581,-0.0281695686
83671.421518,0.0774614253,0.38630511,-0.298655614,0.0363464206,0.0159219056,-0.0305070281
83671.431544,0.0871568899,0.367823843,-0.221193604,0.0241728425,0.00235309941,-0.0401042588
83671.441571,0.021923078,0.355123205,-0.0543289716,-0.00520075951,0.00416138582,-0.0536805242
83671.451597,-0.0146510412,0.365683616,0.0336240372,-0.020162398,0.0159919467,-0.0701348633
83671.461623,-0.0608311931,0.380193057,-0.0129471599,-0.0133329881,0.0260919854,-0.0824594423
83671.471650,-0.0734434219,0.355747329,-0.0543365703,-0.00348541769,0.0348433964,-0.0915072635
83671.481676,-0.0567629207,0.308446064,-0.0378781875,-0.00558958109,0.0410789214,-0.0938063711
83671.491702,-0.0287251592,0.245321937,-0.0266442613,-0.0187360104,0.0563007519,-0.0968594179
83671.501729,-0.00406651879,0.176824594,-0.0451473017,-0.0401712582,0.0660159662,-0.0918761119
83671.511755,-0.00726093091,0.105258364,-0.0865390503,-0.0647636876,0.0794327036,-0.0854853243
83671.521781,0.0204185187,0.0618460692,-0.123406015,-0.0822755694,0.0821983963,-0.084073849
83671.531808,-0.0076531451,0.0319043738,-0.184609548,-0.0829035416,0.0706796944,-0.0704826713
83671.541834,0.00106090723,0.00466419242,-0.274819396,-0.0566855185,0.0400469489,-0.0517798252
83671.551860,0.0445218633,0.0154325469,-0.334393867,-0.0145604396,0.00568071892,-0.0338170677
83671.561887,0.00561550179,0.0655376172,-0.348633989,0.0282117911,-0.0249075498,-0.0256949626
83671.571913,-0.0345569341,0.0969016005,-0.293766089,0.0487887077,-0.0471092612,-0.0201260261
83671.581939,-0.0291746566,0.114984077,-0.209328979,0.0424812771,-0.0568465739,-0.0133725153
83671.591965,0.0101858784,0.0760737704,-0.120606155,0.0197013933,-0.0510102585,-0.0102771232
83671.601992,0.0406885687,0.0439107457,-0.0729413176,-0.00790306926,-0.040157076,-0.0076379301
83671.612018,0.0345762233,0.046082829,-0.0643301411,-0.0290357843,-0.030437069,-0.00143809151
83671.622044,-0.00479950924,0.105027185,-0.106376554,-0.0249427725,-0.0254479051,-0.00295849051
83671.632071,-0.013550971,0.153749569,-0.160019882,-0.0119763743,-0.0244923625,-0.00823581126
83671.642097,0.0229307937,0.178802177,-0.156336225,-0.00275118416,-0.0293246675,-0.00979056489
83671.652123,0.0569873771,0.184692697,-0.127484224,0.00516958954,-0.0409027636,-0.00950667169
83671.662150,0.0978700071,0.180609665,-0.114992407,0.0160110518,-0.0491415188,-0.00638038572
83671.672176,0.104956751,0.192139944,-0.0656903235,0.0192438625,-0.0538300127,-0.010506955
83671.682202,0.108303723,0.161062815,-0.00450198759,0.00844314694,-0.0567581579,-0.0114113642
83671.692229,0.136651281,0.153147219,0.025447745,-0.0100389244,-0.059017051,-0.00765976962
83671.702255,0.129651047,0.166847389,0.0401297658,-0.023054326,-0.052041702,-0.0079250196
83671.712281,0.0958136591,0.172162593,0.03957447,-0.0377749465,-0.0519106723,-0.0147834579
83671.722308,0.0915215149,0.170806649,0.0289139598,-0.0490867235,-0.0588322282,-0.0204551928
83671.732334,0.124530051,0.128860043,0.0546492896,-0.0547922775,-0.0635388345,-0.02000219
83671.742360,0.128079267,0.0821118815,0.0743745652,-0.0495136268,-0.0618919358,-0.0145498989
83671.752387,0.148701784,0.0197056942,0.0975005893,-0.0384426005,-0.0638765246,-0.0074842656
83671.762413,0.163913382,0.033246436,0.0772165107,-0.0272519998,-0.0727805346,0.000614672899
83671.772439,0.17637948,0.0656790715,0.0903729294,-0.0115670459,-0.0743989348,0.00253827404
83671.782466,0.160683314,0.084740038,0.145692666,-0.0115886182,-0.0671562031,-0.000639676116
83671.792492,0.155887896,0.109734632,0.192212425,-0.0134874517,-0.0604610182,-0.002934522
83671.802518,0.138887662,0.117749597,0.215738846,-0.00752836233,-0.0455001779,-8.33421946e-05
83671.812545,0.116727852,0.131790105,0.221719674,0.000286417402,-0.0296879224,0.00371033093
83671.822571,0.117494161,0.106465986,0.263473242,-0.00692702085,5.58566535e-05,0.00870535616
83671.832597,0.0461094247,0.112960024,0.309067703,-0.0292981062,0.0343262106,0.0120172631
83671.842624,-0.0222328746,0.119998398,0.271066766,-0.0565371811,0.0718008801,0.00624699192
83671.852650,-0.0687374361,0.100693832,0.16401392,-0.0849762782,0.0961677432,0.00278648036
83671.862676,-0.049466334,0.0726712685,0.00514145454,-0.086972855,0.101980358,0.00816979446
83671.872703,0.00919219124,0.0751788674,-0.203363349,-0.0560319796,0.089430213,0.0201612096
83671.882729,0.0456131657,0.0806087835,-0.330847573,-0.0183165614,0.0581077076,0.0332831368
83671.892755,0.066489365,0.0982880864,-0.397013697,0.00674271863,0.0157400109,0.0423184447
83671.902782,0.0932160438,0.125412094,-0.368702379,0.0120964712,-0.0229626428,0.0509881005
83671.912808,0.106996732,0.119904437,-0.314475115,0.0139910439,-0.0498810783,0.0526555032
83671.922834,0.0975362451,0.122795043,-0.23238603,0.00546280341,-0.0706904829,0.0522403158
83671.932861,0.106036947,0.155099961,-0.121806179,-0.00739307376,-0.0803420469,0.0532315448
83671.942887,0.101063835,0.190592714,-0.0398597167,-0.0259752795,-0.0785998106,0.049079679
83671.952913,0.0598112024,0.229187234,0.00947626888,-0.0418903306,-0.0692047104,0.0382581875
83671.962940,0.0394756858,0.24831805,0.00567336946,-0.0416234806,-0.0599435642,0.0228909496
83671.972966,0.0301391177,0.280965205,-0.0225087689,-0.0121894274,-0.0515556745,0.00890109874
83671.982992,0.0163069917,0.255462369,-0.0724672703,0.0309335422,-0.0474477485,-0.00388899911
83671.993019,0.0208615862,0.222699771,-0.0789805977,0.0652467757,-0.0449955091,-0.00930187386
83672.003045,0.0690589232,0.187492849,-0.0176262576,0.0743931383,-0.0376997776,-0.0145930415
83672.013071,0.0660264236,0.165214528,0.010708441,0.0675163195,-0.0285968259,-0.0206261687
83672.023098,0.0406254404,0.127348615,-0.00896773483,0.0461628325,-0.0117952097,-0.0200663693
83672.033124,0.0509030888,0.0926302068,0.0106704471,-0.00227660872,-3.921811e-05,-0.0277767554
83672.043150,0.088895258,0.0538246753,0.00269464591,-0.0598203279,0.00124256127,-0.0284718387
83672.053177,0.138099726,0.00675239687,-0.0420651178,-0.0917588174,-0.00730458833,-0.0163395442
83672.063203,0.159995332,-0.0473611784,-0.126504565,-0.0942797661,-0.0251898449,0.00139071792
83672.073230,0.14692776,-0.0738503952,-0.161654205,-0.0781689733,-0.0444900393,0.0222531222
83672.083256,0.180388131,-0.0826866126,-0.132552029,-0.0679259226,-0.0653444529,0.043850027
83672.093282,0.163980602,-0.0176787184,-0.0841886878,-0.0546127819,-0.0803090259,0.066083163
83672.103309,0.121849433,0.112949795,-0.0761690474,-0.023503866,-0.0954304561,0.0750377774
83672.113335,0.104529465,0.249036282,-0.0256061504,0.00411204807,-0.0958959758,0.0713636726
83672.123361,0.0717190823,0.319675752,0.107040571,0.0113459928,-0.0798866451,0.0593605451
83672.133388,0.0417822092,0.344463718,0.217539758,-0.000276841194,-0.0558566786,0.0410648957
83672.143414,0.0231365454,0.368976374,0.246191268,-0.0193128511,-0.0313713104,0.0239125378
83672.153440,0.0055383449,0.355303384,0.191095988,-0.029416617,-0.00783668738,0.0097101666
83672.163467,0.0438578464,0.321224151,0.170474056,-0.0395376943,0.00686502689,-0.00233717542
83672.173493,0.0774368754,0.294368292,0.154148359,-0.0534484498,0.00935028866,-0.00650715176
83672.183519,0.0757780023,0.257859347,0.0865513252,-0.0508519337,0.00685749669,-0.0168851949
83672.193546,0.0752414112,0.260950007,0.00667056381,-0.0335965119,-0.00367610459,-0.019237563
83672.203572,0.0690565851,0.279300926,-0.0393248792,-0.00478164433,-0.0142110372,-0.0212674253
83672.213599,0.069615388,0.231866974,-0.00400631303,0.0194680337,-0.0209642816,-0.0276427679
83672.223625,0.0608481442,0.176962395,0.0645733022,0.0324054062,-0.0188089851,-0.0218972638
83672.233651,0.0551005405,0.1012804,0.0814028564,0.0294700675,-0.00872199517,-0.0157703944
83672.243678,0.0350432563,0.0928334743,0.114779056,0.0140394475,0.0085153142,-0.00950264651
83672.253704,0.0517389551,0.111795364,0.11867431,-0.0133634144,0.0272879377,-0.00794629473
83672.263730,0.0516068531,0.177858467,0.0786065037,-0.0356053375,0.0391419306,-0.0143541256
83672.273757,0.0638625236,0.220260854,0.0213040693,-0.0512087978,0.0439297631,-0.0285192132
83672.283783,0.110614338,0.255884832,0.0516144519,-0.0838969648,0.0285982117,-0.0375633091
83672.293810,0.149191029,0.211747146,0.220897836,-0.16093716,-0.0144531187,-0.033638075
83672.303836,0.143799399,0.217748286,0.144267017,-0.130945712,-0.0252578296,-0.0291013829
83672.313862,0.108974169,0.276537891,-0.0827367354,-0.0352274328,-0.0210084897,-0.0319419093
83672.323889,0.11799568,0.236888017,-0.0730453625,0.048337236,-0.0177746136,-0.0296888761
83672.333915,0.13368717,0.224208714,-0.0229494984,0.0975290164,-0.00691184495,-0.0255745575
83672.343941,0.109490887,0.16128201,-0.0693517686,0.142465055,0.0373831801,-0.0236951634
83672.353968,0.0410784448,0.0351326882,-0.164676183,0.137465775,0.0624624342,-0.0146039305
83672.363994,0.0838461579,-0.0806327489,-0.123128952,0.0920620784,0.0757108629,0.0156170884
83672.374021,0.170604988,-0.132671564,-0.246509832,0.0520462207,0.0568029508,0.0622623526
83672.384047,0.23611411,-0.111616501,-0.339628845,0.00192632573,0.00781357102,0.0907435343
