t,ax,ay,az,gx,gy,gz
85856.427321,0.291887801,-0.232765366,-0.424679703,0.273628086,0.0229455177,0.0403115675
85856.437348,0.212083758,-0.0939971295,-0.207440389,0.287685335,0.00275316415,0.0460317731
85856.447376,0.0939682504,0.0977426179,0.164826405,0.269151866,-0.00418010913,0.0480824038
85856.457403,0.0681724957,0.291819156,0.576818476,0.19001016,-0.018541472,0.0462416261
85856.467431,-0.0745852854,0.480505562,0.827293704,0.0726734176,-0.0378904007,0.0236516297
85856.477458,-0.236018541,0.618704584,0.735527859,-0.0176447649,-0.0481622145,-0.00919340178
85856.487486,-0.284298734,0.72216072,0.453555669,-0.0505161621,-0.0454148948,-0.0503648072
85856.497513,-0.293045519,0.761511245,0.14623101,-0.0408552811,-0.0308455434,-0.0982407182
85856.507541,-0.314492212,0.733267805,-0.0998538744,-0.0101801902,-0.0215119626,-0.162388548
85856.517568,-0.379430913,0.632713089,-0.245057295,0.0337758139,-0.0131831914,-0.228913248
85856.527596,-0.361542352,0.486091545,-0.364668009,0.0856952071,-0.004261069,-0.281933874
85856.537623,-0.158016433,0.265482737,-0.444265862,0.141281769,-0.0115599949,-0.31117776
85856.547651,-0.054594856,0.0550775614,-0.402400651,0.169136837,-0.0151733709,-0.340027004
85856.557678,0.0353585328,-0.22592836,-0.22459143,0.183890477,-0.00975037646,-0.343032092
85856.567706,0.153878237,-0.399485494,0.0724088181,0.157341152,0.0020911023,-0.334850073
85856.577733,0.282914951,-0.555427861,0.341858796,0.0938759074,0.0178460963,-0.311207592
85856.587760,0.4341445,-0.708524409,0.524428363,0.00470255688,0.0336465128,-0.259456277
85856.597788,0.566081978,-0.839788152,0.590547141,-0.0932319984,0.0441644005,-0.179573685
85856.607815,0.593771437,-0.904326675,0.527420531,-0.197506726,0.0383496545,-0.0857198983
85856.617843,0.527231876,-0.874717719,0.270924727,-0.270095706,0.0117888851,0.0170970242
85856.627871,0.432763933,-0.730412416,0.000916530323,-0.325307846,-0.023988286,0.109487943
85856.637898,0.260523452,-0.457918102,-0.212893978,-0.340202361,-0.0634257048,0.16513443
85856.647926,0.0413303007,-0.207793367,-0.327673619,-0.32947728,-0.0941572562,0.177542359
85856.657953,-0.146472199,-0.0649223805,-0.16727146,-0.333001435,-0.0974862054,0.157558531
85856.667981,-0.16386399,-0.0417618149,0.068398998,-0.342980295,-0.0820782185,0.13295038
85856.678007,-0.106853305,-0.107480926,0.174242468,-0.352870226,-0.0613183491,0.115949035
85856.688036,-0.0287234787,-0.131771793,0.172867673,-0.351114392,-0.0496702157,0.11263793
85856.698062,0.156085757,-0.11649345,0.203671392,-0.360786468,-0.0567688718,0.153659135
85856.708091,0.282322684,-0.0844884562,0.178916305,-0.350280553,-0.0747231022,0.187658384
85856.718118,0.216368376,-0.00140899002,0.11973171,-0.337116301,-0.0852774754,0.201839447
85856.728146,0.0772537009,0.0846695301,0.0612304215,-0.304921329,-0.0805429071,0.198622078
85856.738173,-0.0930617666,0.239454781,0.0895820712,-0.271222234,-0.0692079589,0.179508835
85856.748201,-0.0484694684,0.352957734,0.114126145,-0.235804856,-0.0594091304,0.160655528
85856.758228,0.0700534141,0.411639896,0.176643684,-0.205224305,-0.0518252477,0.155200303
85856.768256,0.121665199,0.437328756,0.14564415,-0.163451821,-0.0472419448,0.150706217
85856.778283,0.150059848,0.472278928,0.0457183796,-0.11441505,-0.0409046859,0.141022161
85856.788311,0.137199416,0.488640463,-0.0116238023,-0.0676688477,-0.0349280201,0.127846971
85856.798338,0.147212678,0.396593937,0.064715341,-0.0389599688,-0.0252751261,0.115885384
85856.808366,0.208378254,0.300606146,0.200749951,-0.0212792419,-0.00860906392,0.109660782
85856.818393,0.215514938,0.195417139,0.257116566,-0.029455414,-0.00294931442,0.107814409
85856.828421,0.177430341,0.130859765,0.164435944,-0.0215354394,-0.00713607017,0.104019672
85856.838448,0.15280732,0.106521735,0.119078215,-0.0293209236,-0.0105824666,0.100055024
85856.848476,0.0822750362,0.0166795513,0.196402278,-0.0653138161,-0.0246199891,0.101251587
85856.858503,0.0118402215,-0.0637390981,0.183034846,-0.103348553,-0.0472334251,0.100089379
85856.868531,0.0393227968,-0.060379248,0.215304546,-0.132493913,-0.0628310218,0.0911062732
85856.878558,0.0858470494,-0.0631762218,0.235702607,-0.149357051,-0.0610347241,0.0722095445
85856.888586,0.0643487362,-0.158225947,0.19087387,-0.16214928,-0.0458461829,0.0595347583
85856.898613,0.0632280616,-0.204756484,0.0581008913,-0.153466299,-0.0288669318,0.0460394621
85856.908640,0.0942976285,-0.197669959,0.014272271,-0.149778619,-0.016222775,0.0280791018
85856.918668,0.197554261,-0.116251978,0.0254588509,-0.126606986,-0.00412190426,0.00684358738
85856.928695,0.228229896,-0.0126478846,0.0163479082,-0.0756527409,0.0139907869,-0.00571534783
85856.938722,0.238887594,0.035998767,0.0136140993,-0.0196531173,0.0393669829,-0.0115545951
85856.948750,0.169238303,0.0330606311,-0.031069092,0.0351683199,0.0535981171,-0.00248360168
85856.958777,0.00395944168,0.0325277664,-0.083033088,0.0945600048,0.0524550863,0.00943644065
85856.968805,-0.177179216,0.0324898821,-0.0246598095,0.116461039,0.0398111977,0.0206052065
85856.978832,-0.400975331,0.0398869335,0.0439490318,0.087337777,0.0213491004,0.0179684088
85856.988860,-0.592210508,0.0791736726,0.129561615,0.0115974806,-0.0068532424,0.00106399506
85856.998887,-0.613591917,0.0899018413,0.406495227,-0.0896191522,-0.0327311791,-0.0167978257
85857.008915,-0.635269715,0.0988259927,0.28985213,-0.144210488,-0.0454957113,-0.0476327017
85857.018942,-0.585701309,0.127778933,-0.0363683675,-0.133091524,-0.0425902009,-0.0894405991
85857.028970,-0.466230661,0.138705729,-0.438754405,-0.014478595,-0.0150152985,-0.13351059
85857.038997,-0.361502348,0.107419378,-0.764259448,0.158271611,0.0299657583,-0.16432257
85857.049025,-0.296629187,-0.0451709749,-0.623019086,0.263734907,0.0634731203,-0.149950549
85857.059052,-0.295304916,-0.206290415,-0.221167885,0.300119042,0.0638909712,-0.100951582
85857.069080,-0.296862045,-0.283294635,0.0248129542,0.28271234,0.0283098053,-0.0300800744
85857.079107,-0.346013651,-0.306597988,0.0766319888,0.224868476,-0.0302800033,0.0478898212
85857.089135,-0.393242289,-0.256709903,-0.0738391432,0.203402609,-0.0884034932,0.11441692
85857.099162,-0.473390871,-0.124909076,-0.196721426,0.213068545,-0.123743907,0.160282418
85857.109190,-0.615223098,-0.0616203889,-0.261303497,0.232213482,-0.129302204,0.181704879
85857.119217,-0.730854095,0.0364059595,-0.21146716,0.228374794,-0.118987769,0.171546519
85857.129245,-0.814367879,0.13672115,0.150180625,0.202295527,-0.102887094,0.148662239
85857.139272,-0.86893782,0.141307692,0.263550399,0.186505646,-0.0864513963,0.124949187
85857.149300,-0.905582959,0.139965803,0.201539056,0.157411143,-0.0739377365,0.101708852
85857.159327,-0.892987535,0.179347098,0.22888299,0.138776481,-0.0628094524,0.0737123713
85857.169355,-0.840463932,0.21192696,0.222746095,0.114524923,-0.0492012314,0.0519330353
85857.179382,-0.817450648,0.248897604,0.208138308,0.0759349242,-0.0504012555,0.0287227873
85857.189410,-0.835076613,0.308762765,0.2153554,0.0232738443,-0.0660875365,-0.0174042284
85857.199437,-0.82790979,0.318051841,0.227363818,-0.0193519127,-0.0704857484,-0.0524247959
85857.209465,-0.748773783,0.364007025,0.307061624,-0.0721221864,-0.0498662256,-0.0775509179
85857.219492,-0.670360975,0.431080144,0.27494273,-0.128306091,-0.0284389611,-0.0858884752
85857.229520,-0.585925071,0.440563135,0.0788479113,-0.172921225,-0.0292158052,-0.0876429677
85857.239547,-0.517245685,0.414087472,-0.00328559754,-0.237417668,-0.0509828888,-0.088702105
85857.249575,-0.467078363,0.386577168,-0.0808083977,-0.278589875,-0.0772238076,-0.0886174217
85857.259602,-0.371732066,0.339298152,-0.293003288,-0.255926907,-0.0934374034,-0.0883806646
85857.269630,-0.23372959,0.339533312,-0.699641138,-0.13982825,-0.0819160342,-0.102507934
85857.279657,-0.18320381,0.339102739,-1.05769587,0.0460228324,-0.051719252,-0.115340911
85857.289685,-0.171596813,0.254087409,-1.1854402,0.255114526,-0.0165836345,-0.105097592
85857.299712,-0.129296059,0.179881004,-1.04419458,0.430147588,0.0087137334,-0.0725060925
85857.309740,-0.110955516,0.160647183,-0.651222267,0.506201625,0.00246995199,-0.0252288599
85857.319767,-0.139359042,0.0686217739,-0.233512403,0.487390131,-0.0350446664,0.0454327911
85857.329795,-0.158303543,-0.0403872431,0.0759340696,0.400208354,-0.0911822319,0.127198488
85857.339822,-0.144186243,-0.0768153643,0.326001302,0.278178841,-0.152459189,0.200720385
85857.349850,-0.208086834,-0.0605445444,0.559569819,0.132935628,-0.204360723,0.242474481
85857.359878,-0.328496041,0.0845574754,0.768232443,0.00270039216,-0.223468915,0.247571513
85857.369905,-0.385703053,0.181362,0.859544115,-0.109042652,-0.205785781,0.221112207
85857.379933,-0.417981813,0.290148757,0.794172356,-0.168189064,-0.157667264,0.177097082
85857.389960,-0.339513366,0.363436203,0.631308775,-0.182763472,-0.102063909,0.131142899
85857.399988,-0.252902675,0.305579988,0.220284088,-0.121585079,-0.0460571051,0.102625772
85857.410015,-0.00554068299,0.116918315,0.0326776962,-0.0755573958,-0.0124280369,0.13222973
85857.420043,0.266382024,-0.380745613,0.0694938075,-0.0679527447,-0.0182608925,0.229657754
85857.430070,0.403126554,-0.696696609,0.0846808552,-0.0979194269,-0.0663826168,0.362067193
85857.440098,0.373122023,-0.734021181,0.00112286655,-0.145911187,-0.155817434,0.47478044
85857.450125,0.0742140592,-0.496810215,-0.305331439,-0.130257919,-0.243999749,0.511025488
85857.460153,-0.437221606,0.0849162349,-0.5053975,-0.0551011227,-0.274470031,0.454565972
85857.470180,-0.879458191,0.517982512,-0.397658425,0.0409907885,-0.234002247,0.335902959
85857.480208,-1.11455764,0.880344107,-0.0801063869,0.111552566,-0.143348768,0.191369489
85857.490235,-1.17027792,0.994336835,0.103199093,0.15866895,-0.0527344495,0.0447337106
85857.500263,-1.02739162,0.909134514,0.32240883,0.126190379,-0.00169176981,-0.0614848658
85857.510290,-0.661707494,0.491016544,0.464741664,0.0344135799,0.0144219529,-0.0993028209
85857.520318,-0.405235874,0.0595372306,0.321056831,-0.0802714601,0.00573525392,-0.084584862
85857.530345,-0.301774185,-0.192258346,0.087105452,-0.200051382,-0.0202579964,-0.0526330546
85857.540373,-0.215298829,-0.256278435,-0.0589244827,-0.328024536,-0.0613670871,-0.0326644108
85857.550400,-0.228569778,-0.190383858,-0.322821503,-0.342930496,-0.0805157423,-0.0445026904
85857.560428,-0.259153625,-0.24023994,-0.756919607,-0.233187765,-0.0390527248,-0.0495637655
85857.570455,-0.171644981,-0.368991133,-1.02172439,-0.0815383941,0.0247585531,-0.0217462815
85857.580483,-0.0259282768,-0.462890849,-0.961515128,0.0443108752,0.049317956,0.0416840911
85857.590510,0.0393195637,-0.596498962,-0.731751848,0.114669465,0.0152049949,0.152252406
85857.600538,-0.0660301865,-0.705400724,-0.496865234,0.159681678,-0.0576617569,0.27589047
85857.610565,-0.309026019,-0.584144179,-0.10366788,0.159610033,-0.132423088,0.383203894
85857.620593,-0.671240388,-0.303781378,0.281631999,0.106225111,-0.187028542,0.436652988
85857.630620,-1.00664606,-0.0125777877,0.570346649,-0.00367582473,-0.220503941,0.422998965
85857.640648,-1.33154306,0.230979706,0.61559975,-0.138146281,-0.263773382,0.335873932
85857.650675,-1.53903605,0.353991388,0.327768312,-0.173380971,-0.288726658,0.20609194
85857.660703,-1.33885528,0.315019451,0.248414789,-0.162048683,-0.261933655,0.0792586282
85857.670730,-0.95341855,0.292886895,0.171254977,-0.0881486312,-0.20069854,-0.0395923927
85857.680758,-0.576286378,0.297100129,-0.0308949045,0.0534005091,-0.137545675,-0.146979302
85857.690785,-0.307790961,0.31957379,-0.056837155,0.236303225,-0.0875312388,-0.232044131
85857.700813,-0.279901102,0.250774266,0.230145557,0.377744496,-0.0561978184,-0.296691537
85857.710840,-0.340191192,0.19200523,0.569933392,0.419159323,-0.0459228083,-0.338456571
85857.720868,-0.389000414,-0.00483164881,0.999036757,0.378665686,-0.0479334965,-0.34813875
85857.730895,-0.433047974,-0.194183524,1.23075292,0.260205358,-0.0368600711,-0.320265859
85857.740923,-0.428096672,-0.3967096,1.37335347,0.0500459932,-0.0461329333,-0.263056904
85857.750950,-0.563723724,-0.763805421,1.02513215,-0.127279788,-0.102769047,-0.215537325
85857.760978,-0.589900149,-1.15534872,0.486075544,-0.295356929,-0.163946658,-0.159934774
85857.771005,-0.369151877,-1.38747771,0.211864051,-0.435444266,-0.199780285,-0.0859545618
85857.781033,-0.122083854,-1.46179178,-0.0919698432,-0.518888593,-0.211947203,0.00258648908
85857.791060,0.0278863794,-1.25496777,-0.544441808,-0.528185666,-0.212350145,0.0670107529
85857.801088,0.0115867034,-0.92242245,-1.04162853,-0.471941024,-0.217111871,0.0857868344
85857.811115,-0.158158837,-0.566050523,-1.27525082,-0.361282706,-0.231287345,0.043505691
85857.821143,-0.399469529,-0.120145972,-1.03205757,-0.256784767,-0.232467651,-0.0574960262
85857.831170,-0.563776368,0.262357042,-0.461557189,-0.159092575,-0.189632043,-0.175568596
85857.841198,-0.637625046,0.547418632,0.257354467,-0.120635197,-0.100345299,-0.286807746
85857.851225,-0.724594743,0.643837344,0.849224966,-0.154909819,-0.0197023898,-0.381126553
85857.861253,-0.705975675,0.509119918,1.05784843,-0.201841101,0.0338314064,-0.439599693
85857.871280,-0.574670504,0.367952,1.12911977,-0.267351925,0.0701425448,-0.463914633
85857.881308,-0.379325334,0.199553325,1.29194477,-0.382742703,0.10196466,-0.443399757
85857.891335,-0.191398021,0.0102592359,1.14513742,-0.523685455,0.119769491,-0.385122091
85857.901363,0.187788489,-0.0504554181,0.726091338,-0.624502897,0.11274673,-0.273702085
85857.911390,0.717260527,-0.137064246,0.266016497,-0.671074688,0.0805749446,-0.106659845
85857.921418,1.27259855,-0.399704763,-0.112134679,-0.686017156,0.0162098054,0.0975569412
85857.931445,1.48542239,-0.6096594,-0.476335656,-0.701209128,-0.094916448,0.286578268
85857.941473,1.3704443,-0.65116703,-0.697087946,-0.675637186,-0.214585334,0.418334961
85857.951500,1.09683691,-0.456598105,-0.630148499,-0.587247968,-0.275407135,0.480769575
85857.961528,0.620568843,-0.102710798,-0.351239204,-0.5151245,-0.257057667,0.444214493
85857.971556,0.0354574266,0.313242504,-0.204079973,-0.406538576,-0.195854515,0.314025879
85857.981583,-0.4941673,0.816584094,-0.261081378,-0.242538467,-0.100584187,0.101517864
85857.991611,-0.709993605,1.14889304,-0.23868133,-0.0846252665,0.00649565924,-0.128100678
85858.001638,-0.647302317,1.13953792,-0.12046587,0.0486089513,0.101322308,-0.323609442
85858.011666,-0.495092196,0.868781387,0.169416655,0.129941896,0.153885111,-0.439276665
85858.021693,-0.284841882,0.591355316,0.510031589,0.125291213,0.179684475,-0.466037154
85858.031721,0.0371163363,0.460785182,0.771526809,0.0535983816,0.191516638,-0.413001657
85858.041748,0.291154847,0.38180926,0.680558836,-0.00615362963,0.170709625,-0.314998657
85858.051776,0.411782812,0.278570785,0.410917719,-0.0162094589,0.115398444,-0.214055002
85858.061803,0.462035583,0.256579391,0.108415367,0.0352880843,0.0507539324,-0.149615824
85858.071831,0.359440338,0.26025691,-0.0358434668,0.154926345,-0.00711256173,-0.141217813
85858.081858,0.187399216,0.177160255,0.0135445412,0.318802625,-0.0342323296,-0.191397101
85858.091886,0.00721281746,-0.0232657248,0.154720022,0.488002032,-0.0217916388,-0.292408109
85858.101913,-0.2532147,-0.154288937,0.249713596,0.663671553,0.0163437612,-0.414524704
85858.111941,-0.408967754,-0.283228182,0.514539422,0.811926305,0.0843209475,-0.500995994
85858.121968,-0.359294902,-0.418266913,1.17870359,0.857279122,0.157003134,-0.511956513
85858.131996,-0.157010964,-0.53761083,1.90540049,0.764665306,0.186340526,-0.427361935
85858.142023,0.131236909,-0.657820935,2.28937292,0.58043927,0.146233842,-0.260965258
85858.152051,0.449264401,-0.758375797,2.34652864,0.348649472,0.061085131,-0.0534091368
85858.162078,0.606809563,-0.781218255,2.03884625,0.108024873,-0.0379660837,0.145721808
85858.172106,0.567810336,-0.626511896,1.39470605,-0.0889140218,-0.118178628,0.281512409
85858.182133,0.61851929,-0.223596245,0.842783534,-0.236457944,-0.142454684,0.344735593
85858.192161,0.444562398,0.0916948256,0.481100094,-0.372568369,-0.129645675,0.318735957
85858.202188,0.163419918,0.242610158,0.0969599065,-0.439670712,-0.0943569168,0.2543841
85858.212216,0.0131823934,0.338322512,-0.535787377,-0.413526177,-0.04335206,0.146306634
85858.222243,-0.347196833,0.386239717,-1.19604694,-0.311122864,0.00143618556,0.0115480265
85858.232271,-0.686088121,0.368107555,-1.33897248,-0.265306354,0.0437463559,-0.103614248
85858.242298,-0.930089696,0.393230379,-0.890031023,-0.3286286,0.0599096119,-0.191926003
85858.252326,-1.07379528,0.544735969,-0.368036025,-0.442705899,0.0504205041,-0.256044
85858.262353,-0.900513985,0.683810312,0.0239157131,-0.576173484,0.0604552962,-0.284435153
85858.272381,-0.476458077,0.683615155,0.107492406,-0.758047402,0.0700397491,-0.275960982
85858.282408,-0.155927772,0.63152103,-0.565247865,-0.858488262,0.0256160907,-0.239265025
85858.292436,0.191751949,0.540461579,-1.86444772,-0.601457238,0.0226384103,-0.223821625
85858.302463,0.665031816,0.60509158,-2.06706171,-0.399458587,0.0414693542,-0.205662057
85858.312491,0.882953048,0.460886961,-1.60025727,-0.0254287906,0.0576461926,-0.195047766
85858.322519,1.02654954,0.295056421,-1.16028706,0.339737207,0.104989208,-0.207013607
85858.332546,0.822188855,0.124694666,-0.208907539,0.60601145,0.183112502,-0.240461051
85858.342574,0.465549254,-0.167710217,0.429859736,0.844336152,0.296015114,-0.257689297
85858.352601,0.385239782,-0.45039209,1.01178518,0.980195701,0.414169967,-0.213360995
85858.362629,0.2399601,-0.849168048,1.28524673,1.0332942,0.478262663,-0.0887471512
85858.372656,0.0616743979,-1.32126176,1.3531331,0.926925063,0.460915089,0.133934662
85858.382684,-0.164534911,-1.77094745,1.34746675,0.593857348,0.367844284,0.454623193
85858.392711,-0.464472821,-1.95264506,0.803807615,0.143108293,0.198487729,0.819285274
85858.402739,-0.609350516,-1.66823,-0.500353076,-0.249844581,-0.0410990268,1.12246072
85858.412766,-0.757165544,-0.905570245,-2.2560768,-0.479293764,-0.307448953,1.2365731
85858.422794,-0.662457655,0.0972583415,-3.27972777,-0.523176789,-0.513830066,1.15552759
85858.432821,0.0332189087,0.998849929,-3.19390593,-0.377203614,-0.557539225,0.934934139
85858.442849,0.957657283,1.83671654,-1.94804604,-0.158626258,-0.414177775,0.669062495
85858.452876,1.79605106,2.54966549,-0.270941678,0.0630480796,-0.137881234,0.432790339
85858.462904,2.19566807,2.95356222,1.03705698,0.209779471,0.172033757,0.24206619
85858.472931,1.84460422,2.68638603,1.61512809,0.224795967,0.421007097,0.13595067
85858.482959,0.678952789,2.17635927,1.65568339,0.118694566,0.516126156,0.0953824669
85858.492986,-0.959044061,1.73626557,0.614931056,0.0653431937,0.466409206,0.0291270204
85858.503014,-2.09061692,1.36343969,-0.870426159,0.0557337031,0.328793824,-0.0563790947
85858.513041,-2.36944906,0.712033221,-1.99092715,0.0728359967,0.171597525,-0.128430381
85858.523069,-1.81197636,0.0921728915,-2.56721663,0.11286597,0.0372655541,-0.141232461
85858.533096,-0.844277938,-0.664476739,-2.98137728,0.154230461,-0.0896282047,-0.0806705877
85858.543124,0.04723831,-1.26931208,-3.30980435,0.230051979,-0.21494326,-0.032103315
85858.553151,0.555393483,-1.31574022,-3.35674496,0.316731215,-0.322268367,-0.0518208295
85858.563179,0.602730733,-1.08464496,-2.48900994,0.370333999,-0.389571786,-0.13256681
85858.573206,0.563633635,-0.760834954,-0.817136467,0.343773305,-0.336587548,-0.224742383
85858.583234,0.555154487,-0.564113491,1.00062958,0.197883189,-0.177043438,-0.288399398
85858.593261,0.381397903,-0.491387387,2.06436473,0.017135255,-0.00824669655,-0.310437053
85858.603289,0.0518044946,-0.357561392,2.11968563,-0.112514347,0.0872555897,-0.300366044
85858.613317,-0.282660008,-0.317705986,1.78670338,-0.193086699,0.102163434,-0.244170949
85858.623344,-0.427582877,-0.478026057,1.38119541,-0.210239574,0.0705471858,-0.122500166
85858.633372,-0.345675468,-0.53227177,0.859714211,-0.175260291,0.0031795965,0.0421010293
85858.643399,-0.154650683,-0.522374865,0.395692678,-0.129742876,-0.0896440893,0.22595875
85858.653427,0.0981757669,-0.518433762,-0.108326519,-0.0458152145,-0.203259066,0.391756743
85858.663454,0.302006295,-0.404322888,-0.505827123,0.0657139793,-0.31887275,0.494747579
85858.673482,0.25108715,-0.224906341,-0.32121699,0.140712053,-0.418209463,0.50312376
85858.683509,0.076268818,-0.12984562,0.380939345,0.146333978,-0.46293804,0.423591644
85858.693537,-0.05074514,-0.106025476,1.17304659,0.107778341,-0.429298848,0.273563266
85858.703564,-0.408361276,-0.0480073673,1.90619895,-0.0147944475,-0.347903877,0.0576821193
85858.713592,-0.809302778,0.0489666043,2.35091022,-0.156343862,-0.234310985,-0.17236492
85858.723619,-0.970865286,0.139714906,2.3018963,-0.25542596,-0.118562818,-0.364848644
85858.733647,-0.6216581,-0.0253068021,1.6295687,-0.185924381,-0.02728297,-0.426951945
85858.743674,0.345974634,-0.437394223,0.779433636,-0.159623012,-0.0356423669,-0.394459784
85858.753702,0.683146149,-0.0500623636,0.600907792,-0.0940810069,-0.11972183,-0.320916325
85858.763729,1.58206446,0.237786866,0.485264812,0.0503600538,-0.167198792,-0.206477091
85858.773757,2.26986333,0.385524956,0.585904868,0.234123752,-0.16109404,-0.0729155689
85858.783784,2.30526139,0.601212474,0.894666866,0.377785057,-0.12037617,0.0180513542
85858.793812,1.94696219,0.655831222,1.3569097,0.446804613,-0.058306668,0.0269652195
85858.803839,1.35641154,0.50334612,1.80316235,0.353988379,0.0142556829,-0.0276322439
85858.813867,0.639162996,0.14937804,1.96430042,0.146129981,0.0857682154,-0.112606518
85858.823895,0.0884298325,-0.428483844,1.6986814,-0.127978802,0.141934007,-0.177573264
85858.833922,-0.0716606666,-0.958223685,1.0281816,-0.400557578,0.157252252,-0.203296736
85858.843950,-0.0854016986,-1.16460667,-0.0209580324,-0.563209593,0.118481949,-0.198762983
85858.853977,-0.0419887281,-0.840150409,-0.881356718,-0.632684827,0.0408603959,-0.175403595
85858.864005,0.0803928757,-0.324462658,-1.15219844,-0.612611234,-0.0454878062,-0.144924507
85858.874032,0.174521084,-0.0237964707,-1.01499596,-0.513357639,-0.0935860947,-0.113278434
85858.884060,0.38027763,0.0962752122,-0.282887552,-0.435296118,-0.0824183971,-0.0601941831
85858.894087,0.6229279,0.250870511,0.811132843,-0.424180895,-0.026345538,0.033333905
85858.904115,0.731001468,0.219640018,1.72494572,-0.532110035,0.0414457582,0.178108931
85858.914142,0.735400214,0.25841552,2.03595579,-0.663942873,0.0885626674,0.338476479
85858.924170,0.583404868,0.466047413,1.36965403,-0.6626454,0.0940831378,0.459113955
85858.934197,0.205717072,0.842817875,-0.0198942025,-0.46879068,0.0573781207,0.45986256
85858.944225,-0.390016714,1.31834148,-1.39245506,-0.151466817,0.0147691406,0.29007861
85858.954252,-0.888936944,1.65045279,-2.28555015,0.195978507,0.00497483369,-0.0311705209
85858.964280,-1.09351266,1.58366941,-2.40567699,0.498369277,0.064920187,-0.420506835
85858.974307,-0.948994742,1.21063083,-1.65288353,0.679820538,0.18982777,-0.769540489
85858.984335,-0.510424607,0.575237344,-0.661877517,0.728102624,0.336855024,-0.989067495
85858.994363,0.0776840917,-0.13349574,0.0192576582,0.633541226,0.448282748,-1.042292
85859.004390,0.69721223,-0.755266067,0.464504933,0.418424636,0.485261023,-0.930620968
85859.014418,1.21273591,-1.25270406,0.610503888,0.149184629,0.437194943,-0.686178744
85859.024445,1.57663908,-1.41675904,0.45912324,-0.126099408,0.309858024,-0.376964688
85859.034473,1.67987558,-1.21180104,-0.0287362651,-0.287881911,0.131769523,-0.0826321095
85859.044500,1.45448935,-0.783176184,-0.591053922,-0.31042397,-0.0463820957,0.125502184
85859.054528,0.934193771,-0.209853222,-0.618401947,-0.267088205,-0.152068049,0.211133197
85859.064555,0.269378703,0.317543855,-0.455936426,-0.139526799,-0.144714803,0.193172306
85859.074583,-0.231286325,0.551829434,-0.182278475,-0.0481414869,-0.0406573638,0.121358573
85859.084610,-0.635926717,0.505538296,0.0959779098,-0.0207660533,0.0860286728,0.031251844
85859.094638,-0.954556979,0.252758736,0.120745271,-0.0388587713,0.171470866,-0.0316948965
85859.104665,-1.02406628,-0.149850954,0.0707581283,-0.127510086,0.193717048,-0.0369823389
85859.114693,-0.99038028,-0.3303877,-0.0424812974,-0.229237512,0.15804188,-0.0155971525
85859.124720,-0.963076897,-0.255507743,-0.224443546,-0.300077587,0.0858571604,0.0121364733
85859.134748,-0.786931956,-0.0180632608,-0.272334009,-0.341148585,0.0104897069,0.0116488487
85859.144775,-0.370533687,0.309735884,-0.135187054,-0.313313484,-0.0302081853,-0.0126285283
85859.154803,0.120013139,0.611643851,0.249404969,-0.205450952,-0.00400880817,-0.054126706
85859.164831,0.450128799,0.733630501,0.781184279,-0.103269719,0.0743326023,-0.0857317671
85859.174858,0.519671415,0.548352333,1.13311497,-0.0407054089,0.183839381,-0.0733565837
85859.184886,0.496946957,0.257969457,1.0641145,-0.00908596162,0.280360609,-0.0029095877
85859.194913,0.292771214,-0.073218454,0.667994538,0.00524983415,0.313009351,0.103886373
85859.204941,-0.0876735159,-0.541927122,0.256588158,0.00387164857,0.2713916,0.217129037
85859.214968,-0.40325851,-0.938528147,0.0643202042,-0.0752852187,0.178543687,0.326733023
85859.224996,-0.583068732,-1.29967712,-0.116944125,-0.198823676,0.0577831864,0.436494678
85859.235023,-0.718811045,-1.47199738,-0.429653984,-0.32129845,-0.078528583,0.531853676
85859.245051,-0.817250376,-1.2177574,-0.745558255,-0.39069429,-0.219844967,0.571155012
85859.255078,-0.821323982,-0.860529619,-0.929708369,-0.382757813,-0.331652194,0.555066586
85859.265106,-0.696376875,-0.404296767,-0.831807967,-0.280768871,-0.386070698,0.484493613
85859.275133,-0.479946686,0.0529039803,-0.509862078,-0.126658931,-0.367109776,0.368746519
85859.285161,-0.290649126,0.455406265,-0.0781646052,0.0536277518,-0.291205972,0.215305045
85859.295189,-0.167563374,0.709170233,0.386001889,0.227065846,-0.17827329,0.0440067872
85859.305216,-0.0564343281,0.75460037,0.853082225,0.336953491,-0.0523715466,-0.118181586
85859.315244,0.0238179244,0.467880035,1.29280986,0.356201738,0.0695759282,-0.220385984
85859.325271,-0.0206499208,-0.0687543873,1.36020933,0.318077534,0.145719171,-0.256240398
85859.335299,-0.0162790945,-0.620983927,0.862701118,0.252364308,0.167611942,-0.231748894
85859.345326,0.295958557,-1.15240478,0.379214421,0.210166499,0.165080085,-0.137767002
85859.355354,0.715504916,-1.4407088,0.24218437,0.167006239,0.162641957,0.00270302454
85859.365381,0.883368277,-1.30959821,0.387316479,0.0466494709,0.146186545,0.162770465
85859.375409,0.654811816,-0.944467108,0.363215473,-0.146723717,0.108517736,0.291655719
85859.385436,0.202207183,-0.398224023,0.07315233,-0.341920882,0.0556358807,0.37457937
85859.395464,-0.208638915,0.184629276,-0.289468099,-0.495815665,0.00602172222,0.394872397
85859.405492,-0.364739833,0.651979807,-0.485869792,-0.572149336,-0.0320425704,0.379395694
85859.415519,-0.252968287,0.804800644,-0.5752239,-0.575870514,-0.062116053,0.361273676
85859.425547,0.0787533466,0.844434882,-0.501384172,-0.467758179,-0.0883748233,0.360013485
85859.435574,0.552199217,0.903995543,-0.481117045,-0.234953448,-0.0972993448,0.365891874
85859.445602,1.07993568,1.12722197,-0.382018373,0.0656532571,-0.0701822415,0.356877863
85859.455629,1.25504916,1.42942271,-0.36268005,0.362357914,-0.00631510559,0.331235349
85859.465657,1.08527207,1.60964557,-0.479800117,0.606352448,0.0764873624,0.279303968
85859.475684,0.622107889,1.55287139,-0.827930833,0.783034265,0.142259717,0.205282494
85859.485712,0.11450002,1.2504592,-1.25857032,0.849947035,0.165982097,0.126753867
85859.495739,-0.263696346,0.774340332,-1.61147833,0.822190225,0.136533663,0.0545276068
85859.505767,-0.461928689,0.264404604,-1.69339148,0.676874816,0.0509079695,-0.00617169309
85859.515795,-0.547049835,-0.229877335,-1.5832582,0.461739898,-0.0651613772,-0.0572804175
85859.525822,-0.291933887,-0.472001353,-1.39472593,0.279059291,-0.16018723,-0.0852966011
85859.535850,0.216920512,-0.391650782,-1.00227209,0.141506732,-0.181174532,-0.103212222
85859.545877,0.652682695,-0.0909421076,-0.654021542,0.0703952834,-0.134925023,-0.110505022
85859.555905,0.813062715,0.124229022,-0.376577643,0.0573766828,-0.0644785464,-0.101412721
85859.565932,0.707659974,0.412392687,-0.174926359,0.0550615974,-0.0147717064,-0.0974097252
85859.575960,0.467236623,0.742590418,-0.0784253019,0.0798748359,0.00703777187,-0.108802237
85859.585987,0.130693679,0.971147099,0.024954993,0.137524828,0.0156120853,-0.127660871
85859.596015,-0.181226518,1.07349951,0.289680281,0.138232961,-0.00621012272,-0.132609308
85859.606042,-0.51725533,0.974991937,0.35238019,0.140367478,-0.040558245,-0.139741778
85859.616070,-0.759473237,0.734336165,0.435073671,0.115189679,-0.0769237056,-0.13679418
85859.626098,-0.810043221,0.328093963,0.745735949,0.0228291303,-0.107501321,-0.114960261
85859.636125,-0.705003469,-0.000262011937,0.869151317,-0.0832592249,-0.122048043,-0.070063889
85859.646153,-0.535456099,-0.156879976,0.770199944,-0.159646407,-0.121643774,-0.0247933492
85859.656180,-0.352529572,-0.031894583,0.540737108,-0.222308457,-0.128749087,0.0216615014
85859.666208,-0.183179041,0.170306663,0.128148826,-0.222273305,-0.129337922,0.067731522
85859.676235,-0.165302096,0.425726435,-0.365908365,-0.183589816,-0.115925431,0.0921809375
85859.686263,-0.307435389,0.607305165,-0.641233372,-0.133753017,-0.113440968,0.0802846029
85859.696290,-0.557684554,0.785653826,-0.762345723,-0.0641949847,-0.146421835,0.0149673782
85859.706318,-0.658199559,0.772148156,-0.648456309,0.0279658344,-0.193550989,-0.0757875592
85859.716346,-0.584927073,0.473917562,-0.340284094,0.133183599,-0.230609149,-0.159714937
85859.726373,-0.404843076,0.0798704592,0.127950673,0.257901311,-0.23378177,-0.211855918
85859.736401,-0.0508463536,-0.35078145,0.632032998,0.39297682,-0.204980478,-0.223545849
85859.746428,0.419503908,-0.703866208,1.14899292,0.470044971,-0.147001594,-0.198788047
85859.756456,0.744069039,-0.977666783,1.50922792,0.458485812,-0.0632212088,-0.149925977
85859.766483,0.830751224,-1.26314187,1.55539229,0.393213332,0.0296703801,-0.0710958689
85859.776511,0.756122173,-1.32012983,1.23519061,0.320866942,0.100046277,0.00555230537
85859.786538,0.462385456,-1.13027047,0.870923587,0.185231358,0.130805522,0.0498670377
85859.796566,0.150276742,-0.923937677,0.541571221,-0.0195305776,0.0981101617,0.0509104654
85859.806594,-0.19271073,-0.746218472,0.0991197149,-0.18947807,0.0131100453,0.0197562762
85859.816621,-0.32468989,-0.513925491,-0.262257436,-0.275568485,-0.0680441931,-0.0407632627
85859.826649,-0.210630728,-0.333628399,-0.128612351,-0.305093884,-0.115939014,-0.111206532
85859.836676,-0.00665564023,-0.370658811,0.622710458,-0.333447754,-0.1268657,-0.176810592
85859.846704,0.276180017,-0.555504104,1.40563018,-0.318813682,-0.0810566619,-0.213627189
85859.856731,0.615474004,-0.814346325,2.08980721,-0.294812202,0.0126178935,-0.206809223
85859.866759,0.815183068,-0.985246936,2.62898072,-0.316308975,0.1390962,-0.151395768
85859.876786,0.689701562,-1.01397348,2.57968565,-0.353242218,0.261000544,-0.0537360534
85859.886814,0.48237552,-0.84288641,1.98130417,-0.383982837,0.349586338,0.0430259109
85859.896842,0.190601391,-0.48506454,1.19880296,-0.446784705,0.37511754,0.111315489
85859.906869,-0.326608036,-0.128779305,0.232426362,-0.483175188,0.328206748,0.133249015
85859.916897,-0.764341427,0.17582265,-0.356649538,-0.558297932,0.222961277,0.132351264
85859.926924,-0.811186911,0.268310599,-0.684150139,-0.579835713,0.11055804,0.134550244
85859.936952,-0.75143986,0.295543912,-1.23649819,-0.510198832,0.0229701325,0.139253646
85859.946979,-0.520358009,0.274618686,-1.43837568,-0.398894399,-0.0534370244,0.130683601
85859.957007,-0.268824046,0.295762815,-1.27236445,-0.255094349,-0.115092129,0.0958483815
85859.967035,0.0102941451,0.299491554,-0.902130042,-0.108197331,-0.133143574,0.0345698446
85859.977062,0.249214579,0.381466146,-0.349105699,-0.00721239345,-0.0915516466,-0.0430905968
85859.987090,0.447899981,0.509264039,0.270493934,0.0529223159,0.00130531774,-0.110924236
85859.997117,0.615718334,0.654171838,0.637612844,0.0939520374,0.122378483,-0.147159994
85860.007145,0.829672343,0.728498472,0.609627689,0.14787972,0.247469008,-0.129635602
85860.017172,0.976296371,0.735361636,0.41524435,0.148940459,0.345547646,-0.0653935075
85860.027200,0.84126312,0.580100858,-0.0607680647,0.0981545076,0.378780991,0.0263968669
85860.037227,0.490613114,0.390792338,-0.671461922,0.0848283172,0.358981162,0.123448581
85860.047255,0.136149149,0.307747049,-0.936806218,0.0542163476,0.306892663,0.188057393
85860.057283,-0.216415284,0.32884785,-1.22523153,0.0321701653,0.237120509,0.194969118
85860.067310,-0.552540213,0.437246193,-1.65679807,0.0884251818,0.160321057,0.123222746
85860.077338,-0.783168439,0.497396052,-1.67447167,0.127629042,0.0793700293,-0.0071453806
85860.087365,-0.709334922,0.193995655,-1.47330671,0.184887007,0.0313867889,-0.120321743
85860.097393,-0.533404501,-0.220488452,-1.4153163,0.284505486,0.0287758224,-0.200756937
85860.107420,-0.351382119,-0.457378442,-0.9496166,0.379737198,0.0287225619,-0.249568939
85860.117448,-0.211025262,-0.580928468,-0.370982015,0.468244672,0.00761754205,-0.273841262
85860.127476,-0.112648876,-0.619829131,-0.0540589224,0.557734609,-0.0185490809,-0.269477934
85860.137503,-0.0981079989,-0.585473491,0.0858212574,0.638376951,-0.0385835096,-0.249085307
85860.147531,-0.127833933,-0.559376927,0.299105112,0.717923462,-0.037982434,-0.206237167
85860.157558,-0.138711154,-0.600733166,0.56782736,0.763468564,-0.00617949665,-0.130308598
85860.167586,-0.217379983,-0.680017715,0.645658788,0.807602465,0.0679093823,-0.0579552948
85860.177613,-0.428844421,-0.763840127,0.665589815,0.7409361,0.129350632,0.0233850982
85860.187641,-0.294604257,-0.701293143,0.807414699,0.671886444,0.10197334,0.130592778
85860.197668,-0.17991118,-0.689058807,0.39850189,0.643301427,-0.00333177857,0.21157366
85860.207696,-0.24674786,-0.528217015,0.383838574,0.564698219,-0.114745118,0.220916003
85860.217724,-0.223244564,-0.253371516,0.940769861,0.418563157,-0.177704379,0.199576646
85860.227751,-0.0401428719,-0.0678587719,1.32720663,0.274343938,-0.144905165,0.167513788
85860.237779,0.0160629355,0.0383765655,1.34925597,0.127228782,-0.0515461788,0.146646589
85860.247806,-0.0463374431,-0.000423979299,1.10168991,-0.0277837142,0.0413901508,0.148477226
85860.257834,-0.264206652,-0.160058076,0.429563968,-0.162730873,0.08013089,0.148755014
85860.267861,-0.56332603,-0.15249197,-0.47427697,-0.258384168,0.0337330326,0.120007508
85860.277889,-0.798633646,-0.0191709115,-1.26267951,-0.316985428,-0.0872762129,0.0570802093
85860.287917,-0.812012183,0.222664736,-1.55950382,-0.33682996,-0.243901521,-0.0427816696
85860.297944,-0.345172743,0.512354333,-1.34674019,-0.279893994,-0.355951339,-0.149345666
85860.307972,0.410449152,0.820733177,-0.642479573,-0.206654653,-0.390570313,-0.226861775
85860.317999,1.08618729,1.02918391,0.21904724,-0.153446034,-0.352169394,-0.263468772
85860.328027,1.60897731,1.1253287,0.833047738,-0.131126076,-0.262149483,-0.269114941
85860.338054,1.8702624,1.25416858,1.27321669,-0.15436402,-0.133455694,-0.273737133
85860.348082,1.91165444,1.18818862,1.50380648,-0.165443033,0.00634321943,-0.258336872
85860.358110,1.80189043,0.906179536,1.65945122,-0.149263531,0.140245885,-0.215768367
85860.368137,1.45600384,0.529482286,1.67781689,-0.110822409,0.255427092,-0.150637031
85860.378165,0.870146027,-0.0255742574,1.55964586,-0.0804842114,0.33188805,-0.0497170761
85860.388192,0.35837059,-0.636472442,1.32934365,-0.0663303137,0.365403384,0.0884421319
85860.398220,-0.063284468,-1.00395375,0.935170726,-0.0188623909,0.36784178,0.256500632
85860.408247,-0.506736785,-1.16303066,0.399555198,0.0342341177,0.325874358,0.43286556
85860.418275,-0.872441883,-0.841307909,-0.177080322,0.0522970073,0.23742117,0.55394882
85860.428302,-0.884749795,-0.00520586155,-0.904216785,0.0466276705,0.0768059343,0.518687248
85860.438330,-0.933594563,0.485903475,-1.43313194,-0.0250518434,-0.0847858861,0.436996102
85860.448358,-0.955381301,0.516874916,-1.93738904,-0.00740121165,-0.230691433,0.353337705
85860.458385,-0.533919684,0.616783699,-2.06542388,0.130839497,-0.285443097,0.272162139
85860.468413,0.0410052243,0.719025126,-1.20123048,0.231273681,-0.256652445,0.16739288
85860.478440,0.0418665356,0.634055882,-0.278124283,0.277134925,-0.213489547,0.0611423291
85860.488468,-0.247785441,0.664681103,0.550025746,0.260343164,-0.192921415,-0.0307212807
85860.498496,-0.409960236,0.880717617,0.958617653,0.183110416,-0.169195846,-0.149935544
85860.508523,-0.531530962,1.03707722,0.817862444,0.111613855,-0.126020148,-0.296061337
85860.518551,-0.450143668,1.00744773,0.539532409,0.0727130622,-0.0636100322,-0.434754521
85860.528578,-0.120099238,0.89319884,0.171894444,0.042167142,0.00816721842,-0.542310297
85860.538606,0.335639593,0.509490395,-0.26406887,0.0281192325,0.0680505261,-0.591280222
85860.548633,0.778125111,-0.147817951,-0.560918896,0.00987524725,0.0860995725,-0.567289948
85860.558661,1.14671629,-0.793204388,-0.59269409,-0.0281032939,0.0590855256,-0.489860386
85860.568688,1.37962071,-1.19360853,-0.643418315,-0.063066341,0.0082692178,-0.397239089
85860.578716,1.29159858,-1.25641504,-0.701039899,-0.0536637269,-0.053289406,-0.324795932
85860.588744,1.22396268,-0.898761588,-0.438886507,0.0363053121,-0.10380052,-0.251051128
85860.598771,1.08245424,-0.548564112,0.109699561,0.168379188,-0.127292529,-0.171689734
85860.608799,0.86487722,-0.409578287,0.677795801,0.336825192,-0.164112598,-0.0715183839
85860.618826,0.537126444,-0.52701838,0.840578718,0.411511689,-0.239673406,0.0236845613
85860.628854,0.28271647,-0.828493435,1.06963122,0.38595441,-0.289691299,0.0965537056
85860.638881,0.289448244,-1.43763349,1.52181385,0.228005767,-0.379380435,0.190636262
85860.648909,0.403032263,-1.3248551,1.46316058,0.144317254,-0.467898577,0.230146393
85860.658937,0.396225323,-1.05146786,1.25888479,0.0129387341,-0.554938138,0.225780934
85860.668964,0.378181133,-0.949369859,1.06325292,-0.204430073,-0.624367774,0.216648698
85860.678992,0.280286247,-0.917146994,0.399608974,-0.542654455,-0.702250361,0.212979913
85860.689019,-0.115801568,-0.946380541,-0.609741087,-0.784452975,-0.702610373,0.227631569
85860.699047,-0.487191652,-0.764109372,-1.28302672,-0.832312942,-0.627195239,0.256806761
85860.709074,-0.627938568,-0.213810874,-1.53614515,-0.734897673,-0.483202696,0.223959863
85860.719102,-0.679123397,0.596327953,-1.64645846,-0.576713383,-0.266857356,0.0932697654
85860.729130,-0.71408745,1.421668,-1.23476274,-0.446864009,-0.0359490328,-0.113545462
85860.739157,-0.616031492,1.75311603,-0.408307245,-0.337405413,0.133030936,-0.31156987
85860.749185,-0.471994339,1.51980674,0.0241319862,-0.267654032,0.196231201,-0.447781503
85860.759212,-0.0854972131,0.977071155,0.107355628,-0.27667737,0.129963234,-0.467117637
85860.769240,0.354555342,0.390257501,0.0360001187,-0.310346097,0.000131473527,-0.402257413
85860.779267,0.460759426,0.102602808,-0.0874263545,-0.341956764,-0.114394844,-0.309305102
85860.789295,0.397059801,-0.107419049,0.104086397,-0.374863327,-0.166770428,-0.215610579
85860.799323,0.241202081,-0.162706052,0.427289593,-0.369366825,-0.142521814,-0.130098343
85860.809350,-0.0192587907,-0.0381963866,0.555825372,-0.397088736,-0.0832606256,-0.0691002384
85860.819378,-0.159251491,-0.0366267992,0.384616572,-0.425034344,-0.00941356178,0.000748084858
85860.829405,0.0464398257,-0.355521411,0.249533564,-0.430071175,0.0606086664,0.123309687
85860.839433,0.311377441,-0.754273257,0.323420638,-0.417585224,0.119666658,0.300642401
85860.849461,0.540031079,-1.01655714,0.492260955,-0.406864136,0.179001614,0.496242255
85860.859488,0.629233576,-1.03291711,0.751837773,-0.468232423,0.235340521,0.664037108
85860.869516,0.531006974,-0.763493359,1.05647772,-0.590935707,0.292870134,0.775773525
85860.879543,0.245305059,-0.47833662,1.08162035,-0.741561711,0.356078655,0.831030071
85860.889571,-0.00285896963,-0.279309839,0.966202409,-0.84105128,0.425814867,0.851714611
85860.899598,-0.309735738,-0.0654138447,0.575874473,-0.85793519,0.492721468,0.826848388
85860.909626,-0.590301679,0.260468361,0.0208802909,-0.835578501,0.587727904,0.747284055
85860.919654,-0.784824243,0.442072444,-0.171686354,-0.806252539,0.634253025,0.631213129
85860.929681,-0.822318985,0.443694931,-0.684033234,-0.738709211,0.629496932,0.486906797
85860.939709,-0.470344891,0.670001786,-1.10329851,-0.618064523,0.571932971,0.348225355
85860.949736,-0.32956652,0.798440827,-1.31361592,-0.550801098,0.490047634,0.201444179
85860.959764,-0.11769488,0.724348878,-1.45821143,-0.46051538,0.3205055,0.106497154
85860.969791,0.39819666,0.549983806,-1.91604814,-0.345567226,0.0952979326,0.0566411763
85860.979819,0.867817511,0.409335711,-1.84782333,-0.216440931,-0.134278268,0.0387860164
85860.989847,1.25782856,0.150568747,-1.21656307,-0.161504716,-0.306565344,0.0272273626
85860.999874,1.78447314,0.117083826,-0.744795454,-0.0671883225,-0.39739272,-0.0125448164
85861.009902,2.11564673,0.00434080568,-0.289456409,0.132216126,-0.396412939,-0.0354799628
85861.019929,2.29288254,-0.0437188763,0.168354579,0.368386865,-0.320453465,-0.0452561602
85861.029957,2.3656653,0.0177424313,0.442868855,0.593770385,-0.184093237,-0.0521657318
85861.039984,2.29077519,0.0811132258,0.481441454,0.766249776,-0.016354559,-0.0705633759
85861.050012,2.17465451,0.174933373,0.36700902,0.853182018,0.155349284,-0.109847136
85861.060040,2.05567478,0.288427066,0.0606020605,0.854816914,0.265869945,-0.142005071
85861.070067,1.43346161,0.416635659,-0.286537306,0.711036563,0.307152122,-0.165394008
85861.080095,0.927870048,0.267054607,-0.508721091,0.536008596,0.309577733,-0.135243833
85861.090122,0.511617032,-0.0808747409,-0.615124533,0.428138882,0.274124146,-0.0334005654
85861.100150,0.338922231,-0.351179875,-0.482641478,0.278632462,0.187627867,0.100184128
85861.110178,-0.619793767,-0.469724129,-0.280752878,-0.0589437112,0.0383590199,0.199180752
85861.120205,-0.809281662,-0.381410762,-0.380963311,-0.15892598,-0.113468066,0.256380111
85861.130233,-0.576991421,-0.502711914,-0.106725514,-0.156740591,-0.216474876,0.255973727
85861.140260,-0.580018368,-0.580901507,0.443188004,-0.108565323,-0.209873691,0.211378828
85861.150288,-0.830745233,-0.656346624,1.32662679,-0.0869524404,-0.103582144,0.143294051
85861.160315,-1.29275287,-0.465887327,1.73755971,-0.0646857545,0.0412205867,0.0350823551
85861.170343,-1.59581271,-0.00753784816,1.34978438,0.0243242793,0.16664508,-0.0990964845
85861.180371,-1.81952122,0.550296379,0.315021643,0.277207941,0.229409128,-0.227213711
85861.190398,-1.87377245,0.980047686,-0.581456657,0.693110585,0.256732106,-0.296153635
85861.200426,-1.89552309,1.03653975,-0.521865235,1.19937801,0.29603076,-0.262516558
85861.210453,-1.79734431,1.05009182,-0.209183433,1.51590002,0.299932837,-0.230072871
85861.220481,-1.7969217,1.48527977,-0.387719799,1.48267794,0.361168236,-0.305064291
85861.230509,-1.12036962,1.60012692,-0.0333364524,0.987450838,0.358819574,-0.415573508
85861.240536,-0.0850509489,0.779471484,-1.03234398,0.682730675,0.279336751,-0.526030481
85861.250564,0.0979339575,-0.463989275,-0.919897754,0.635843813,0.258797377,-0.46516794
85861.260591,-0.218079473,-1.48020202,0.95336397,0.499297172,0.333585054,-0.273458689
85861.270619,-0.388054292,-1.81306211,1.93915137,0.183680907,0.432670891,-0.0826426744
85861.280646,-0.404517753,-1.64202048,2.20973298,-0.216179684,0.47003904,0.0402012169
85861.290674,-0.318236951,-1.22973206,1.67928346,-0.485143751,0.383442909,0.109669514
85861.300702,-0.0509752407,-0.632780894,0.544677955,-0.55964303,0.156166345,0.153596759
85861.310729,0.267254733,-0.21609672,-0.505130958,-0.516709447,-0.171252534,0.227341816
85861.320757,0.410782476,-0.0598737462,-0.918317791,-0.482419878,-0.452271938,0.321643293
85861.330784,0.426964416,0.0218994049,-0.128987614,-0.493215799,-0.528835118,0.426007777
85861.340812,0.513548292,0.198452196,0.95484281,-0.551042914,-0.460123211,0.483778119
85861.350839,0.58605257,0.452165456,1.51174195,-0.615109503,-0.348896831,0.473214179
85861.360867,0.594549874,0.706306295,1.4207956,-0.637182593,-0.240659565,0.400379628
85861.370895,0.55961059,1.01026279,1.16763041,-0.605922103,-0.128842756,0.281479627
85861.380922,0.470721323,1.21356228,0.882844911,-0.522237897,-0.0185271651,0.159508437
85861.390950,0.271221426,0.802147573,0.400480497,-0.314161092,0.0464020334,0.106694229
85861.400977,0.0684762462,0.661967533,0.0869546454,-0.207223207,0.0373289101,0.0811076388
85861.411005,-0.0882195142,1.29130837,-0.466245054,-0.0403311439,-0.0249693524,0.0660538524
85861.421033,-0.173234917,1.07007801,-0.542421116,0.205323622,-0.108097799,0.115713552
85861.431060,-0.0529284023,0.629437282,-0.173294374,0.399976999,-0.128681108,0.191225886
85861.441088,0.193899958,0.418524687,0.00457914448,0.517219722,-0.0608200282,0.261639059
85861.451115,0.316349676,0.355653367,-0.143196173,0.623202324,0.0103913015,0.301493526
85861.461143,0.330651977,0.514327752,-0.360049702,0.625106752,0.095545873,0.291286439
85861.471171,0.334201194,0.527948866,-0.294573898,0.543747485,0.172897115,0.233294517
85861.481198,0.213554524,0.554463071,-0.433121368,0.41560176,0.13530767,0.115937263
85861.491226,0.073319832,0.420988958,-0.639984834,0.347442955,-0.0186259691,-0.0054080775
85861.501253,0.0276632291,-0.103977896,-0.357967635,0.343052208,-0.202517778,-0.037559621
85861.511281,0.332880978,-0.249296175,0.270679812,0.359581649,-0.277544349,-0.00261149276
85861.521308,0.869815041,-0.139647175,0.996800376,0.322328538,-0.19964689,0.0629406199
85861.531336,1.19137266,-0.286328559,1.49335523,0.243410558,-0.0177860074,0.160522833
85861.541364,1.27533762,-0.512964903,1.39770582,0.175600871,0.180120677,0.26527667
85861.551391,1.02650958,-0.476742045,1.02960784,0.0752854645,0.32598868,0.323477924
85861.561419,0.45652219,-0.470917759,0.604267039,-0.0428100154,0.396478802,0.333197951
85861.571446,-0.043871053,-0.590454202,-0.0137801035,-0.195967615,0.386135101,0.316413641
85861.581474,-0.436400938,-0.530641319,-0.852540958,-0.36533609,0.290346086,0.278508961
85861.591502,-0.792973501,-0.32418227,-1.66479491,-0.482399076,0.130587846,0.239575684
85861.601529,-0.978670553,-0.100334863,-1.93096456,-0.541388631,-0.0653286651,0.21982488
85861.611557,-0.877127118,0.150531192,-1.63299809,-0.581136584,-0.220014378,0.234592378
85861.621584,-0.523435626,0.345535147,-1.01383393,-0.522203445,-0.321676046,0.27200979
85861.631612,-0.0721061271,0.739251921,-0.430529598,-0.40708673,-0.393460751,0.266004354
85861.641640,0.22537184,1.02095808,0.297395385,-0.297973037,-0.406809568,0.242256954
85861.651667,0.38429304,0.982624478,0.915555925,-0.195574224,-0.34132722,0.233263195
85861.661695,0.461628172,0.763112908,1.27591835,-0.098565124,-0.235309452,0.226241767
85861.671722,0.273054688,0.467824067,1.27730834,-0.018040983,-0.136629209,0.193244398
85861.681750,-0.113048972,0.168072913,0.965536054,0.0296748728,-0.0725080147,0.148713946
85861.691778,-0.513965494,-0.0386590357,0.332169177,0.0630706474,-0.0671175048,0.0925612077
85861.701805,-0.878791398,-0.188957368,-0.533133063,0.090115048,-0.180437952,0.0323607177
85861.711833,-0.913921383,-0.261139684,-0.994946273,0.0992946997,-0.334825397,-0.0198870413
85861.721860,-0.688437022,-0.338483475,-0.97887309,0.0989980176,-0.493473887,-0.0342350863
85861.731888,-0.419749261,-0.273677898,-0.605406857,0.0493340604,-0.632853329,-0.0246751383
85861.741915,-0.294924958,-0.0521498009,-0.0608522358,-0.0335112847,-0.709204555,-0.00525510218
85861.751943,-0.29481536,0.26961379,0.364848627,-0.146256745,-0.722103894,0.00797122158
85861.761971,-0.471601686,0.333175212,0.503217817,-0.31596908,-0.684823871,0.0266240016
85861.771998,-0.671628218,0.10138123,0.496290064,-0.491166204,-0.603743672,0.065700829
85861.782026,-0.682088092,0.0461875315,0.256615631,-0.589618444,-0.506391525,0.106969707
85861.792053,-0.449181216,0.249407599,0.0533995818,-0.552864432,-0.41151911,0.128383383
85861.802081,-0.136764021,0.411326666,-0.135503864,-0.360178888,-0.367857635,0.13081938
85861.812109,0.098116858,0.548747323,-0.140423201,-0.0945213735,-0.354060322,0.11954622
85861.822136,0.150540398,0.544684531,-0.021643092,0.180961862,-0.337711722,0.11243505
85861.832164,0.227945599,0.453050642,0.17432021,0.462642014,-0.285410434,0.103501737
85861.842191,0.302254187,0.283837473,0.45543023,0.69233489,-0.182556227,0.0796153173
85861.852219,0.310376374,0.0670330434,0.535763996,0.862382233,-0.0480130576,0.0467271395
85861.862247,0.229967022,-0.100278018,0.346390594,0.979344249,0.0803286731,0.00733472593
85861.872274,0.0512791921,-0.236730342,0.0785953978,0.999433339,0.163273886,-0.0333613046
85861.882302,-0.120532798,-0.467364122,-0.38430736,0.972701788,0.154075593,-0.0572213605
85861.892329,-0.19504794,-0.724102064,-0.79834175,0.985488415,0.0739756972,-0.0486997813
85861.902357,0.0110782972,-0.85716365,-0.705087128,0.992250741,-0.026256362,-0.015888039
85861.912385,0.304341368,-0.836198749,-0.145542443,0.933453202,-0.0836187229,0.000170822255
85861.922412,0.479205585,-0.764559016,0.652087944,0.811471105,-0.0709748268,0.0133609269
85861.932440,0.561853181,-0.809562963,1.50550042,0.644604862,-0.0109442528,0.0402641818
85861.942467,0.591682539,-0.974513579,2.04201728,0.457755923,0.0492229462,0.0759018064
85861.952495,0.510273143,-1.25569856,2.1808389,0.220952958,0.082643494,0.128048092
85861.962523,0.339718314,-1.50332337,2.18514624,-0.0690042973,0.0913951695,0.202816069
85861.972550,0.0922948008,-1.56743578,1.89358263,-0.336336136,0.0980386958,0.281852573
85861.982578,-0.0839933113,-1.18076052,1.01433662,-0.521056175,0.115907967,0.322261781
85861.992605,-0.255320221,-0.473871458,-0.302681217,-0.644559205,0.138741374,0.283492535
85862.002633,-0.657353902,0.199564687,-1.72806415,-0.675014615,0.130290896,0.16669108
85862.012661,-0.921088863,0.571029407,-2.94850318,-0.62139076,0.0728949904,0.0273790061
85862.022688,-0.808048029,0.720249626,-3.12815131,-0.4837493,0.0982791781,-0.124543153
85862.032716,-0.581224054,0.822812029,-2.30834358,-0.435453653,0.100589737,-0.285022855
85862.042743,-0.185225087,0.77502941,-1.24862,-0.460101217,0.0495792776,-0.416607231
85862.052771,0.422926502,0.620907135,-0.736636113,-0.482318103,-0.0408699289,-0.498368651
85862.062799,0.95210564,0.403754988,-0.447275565,-0.508319378,-0.11569383,-0.520619094
85862.072826,1.15300223,0.177430231,-0.105979664,-0.49857831,-0.0801339746,-0.495333463
85862.082854,1.07586149,0.0250202403,-0.113328273,-0.364641279,0.0288308579,-0.444335014
85862.092881,0.807733556,0.120260191,-0.403598921,-0.144615442,0.126626924,-0.408326387
85862.102909,0.4472535,0.300434972,-0.997688265,0.12473242,0.174880475,-0.40696767
85862.112937,0.159298801,0.358829586,-1.4329484,0.403556049,0.168617517,-0.405511439
85862.122964,0.0516809778,0.208745626,-1.49897424,0.619751453,0.122789048,-0.386610985
85862.132992,0.224092029,-0.0769701347,-1.10032739,0.719770193,0.0643619522,-0.339949489
85862.143019,0.579009045,-0.422936768,-0.50710255,0.735524952,-0.00779506471,-0.261479437
85862.153047,0.869376065,-0.741593881,0.0732049369,0.687575817,-0.106815919,-0.16010195
85862.163075,1.07211924,-1.00121753,0.572166851,0.582185209,-0.225928202,-0.047163669
85862.173102,1.17952835,-1.19906877,1.13211661,0.443926901,-0.279267848,0.0594711639
85862.183130,1.1390673,-1.19903764,1.76565475,0.298768669,-0.226937011,0.128607616
85862.193157,0.728840417,-1.04947062,2.02267312,0.170336917,-0.103859544,0.132955238
85862.203185,0.143277129,-1.00838575,1.53395553,0.0775145665,0.0109591819,0.0972161442
85862.213213,-0.469163243,-0.921598858,0.737766578,0.0178706776,0.0584790297,0.0388886556
85862.223240,-1.05351938,-0.539156927,0.190870362,-0.0581236891,0.0290265996,-0.0525786728
85862.233268,-1.44437434,-0.014118834,0.0444809468,-0.145829573,-0.0497550331,-0.165227473
85862.243295,-1.44289243,0.281492627,0.220931739,-0.234755456,-0.128564626,-0.249387085
85862.253323,-1.08178124,0.351859272,0.516533811,-0.356101573,-0.177564397,-0.276436538
85862.263351,-0.688742289,0.301816928,0.657468468,-0.521380842,-0.196955144,-0.242097467
85862.273378,-0.352097537,0.209647397,0.555641832,-0.630962729,-0.221013874,-0.140987903
85862.283406,0.0200250624,0.183728528,0.506716181,-0.702975392,-0.248957872,-0.0345514715
85862.293433,0.374066866,0.314096089,0.498897616,-0.741200268,-0.262956262,0.0561171807
85862.303461,0.749964965,0.413310314,0.577599397,-0.740262806,-0.253160357,0.145804182
85862.313489,1.13415279,0.468049473,0.795668732,-0.715673089,-0.226532206,0.236412644
85862.323516,1.34978438,0.54711585,1.06753922,-0.66699636,-0.18616268,0.316934913
85862.333544,1.48790047,0.657223188,1.31781629,-0.576973796,-0.122312583,0.379909873
85862.343571,1.56454795,0.86177297,1.45831782,-0.462055176,-0.0190221518,0.402726799
85862.353599,1.52087277,1.04159609,1.51045542,-0.334570736,0.120604984,0.408613712
85862.363627,1.29947633,1.13058692,1.24267892,-0.20523724,0.247378901,0.410477906
85862.373654,0.899603227,1.15503703,0.749063048,-0.0270022545,0.32966873,0.407766819
85862.383682,0.496665729,1.20495717,0.421703902,0.157224312,0.375224471,0.389146805
85862.393710,0.11146489,1.21303884,0.202060449,0.295331568,0.384609193,0.356073797
85862.403737,-0.384042755,1.16042427,0.0505845243,0.347592652,0.364793956,0.298361778
85862.413765,-0.877234451,1.03817415,-0.0766805041,0.30521962,0.329045266,0.220778823
85862.423792,-1.05863921,0.981531276,-0.225010532,0.184088945,0.279911816,0.136444762
85862.433820,-1.0773822,1.0125189,-0.415644748,0.0498512462,0.261920571,0.0304608159
85862.443848,-0.716887748,0.874416471,0.0365086527,-0.152706653,0.204871386,-0.0240181349
85862.453875,-0.0539563023,0.392965956,-0.211209971,-0.211990744,0.130071446,-0.0238924362
85862.463903,0.378398648,0.29190446,-0.749359401,-0.23869507,0.0639361143,-0.0202372484
85862.473930,0.431720561,0.280741187,-0.809532422,-0.231398001,0.0164727252,-0.0188065954
85862.483958,0.0614584946,0.438059847,-1.05487789,-0.122020379,0.00511354394,-0.0537480675
85862.493986,-0.145913067,0.702301151,-1.17502344,0.0445289202,0.0525148809,-0.140530646
85862.504013,-0.0232157482,0.592271262,-1.18782155,0.182317406,0.130118325,-0.221321896
85862.514041,0.294557714,0.22799101,-1.38988842,0.293006629,0.196368724,-0.240702778
85862.524068,0.55778184,-0.247712194,-1.54288411,0.35790655,0.23110193,-0.18707417
85862.534096,0.660345339,-0.723317051,-1.59879129,0.341568589,0.229178324,-0.102935053
85862.544124,0.708494818,-1.01336193,-1.54524674,0.257952243,0.19494845,0.00555360364
85862.554151,0.810069452,-1.12284931,-1.38743168,0.17745395,0.140219435,0.13363035
85862.564179,0.80076474,-0.940024888,-0.966623849,0.0944767743,0.0847180933,0.232564107
85862.574206,0.616881241,-0.490994515,-0.388706472,-0.0109894658,0.0505113825,0.257493168
85862.584234,0.374593629,-0.00251337106,-0.0189051915,-0.0719753131,0.0647986457,0.221733779
85862.594262,0.197693943,0.46247087,0.229643453,-0.0827861503,0.127091303,0.147355944
85862.604289,0.0797704329,0.752193528,0.349947995,-0.0705917999,0.21124959,0.0624312088
85862.614317,-0.210584843,0.948191828,0.282296016,-0.0290387589,0.282175452,-0.0294728801
85862.624345,-0.646849678,1.19518718,0.033751463,0.0346850902,0.315357625,-0.141316056
85862.634372,-0.96371936,1.34092215,-0.0731517455,0.0800736099,0.311113626,-0.267383724
85862.644400,-0.960229106,1.20694652,0.0119026192,0.0933268294,0.286710024,-0.379900932
85862.654427,-0.678304481,0.867072538,0.298631649,0.0973013341,0.257792085,-0.444638133
85862.664455,-0.216614643,0.44060376,0.619584435,0.0976760387,0.236655623,-0.452441454
85862.674483,0.172813038,-0.0119799223,0.936674116,0.0850646421,0.212439492,-0.407907277
85862.684510,0.296149623,-0.401315486,1.32589964,0.0732348785,0.191861257,-0.332954198
85862.694538,0.323341581,-0.594690817,1.73350137,0.0492366031,0.183344722,-0.247432649
85862.704565,0.214666559,-0.590007847,1.81310448,0.0493047796,0.1957279,-0.166442454
85862.714593,-0.121634439,-0.535293529,1.53963943,0.0777372196,0.207186684,-0.101693809
85862.724621,-0.652035995,-0.370552537,1.14144909,0.195957869,0.274946839,-0.0810378045
85862.734648,-1.18222584,0.0213267195,1.11098439,0.104102775,0.339590013,-0.105936497
85862.744676,-1.53975501,-0.0820118552,0.880520852,0.0540289618,0.298446298,-0.122181252
85862.754704,-1.51761464,-0.407727837,-0.148948452,0.0151257711,0.174970955,-0.123008966
85862.764731,-1.2817564,-0.560111013,-0.6783774,-0.0628007203,0.00603413116,-0.100900456
85862.774759,-1.01057383,-0.536322653,-0.645721332,-0.177996293,-0.14782095,-0.0671078712
85862.784786,-0.569025813,-0.426872683,-0.36521103,-0.263017982,-0.22044003,-0.0262667015
85862.794814,-0.193875609,-0.187467641,-0.264717689,-0.265382856,-0.273741037,-0.015867589
85862.804842,0.0388640841,0.124792866,-0.174727037,-0.201821193,-0.314715385,-0.0453474522
85862.814869,0.242655202,0.300423135,-0.143511814,-0.0577449724,-0.341365635,-0.0856498629
85862.824897,0.596005443,0.322547873,0.0427671286,0.0882457867,-0.34883073,-0.115044236
85862.834924,0.968000325,0.184577838,0.22780104,0.171836823,-0.299005121,-0.123042256
85862.844952,1.18152215,-0.121862658,0.368337638,0.179226831,-0.220453605,-0.0815792233
85862.854980,1.35290923,-0.433378923,0.239006909,0.136005044,-0.153279096,-0.014249986
85862.865007,1.43377973,-0.624750659,-0.108715226,0.0915592909,-0.125268772,0.0544364005
85862.875035,1.40440999,-0.770491474,-0.443193849,0.0405560322,-0.131321341,0.125033066
85862.885063,1.28131392,-0.875340088,-0.490663456,-0.0214743167,-0.152295858,0.205387294
85862.895090,1.09738213,-0.921261516,-0.346224006,-0.0845102817,-0.167979479,0.283121765
85862.905118,0.821890165,-0.923433819,-0.124971365,-0.109833211,-0.183030605,0.353786349
85862.915145,0.879862388,-0.794311984,0.0909229645,-0.103669859,-0.209114939,0.406904429
85862.925173,1.1399039,-0.677012323,0.300408595,-0.0900656357,-0.215798408,0.465708613
85862.935201,1.38899601,-0.642887058,0.520621957,-0.11504928,-0.198117673,0.537781775
85862.945228,1.51736008,-0.600775471,0.788479697,-0.224725708,-0.160592139,0.604691029
85862.955256,1.40450308,-0.292742737,1.00895259,-0.387239516,-0.0968975723,0.616880894
85862.965284,1.22586311,0.260063579,0.802984023,-0.495460808,-0.00289251842,0.548991561
85862.975311,1.19748501,0.481890221,0.57812722,-0.55496037,0.107896581,0.445921063
85862.985339,1.02868458,0.329594139,0.526352025,-0.575396657,0.208010122,0.366968721
85862.995366,0.695517044,0.036921106,0.1623077,-0.568949938,0.270373374,0.331298083
85863.005394,0.37671095,-0.107785325,-0.639137861,-0.518716872,0.206583202,0.319040895
85863.015422,0.135324855,-0.0105259241,-1.93965581,-0.322307914,0.101985164,0.271743953
85863.025449,0.0287833557,0.325835371,-2.64304315,-0.0521904193,-0.00827503297,0.177886158
85863.035477,-0.0323410116,0.552636221,-2.75861833,0.225051567,-0.110249862,0.0166914184
85863.045504,-0.113065266,0.772626514,-2.16659293,0.389127314,-0.17125757,-0.238364309
85863.055532,-0.241103735,1.00641883,-0.89490652,0.393330872,-0.195381537,-0.512318075
85863.065560,0.0534912147,0.821326686,0.463495463,0.310352623,-0.1846807,-0.729311883
85863.075587,0.745235014,0.564128432,1.16792033,0.148719519,-0.124976076,-0.861183643
85863.085615,1.29176926,0.121885381,1.43957103,-0.0502734743,-0.0430314168,-0.87199074
85863.095643,1.72260267,-0.400532227,1.69396606,-0.232284024,0.0359217227,-0.76328212
85863.105670,2.04577518,-0.807341196,1.64769531,-0.365925968,0.104555115,-0.587128937
85863.115698,2.17955353,-1.00014187,1.4479145,-0.478286862,0.15247789,-0.387995094
85863.125725,2.12167651,-1.08281672,1.12616442,-0.551797569,0.169180438,-0.189028457
85863.135753,1.92300044,-1.02173002,0.53137073,-0.567758977,0.162175,-0.0208836533
85863.145781,1.61322328,-0.75582582,-0.0300450097,-0.495903671,0.141021773,0.0932807326
85863.155808,1.32272043,-0.289341258,-0.215806651,-0.348654836,0.118527919,0.14188315
85863.165836,1.14375634,0.191408415,-0.203145322,-0.152981475,0.115849316,0.144858971
85863.175864,1.07562081,0.517012242,0.0189122057,0.0644581616,0.140819103,0.14583236
85863.185891,1.10579449,0.678482176,0.454156557,0.257240146,0.197365478,0.173044801
85863.195919,1.14933772,0.662305387,0.930806686,0.381517887,0.274399281,0.23265034
85863.205946,0.985831677,0.542812161,1.15498895,0.447221518,0.350561708,0.291550934
85863.215974,0.63041906,0.520190214,0.888268105,0.490839571,0.390203118,0.313839734
85863.226002,0.275520165,0.567770661,0.399354707,0.510136306,0.371657401,0.269213676
85863.236029,-0.0748072758,0.475497232,-0.0779711284,0.525801301,0.30953145,0.172523618
85863.246057,-0.443741473,0.312872867,-0.367407664,0.538144767,0.23293145,0.0603217185
85863.256085,-0.722572954,0.140311411,-0.397761301,0.579479396,0.181976929,-0.0440582149
85863.266112,-0.881074248,0.0117415104,-0.33560032,0.64109993,0.187878758,-0.131525755
85863.276140,-0.961535586,-0.094489644,0.0535281766,0.665328026,0.205923274,-0.193830401
85863.286168,-0.993464363,-0.175796054,0.254525965,0.643200099,0.205032453,-0.227611795
85863.296195,-0.96530093,-0.320079438,0.228974175,0.577851951,0.180049062,-0.230177224
85863.306223,-0.874500715,-0.517842336,-0.0277700505,0.475027859,0.11879424,-0.205978677
85863.316250,-0.679764763,-0.722084075,-0.362794617,0.378444046,0.025145242,-0.170324549
85863.326278,-0.384680943,-0.833317056,-0.47351183,0.318095237,-0.0668320805,-0.12423189
85863.336306,-0.0857057778,-0.910652079,-0.198430569,0.265479952,-0.116953842,-0.0590214543
85863.346333,0.143275339,-0.984465649,0.362895739,0.174830213,-0.100359946,0.0169223137
85863.356361,0.246650446,-0.985517204,0.863354029,0.067585513,-0.0422452502,0.109920159
85863.366389,0.312202238,-0.863703427,1.12009416,-0.0403385535,0.014760511,0.199037522
85863.376416,0.322793007,-0.592694309,1.26350778,-0.175705969,0.0698211044,0.26357922
85863.386444,0.0329307942,-0.322335546,1.05836865,-0.325415045,0.099554494,0.307967991
85863.396471,-0.298731401,-0.0111220633,0.741322809,-0.478875428,0.0833249241,0.325099856
85863.406499,-0.527737634,0.326069253,0.286789235,-0.587256253,0.0368937738,0.303030491
85863.416527,-0.635210313,0.682123382,-0.142404145,-0.62373966,-0.00340278028,0.262055904
85863.426554,-0.666775372,0.994989746,-0.307483064,-0.633033335,-0.0244396217,0.204270095
85863.436582,-0.616467618,1.28905226,-0.380571681,-0.61454004,-0.0329082087,0.126351342
85863.446610,-0.558748785,1.39592829,-0.376821973,-0.532968223,-0.028790161,0.0475995317
85863.456637,-0.493449434,1.33959879,-0.199822315,-0.399197102,-0.0230587721,-0.0241204612
85863.466665,-0.451744747,1.25692051,0.104749245,-0.236405537,-0.00786863454,-0.0907727182
85863.476693,-0.396139691,1.12640744,0.487498855,-0.103384897,0.00877132826,-0.145146221
85863.486720,-0.360775057,0.920144203,0.703988227,-0.0125585878,0.0274238437,-0.170824945
85863.496748,-0.251315351,0.673557652,0.730219231,0.100336269,0.0455192216,-0.152332231
85863.506775,-0.17812563,0.46192383,0.713041302,0.226967186,0.0590390265,-0.11010994
85863.516803,-0.207466071,0.314835034,0.715341396,0.292110503,0.0727761462,-0.082727313
85863.526831,-0.26293824,0.071409651,0.481839514,0.322747767,0.0854879469,-0.064574942
85863.536858,-0.134141508,-0.0496856758,0.157628018,0.312609106,0.0885846689,-0.0418999903
85863.546886,0.0289028356,0.017705168,-0.0641629678,0.300480545,0.100362763,-0.0258957222
85863.556914,0.109081612,0.0650480801,-0.0495680408,0.262912929,0.127475068,-0.00654572714
85863.566941,0.118311523,-0.010804741,-0.000185293439,0.184048742,0.1629529,0.0218411721
85863.576969,-0.025073925,-0.118396808,-0.132311206,0.0393458903,0.176704407,0.0475444049
85863.586997,-0.395976828,-0.256529049,-0.454973719,-0.132776886,0.162279278,0.108819574
85863.597024,-0.770922267,-0.453680464,-0.800015237,-0.27916047,0.116949879,0.199819773
85863.607052,-0.91327344,-0.48678055,-1.15373457,-0.33340773,0.0271504819,0.27994898
85863.617079,-0.802826056,-0.324002456,-1.3481898,-0.265628934,-0.0933176056,0.3114326
85863.627107,-0.495324836,-0.0990166929,-1.21328449,-0.0914539471,-0.244810998,0.292546272
85863.637135,-0.0087141254,0.212644606,-1.09230307,0.143521026,-0.399609655,0.244177386
85863.647162,0.545551815,0.433768434,-0.788419491,0.367640942,-0.432157725,0.218482152
85863.657190,0.926653658,0.49843862,-0.356544909,0.540964544,-0.345162392,0.224862814
85863.667218,1.05583731,0.554818679,-0.117887544,0.653510749,-0.217789233,0.238112301
85863.677245,0.915275793,0.590754062,-0.177615744,0.716593325,-0.131524384,0.229191512
85863.687273,0.630710663,0.555482258,-0.316997911,0.718788326,-0.111442015,0.199771568
85863.697301,0.39137255,0.433910728,-0.431693381,0.642016828,-0.136006743,0.141175643
85863.707328,0.177139633,0.244935057,-0.472051695,0.529417038,-0.176692665,0.0918701515
85863.717356,0.125845526,-0.0214589676,-0.308885332,0.400369316,-0.215132192,0.0395502187
85863.727383,0.315205548,-0.264027295,0.132856565,0.255146623,-0.247433677,-0.0116983224
85863.737411,0.57355973,-0.407637309,0.512421699,0.0826763064,-0.252135247,-0.0457697362
85863.747439,0.740415266,-0.432708367,0.653148851,-0.0587130412,-0.23172155,-0.0616903827
85863.757466,0.886450169,-0.23838359,0.845693284,-0.141804457,-0.190828979,-0.0707816109
85863.767494,0.83471231,0.199351848,0.943764367,-0.189491823,-0.132467672,-0.11166247
85863.777522,0.598668342,0.587207987,0.889424289,-0.206284925,-0.0656308532,-0.1703154
85863.787549,0.406413211,0.735869731,0.532092614,-0.165696487,-0.0189496353,-0.227596
85863.797577,0.231352723,0.812746562,0.136767601,-0.124589533,-0.00891670771,-0.284157544
85863.807605,0.00941666477,0.766372276,-0.190261291,-0.0803080872,-0.0219595395,-0.33822608
85863.817632,-0.262683206,0.587109568,-0.363771353,-0.0665331483,-0.0540892445,-0.381623358
85863.827660,-0.407001167,0.384991434,-0.419044912,-0.0703499913,-0.0819288641,-0.410626262
85863.837688,-0.419491413,0.213136555,-0.497502947,-0.109180748,-0.122001715,-0.438424349
85863.847715,-0.364196081,0.0372938483,-0.613417729,-0.124684073,-0.176507309,-0.464109451
85863.857743,-0.145422215,-0.115929213,-0.537545619,-0.1037471,-0.222517937,-0.476425499
85863.867770,0.121901784,-0.217905084,-0.33396249,-0.0694596991,-0.238324061,-0.473577261
85863.877798,0.326004005,-0.305370894,-0.0974433061,-0.0242192466,-0.22012642,-0.438498646
85863.887826,0.457917042,-0.316174795,0.0626367812,0.0489329919,-0.176426336,-0.38509053
85863.897853,0.567222599,-0.295052037,0.169716515,0.11056067,-0.129493192,-0.317453176
85863.907881,0.616902941,-0.265875444,0.0501730209,0.177124515,-0.0913426057,-0.240377039
85863.917909,0.588658113,-0.2523244,-0.0985953988,0.246679634,-0.0613269173,-0.156062171
85863.927936,0.44646856,-0.234787063,-0.198178055,0.275158137,-0.0481229648,-0.0875078663
85863.937964,0.202320196,-0.292020158,-0.417377271,0.260110229,-0.0670351386,-0.0392881408
85863.947992,-0.0512653645,-0.366267773,-0.520530771,0.240929067,-0.105314612,-0.00279457588
85863.958019,-0.26282477,-0.447935345,-0.496591677,0.210174084,-0.152457625,0.0184321497
85863.968047,-0.354147127,-0.486826691,-0.339246568,0.146697104,-0.197653338,0.0141758854
85863.978075,-0.3194856,-0.528796349,-0.117944827,0.101448663,-0.233745024,0.0019727489
85863.988102,-0.155328966,-0.528693035,0.125538351,0.0641407073,-0.241569132,-0.00888922065
85863.998130,0.0374831786,-0.471668943,0.401685196,-0.00261355494,-0.223560825,-0.00737334788
85864.008157,0.166343751,-0.401854561,0.515579286,-0.0524716564,-0.190181032,0.0111915469
85864.018185,0.32383068,-0.312120405,0.465952209,-0.0822173059,-0.169093594,0.0435108691
85864.028213,0.336331959,-0.162794351,0.343694779,-0.0875833109,-0.163579255,0.0806635693
85864.038240,0.201775678,0.044551199,0.267794612,-0.0816239566,-0.174104869,0.10722407
85864.048268,0.170481874,0.197628385,0.260650586,-0.0787043273,-0.193350732,0.124506123
85864.058296,0.171638606,0.363923548,0.235299871,-0.0743588507,-0.211073801,0.128920302
85864.068323,0.135164075,0.517269431,0.288609437,-0.0493650809,-0.221708342,0.114428453
85864.078351,0.167427053,0.631176819,0.327029476,-0.0138542252,-0.21752131,0.0768395364
85864.088379,0.241519878,0.688711309,0.36038814,0.0266585816,-0.195438117,0.0253451839
85864.098406,0.298028532,0.636051221,0.398016152,0.0469545312,-0.172184452,-0.0192915276
85864.108434,0.274481725,0.480357532,0.42011108,0.0296865944,-0.163131312,-0.0528092757
85864.118462,0.255276601,0.355365928,0.329800694,0.0451236069,-0.171201751,-0.0684074089
85864.128489,0.326346024,0.2792169,0.351867565,0.0652182177,-0.180137187,-0.0776933134
85864.138517,0.428117349,0.257470239,0.411215826,0.0895491242,-0.183198497,-0.0775223374
85864.148545,0.52018404,0.265290009,0.483353426,0.101569571,-0.172009751,-0.073429592
85864.158572,0.549361619,0.230270206,0.451232779,0.101003118,-0.162984297,-0.0648092106
85864.168600,0.535883933,0.156392412,0.33423137,0.0907837674,-0.16584374,-0.0625116974
85864.178628,0.568292712,0.120509965,0.277094355,0.065488264,-0.175849497,-0.0628320798
85864.188655,0.643164341,0.0899520736,0.32912674,0.0375357307,-0.187567145,-0.0629559159
85864.198683,0.660962448,0.0714411421,0.418866048,0.0270327553,-0.187994048,-0.0650765896
85864.208710,0.634246802,0.0707015758,0.489419594,0.0116221057,-0.172369555,-0.073291108
85864.218738,0.636305268,0.0175067229,0.527599395,-0.0108200861,-0.132916152,-0.0806773901
85864.228766,0.607252485,-0.0609816344,0.449323146,-0.0670287684,-0.095656395,-0.0813120157
85864.238793,0.539969047,-0.16899748,0.238705296,-0.121789485,-0.0837723091,-0.0709054545
85864.248821,0.520962587,-0.166980953,0.0279284559,-0.149697274,-0.0918203816,-0.0590312183
85864.258849,0.556893659,-0.159048004,-0.0656119976,-0.182827532,-0.104913808,-0.0534939691
85864.268876,0.543446148,-0.181797231,-0.117084411,-0.207941398,-0.120476261,-0.0397123769
85864.278904,0.56448974,-0.197979829,-0.0839238994,-0.220765322,-0.129455641,-0.0196848754
85864.288932,0.609396073,-0.212249543,-0.0388555081,-0.24653247,-0.137065619,0.00668041874
85864.298959,0.560684137,-0.167967297,-0.100404494,-0.263143152,-0.13978444,0.042917788
85864.308987,0.493679224,-0.0597627236,-0.118431149,-0.272159278,-0.142733887,0.0739888847
85864.319015,0.4640596,0.0997612277,-0.062831427,-0.27680409,-0.145568028,0.0871361122
85864.329042,0.462475546,0.253724768,-0.0236275438,-0.274129748,-0.164591253,0.0814713016
85864.339070,0.515183857,0.298719583,-0.126084879,-0.260711402,-0.166818723,0.067985855
85864.349098,0.506370363,0.274046147,-0.0806178435,-0.227726832,-0.152044564,0.0516444296
85864.359125,0.43137014,0.210948762,0.0227460848,-0.165163055,-0.118759051,0.0281369742
85864.369153,0.397264238,0.163471045,0.0855862796,-0.088714622,-0.0704895258,-7.415656e-05
85864.379181,0.316300869,0.0925541459,-0.0499772061,-0.0110432589,-0.0268528331,-0.0322547331
85864.389208,0.20117921,0.0921493645,-0.238456874,0.0495053083,0.00536129717,-0.0646907017
85864.399236,0.0788667621,0.128221087,-0.393718163,0.124989681,0.0109850951,-0.0897776783
85864.409264,0.0519475563,0.19262897,-0.445502711,0.19108668,0.0240934398,-0.118400536
85864.419291,0.111479357,0.239134919,-0.240782687,0.27423963,0.0955069065,-0.133479625
85864.429319,0.0334282223,0.205463572,-0.20428514,0.376457602,0.138382465,-0.15059337
85864.439347,0.00597162176,0.2693368,-0.195634216,0.464779466,0.135913715,-0.184920713
85864.449374,-0.0902588015,0.23893768,-0.272529824,0.506711721,0.0820305124,-0.228914529
85864.459402,-0.169238303,0.118702623,-0.23863866,0.468782216,0.0389578752,-0.272508323
85864.469430,-0.191846149,-0.157797347,-0.104372813,0.368684351,0.0213884655,-0.299818248
85864.479457,-0.254854028,-0.541892635,-0.0994172366,0.261209041,0.0196811128,-0.309866905
85864.489485,-0.180325003,-0.810369823,-0.149589088,0.149896368,0.0130969808,-0.303515524
85864.499512,0.000898337079,-0.944173386,-0.280267725,0.0621225648,-0.00148462481,-0.275764853
85864.509540,0.165909743,-1.10083804,-0.380654099,-0.018586129,-0.0111313928,-0.241493985
85864.519568,0.257959885,-1.05168289,-0.380188235,-0.104097039,-0.00819046423,-0.202671215
85864.529595,0.249111831,-0.875201337,-0.343258726,-0.172491267,0.00627875607,-0.161969319
85864.539623,0.229915548,-0.718564669,-0.226805015,-0.223044455,0.0182416756,-0.106213905
85864.549651,0.224243932,-0.49719947,-0.139150112,-0.194343299,0.0258828178,-0.0496366471
85864.559678,0.120420715,-0.327834216,-0.0170388131,-0.143448696,0.0595947094,0.023457801
85864.569706,0.131574197,-0.226203249,0.159231362,-0.132995263,0.108099662,0.0898948833
85864.579734,0.17716727,-0.176423392,0.0913537571,-0.137942612,0.15209721,0.135194451
85864.589761,0.12563487,-0.098647129,-0.0895113441,-0.0944932997,0.216250524,0.150329351
85864.599789,-0.066017948,-0.0523651241,0.0981090766,-0.186144933,0.279273689,0.164659828
85864.609817,-0.210396024,-0.140904043,0.228397252,-0.265816569,0.354584157,0.17457664
85864.619844,-0.287484013,-0.0850889976,0.0397889896,-0.314665884,0.405961305,0.173936948
85864.629872,-0.330328079,0.0158858071,-0.176995566,-0.339231133,0.423110217,0.159584373
85864.639900,-0.324113515,0.165457689,-0.535208116,-0.316821158,0.403965533,0.132645965
85864.649927,-0.404862767,0.404678423,-0.709316144,-0.276228458,0.357980728,0.0823649466
85864.659955,-0.456646876,0.503172955,-0.674963793,-0.22579886,0.283606917,0.00730055943
85864.669983,-0.41273361,0.5491608,-0.65654843,-0.165745109,0.190249547,-0.0895729885
85864.680010,-0.236555351,0.5909018,-0.623044805,-0.105621316,0.0938263312,-0.192209616
85864.690038,-0.0335832668,0.565544437,-0.640658203,-0.0443446413,-0.00398811465,-0.297516584
85864.700066,0.121668816,0.514243435,-0.510914217,-0.0272042733,-0.0767592564,-0.389672875
85864.710093,0.256627029,0.382258903,-0.294887202,-0.0252516437,-0.113906093,-0.439046293
85864.720121,0.307544512,0.100056704,-0.00840250216,-0.0130647514,-0.143841609,-0.429193109
85864.730149,0.270385067,-0.137042838,0.162548523,0.00321195624,-0.155596271,-0.38057524
85864.740176,0.211308243,-0.195752581,0.315945772,-0.0103067821,-0.154978693,-0.307164967
85864.750204,0.179725685,-0.223071966,0.36954526,-0.0390010104,-0.147593737,-0.227355361
85864.760232,0.169533596,-0.206203102,0.283930339,-0.0620831586,-0.150950387,-0.149821147
85864.770259,0.157226561,-0.0308911051,0.103756143,-0.0596026927,-0.160194755,-0.0921213701
85864.780287,0.268124502,0.165007972,-0.110220955,-0.0405930467,-0.164428651,-0.0553319305
85864.790315,0.408833314,0.225556695,-0.209389769,-0.0332331359,-0.165928811,-0.032783743
85864.800342,0.547899328,0.250957386,-0.238323603,-0.0120644681,-0.166000441,-0.0138835544
85864.810370,0.647916869,0.262113863,-0.153289697,0.0016606648,-0.169922486,-0.00274328608
85864.820398,0.643448272,0.245863643,0.070002926,-0.00288615003,-0.169652432,-0.0112954946
85864.830425,0.696035149,0.270969224,0.233811094,-0.0190877579,-0.162075743,-0.0322788097
85864.840453,0.795164874,0.259376474,0.38035307,-0.0323993005,-0.149535716,-0.0431546271
85864.850481,0.845503169,0.199981013,0.437913278,-0.0291449185,-0.131776169,-0.0422949567
85864.860508,0.855523408,0.177579138,0.508529952,-0.0144306868,-0.109845042,-0.0373148471
85864.870536,0.843952505,0.133745915,0.641674102,0.00283192308,-0.0848227739,-0.0196647458
85864.880564,0.818716284,0.0805542037,0.677508801,0.0411508158,-0.048243992,0.006530107
85864.890591,0.820485266,0.030608781,0.644103375,0.0970894471,-0.00551330717,0.0414854251
85864.900619,0.774770467,-0.0179233408,0.590083615,0.131315053,0.0344423652,0.0768652558
85864.910647,0.593296294,0.0514554619,0.400337289,0.160601571,0.0663520917,0.10979338
85864.920674,0.316997619,0.151832995,0.331405207,0.21239233,0.0963121206,0.135405257
85864.930702,0.216501793,0.246221078,0.280447757,0.265128791,0.116857342,0.138472423
85864.940730,0.0871039176,0.38842718,0.0816875186,0.268381327,0.116391823,0.108035423
85864.950757,-0.0724923317,0.425840527,-0.0980254899,0.252856404,0.0836788863,0.0299326368
85864.960785,-0.0301757234,0.393493633,-0.160481069,0.228659987,0.0300353654,-0.0835614353
85864.970813,0.340034284,0.3441297,0.0227595288,0.176070809,-0.0151379714,-0.188923553
85864.980840,0.849470392,0.210927975,0.209840436,0.0949759632,-0.0384936295,-0.24634023
85864.990868,1.17894733,0.0876628302,0.286914323,0.0265790634,-0.0384805799,-0.260329545
85865.000896,1.34078216,0.0343416109,0.467946598,0.000598063518,-0.0245533101,-0.249217525
85865.010923,1.28839701,-0.0323689226,0.614636457,-0.000654953765,-0.00364003982,-0.2144811
85865.020951,1.01538766,-0.0194380928,0.679187548,-0.0129201422,0.0251426063,-0.174731031
85865.030979,0.694620972,0.00501534394,0.646477703,-0.0150733078,0.0498210527,-0.135216907
85865.041006,0.475718108,0.105808874,0.575035684,-0.00288481847,0.0660309196,-0.109342165
85865.051034,0.280342982,0.157547792,0.57118953,-0.0143870106,0.0832652971,-0.0855771825
85865.061062,0.201033298,0.20039964,0.522069817,-0.0202875119,0.0931253806,-0.0827206746
85865.071089,0.218911923,0.279677796,0.497177953,-0.0337798819,0.100763328,-0.0851036757
85865.081117,0.185031719,0.229247768,0.421513348,-0.0544524044,0.103056312,-0.0905716792
85865.091145,0.0810749397,0.0421114412,0.250954536,-0.0981492847,0.102162823,-0.0782921091
85865.101172,0.01191694,-0.117623559,0.0355295785,-0.139841616,0.0952716246,-0.0508455671
85865.111200,0.00247128548,-0.229189937,-0.30286008,-0.163563445,0.0767504051,-0.00885657314
85865.121228,-0.00365801105,-0.321219365,-0.53500704,-0.165674269,0.0395092927,0.0308346488
85865.131255,0.057456529,-0.337729478,-0.596420417,-0.174463764,-9.19101294e-05,0.0651601329
85865.141283,0.120328288,-0.276086128,-0.532836126,-0.20268555,-0.0423285812,0.084408924
85865.151311,0.150027699,-0.142261084,-0.456088402,-0.225873426,-0.075088121,0.0879171044
85865.161338,0.254113804,0.0403363943,-0.263619957,-0.267125249,-0.0801963359,0.0886872932
85865.171366,0.382375077,0.150444609,-0.152183197,-0.230606139,-0.0767808333,0.0837404728
85865.181394,0.487657699,0.207729873,-0.126039871,-0.171343878,-0.0607693717,0.0924436823
85865.191422,0.567421775,0.275157396,-0.208851425,-0.0887563154,-0.0484370738,0.0976214036
85865.201449,0.49506476,0.314664281,-0.266705063,-0.0318522863,-0.0348288529,0.104022838
85865.211477,0.443143434,0.252487153,-0.309911168,0.0141924359,-0.0241011046,0.124967538
85865.221505,0.48710138,0.164020569,-0.343119025,0.0223691389,-0.0176850185,0.147852078
85865.231532,0.536027835,0.101051268,-0.391770536,-0.000467999838,-0.0132013205,0.172886595
85865.241560,0.542575357,0.133705802,-0.503031355,-0.0336272828,-0.0233359784,0.177661374
85865.251588,0.563523087,0.257731264,-0.554638208,-0.063400358,-0.0436154194,0.148721337
85865.261615,0.588524988,0.359683499,-0.492018963,-0.0554803833,-0.0649140477,0.079810448
85865.271643,0.673356431,0.43297721,-0.233090963,-0.00269386987,-0.0649489388,-0.013545067
85865.281671,0.819831698,0.412708329,0.226923673,0.0601431504,-0.0104867602,-0.0717399344
85865.291698,0.976501611,0.244624237,0.558797081,0.133651182,0.0490772314,-0.114704974
85865.301726,1.06515013,0.0716034931,0.695997813,0.125173002,0.107965581,-0.09368065
85865.311754,0.991273429,-0.129552336,0.575776858,0.103126302,0.160382196,-0.0282646269
85865.321781,0.664260612,-0.187631527,0.440474069,0.0696266666,0.189605325,0.0402558446
85865.331809,0.24844175,-0.0631530601,0.0982277345,0.0695166811,0.207990184,0.093078047
85865.341837,-0.152912388,0.218003795,-0.504391537,0.117025606,0.203920618,0.096426703
85865.351864,-0.447237864,0.347487669,-1.17893389,0.172876611,0.165907189,0.0622250587
85865.361892,-0.623654753,0.306693302,-1.59591544,0.199723139,0.101372927,0.00729043968
85865.371920,-0.616065175,0.13799338,-1.69276955,0.2003607,0.024979353,-0.0407916047
85865.381947,-0.482565673,-0.0433331284,-1.58953304,0.162445277,-0.0425837114,-0.0811683238
85865.391975,-0.353041979,-0.0991558091,-1.54213475,0.123262994,-0.0946690142,-0.11973089
85865.402003,-0.270407936,0.0272923134,-1.68270642,0.107458465,-0.129857093,-0.127674296
85865.412030,-0.270352772,0.245110377,-1.85831725,0.0887572169,-0.11859832,-0.208992064
85865.422058,-0.190728689,0.348944809,-2.56410172,0.317497462,-0.146620363,-0.195405677
85865.432086,-0.285273059,0.537088084,-2.99657309,0.594671249,-0.146228611,-0.143795475
85865.442113,-0.448143873,0.657477309,-3.4712113,0.94665885,-0.122857243,-0.0628260672
85865.452141,-0.26556846,0.189651981,-3.41861719,1.18215096,-0.084978573,0.0412460081
85865.462169,0.0717984311,-0.0781200719,-2.96832491,1.28497243,-0.0310735293,0.144567609
85865.472197,0.571809635,-0.207373388,-2.54995278,1.20427704,0.0324708261,0.261468947
85865.482224,1.08832386,-0.399068511,-2.17249309,0.992985904,0.114186198,0.409898877
85865.492252,1.61053404,-0.465301709,-1.82631,0.744846642,0.239434138,0.55044055
85865.502280,1.90176009,0.280347421,-1.30025725,0.476160079,0.415863216,0.647551119
85865.512307,2.00489196,1.17258006,-1.29063076,0.309854716,0.60216254,0.759090126
85865.522335,1.58691906,0.730064991,-1.45647365,0.217710406,0.734669745,0.81708312
85865.532363,0.801563927,1.11278749,-1.96284672,0.197128162,0.764612436,0.690760612
85865.542390,-0.251165658,1.33326389,-3.05295666,0.312272072,0.640801847,0.396844596
85865.552418,-1.3028708,0.690686993,-4.04395098,0.646062553,0.442014664,0.178883493
85865.562446,-2.17733118,-0.420748501,-4.47642411,1.24938536,0.259948194,0.192425147
85865.572473,-2.63914351,-0.937106443,-4.02739557,1.81627309,0.0801632479,0.314379811
85865.582501,-2.43116916,-0.501059543,-3.84239264,2.02842236,-0.120622054,0.236984357
85865.592529,-1.70187216,-0.388292484,-3.20216639,1.86965311,-0.265230745,0.0855065733
85865.602556,-0.868461069,-0.598243541,-2.31148947,1.66717994,-0.324897796,0.04534477
85865.612584,-0.73146324,-0.439611168,-1.54950265,1.42280376,-0.294643492,0.00550547941
85865.622612,-0.995875005,-0.084989775,-1.07880646,1.27870405,-0.203037679,-0.0802752078
85865.632639,-1.00376145,0.000236292974,-1.20520523,1.20551026,-0.121289551,-0.154198974
85865.642667,-0.830779062,-0.480575778,-1.58994338,1.12384343,-0.0778643116,-0.168654591
85865.652695,-0.745314509,-1.19598279,-1.91973355,0.945826709,-0.0848646984,-0.121905737
85865.662723,-0.921474574,-1.55741707,-1.83122057,0.638144016,-0.13125591,-0.0641833171
85865.672750,-1.03247104,-1.51263466,-1.27639181,0.256534904,-0.144813001,-0.00191328861
85865.682778,-0.948671136,-1.43716265,-0.450388145,-0.187393814,-0.121948421,0.0731641501
85865.692806,-0.789924562,-0.858216666,0.139149527,-0.66179657,-0.0723622218,0.129135013
85865.702833,-0.864854935,0.0643123132,0.187970549,-0.981287241,-0.0106157707,0.102826707
85865.712861,-1.11855833,0.841515414,-0.174645204,-1.07354069,0.0198478606,-0.0206523556
85865.722889,-0.9808015,1.50895802,-0.673257573,-0.971948326,0.0124208387,-0.184002936
85865.732916,-0.8240952,1.78176154,-1.22804133,-0.674693704,-0.0376500525,-0.39147383
85865.742944,-0.855519536,2.02159321,-1.48104637,-0.36252436,-0.0530979857,-0.606351793
85865.752972,-0.681519717,1.61081081,-1.3334014,-0.0969030634,0.0198742263,-0.733531058
85865.762999,-0.505106225,0.961119991,-1.24452075,0.0338389687,0.127913341,-0.770167589
85865.773027,-0.331852183,0.504877129,-1.02849666,0.0130189098,0.186792642,-0.754818201
85865.783055,0.00386102281,0.193055159,-0.879108063,-0.0732435361,0.173121825,-0.696818292
85865.793082,0.306538002,0.0292407075,-0.680240856,-0.133047476,0.128215343,-0.591122508
85865.803110,0.321988011,0.176194917,-0.636198301,-0.0921186954,0.0809897855,-0.475862205
85865.813138,0.359438146,0.548541937,0.0950035118,-0.120015569,0.145570368,-0.373655677
85865.823166,0.24022655,0.600888503,0.1087351,-0.0591777898,0.187758297,-0.27206406
85865.833193,0.0947388147,0.780809455,0.339130248,0.0145925721,0.197578445,-0.209791124
85865.843221,0.144000383,0.889621127,0.456670586,0.0889150053,0.189833969,-0.158950835
85865.853249,0.249200898,0.749783471,0.173382052,0.145686418,0.175843582,-0.0790357664
85865.863276,0.199903728,0.475272264,-0.266984465,0.214470536,0.170609146,0.0372066833
85865.873304,-0.107963129,0.459615699,-0.8348732,0.209127173,0.0751095191,0.0960521549
85865.883332,-0.403428752,0.40136064,-1.18433078,0.173066109,-0.193743259,0.0660777465
85865.893359,-0.196987859,0.226175777,-1.6707395,0.214038834,-0.337549955,0.0611250661
85865.903387,0.184716973,-0.174973559,-1.94609198,0.418670803,-0.259762228,0.0705851465
85865.913415,0.0750366093,-0.0757990451,-1.63007899,0.631569982,-0.0801535696,0.0419111587
85865.923442,-0.48790897,0.491833085,-1.27770523,0.825569034,0.070614107,-0.0544984713
85865.933470,-0.622713965,0.980822762,-1.21092828,0.996882439,0.171888262,-0.154533178
85865.943498,-0.345937955,1.16919824,-1.06758831,1.04688358,0.339301765,-0.191023558
85865.953526,-0.413113841,0.969221903,-0.790192346,0.999803126,0.534678996,-0.117262252
85865.963553,-0.734145903,0.808725051,-0.790130972,0.828426898,0.67979008,-0.0486632176
85865.973581,-0.92736429,0.586337999,-0.673628745,0.52224642,0.678341329,-0.0343593769
85865.983609,-1.05508035,0.364650328,-0.761468356,0.162314385,0.546794236,0.0360639207
85865.993636,-1.028888,0.473486112,-1.29603817,-0.0679417178,0.365840942,0.0212897696
