t,ax,ay,az,gx,gy,gz
93341.705643,-0.69145273,-0.0261052508,0.0310132468,-0.0181186558,-0.0194320205,-0.0390187879
93341.715670,-0.735538028,0.40747752,0.0366760948,-0.0234985077,-0.0170919012,-0.0510480185
93341.725697,-0.873989929,0.916778822,0.0448845357,-0.00875444943,-0.015569105,-0.0690757563
93341.735725,-0.908607142,1.04676772,0.0255655028,-0.00779331428,-0.0159419469,-0.0852941429
93341.745751,-0.946942425,1.04284719,-0.0115604051,-0.0111744641,-0.0131275199,-0.103108563
93341.755779,-1.0145871,0.992590434,0.0859910376,-0.00117748952,-0.0115722336,-0.124211722
93341.765806,-1.03957307,0.714646476,0.176814633,0.00535098371,-0.00489568865,-0.133220122
93341.775833,-1.0308124,0.511152231,-0.000948994669,0.00334775402,-0.000944356704,-0.144407526
93341.785859,-1.02538358,0.526340192,-0.332257171,-0.0183857721,-0.0119296305,-0.141140357
93341.795887,-1.00244607,0.917355672,-0.0684671181,-0.0168986623,-0.00828988772,-0.158229337
93341.805914,-1.00228635,0.497575358,0.565845515,0.00666791667,0.0131099427,-0.153648153
93341.815942,-0.913870688,0.0120452006,0.165134132,1.10793098e-05,0.019418706,-0.130732194
93341.825969,-0.826188532,-0.141649944,-0.313385297,0.00313257054,0.0102686163,-0.121062257
93341.835996,-0.696317267,-0.840293394,-0.311727593,0.00555524836,0.0153243615,-0.0842544441
93341.846023,-0.434983996,-1.25982229,0.158610284,0.040847193,0.0144889279,-0.0402494339
93341.856050,-0.436899657,-1.25506837,0.158654123,0.0499629262,0.0230174352,-0.0132231429
93341.866077,-0.448739988,-1.22630274,0.346772556,-0.0334653859,0.0220160865,0.00596679605
93341.876104,-0.412427406,-0.664298603,0.258413889,-0.20602784,0.0132710643,0.0177334412
93341.886131,-0.256735124,0.987258571,-0.858664725,-0.000860839611,-0.0176642138,0.0429852674
93341.896159,-0.501123415,1.03711602,0.584449678,0.00882853894,0.0161968142,-0.00820841038
93341.906186,-0.203795652,-0.43491296,0.34086304,0.0249020471,0.0126217854,0.033747829
93341.916213,-0.305896995,0.127864039,-0.517001159,-0.0228074179,-0.00735298699,0.00769838362
93341.926240,-0.507955965,0.2903165,-0.0489797429,-0.0411877562,-0.0313587218,-0.00325519734
93341.936267,-0.613056946,0.665132211,0.339448497,0.0115676005,-0.0256286628,-0.00131508478
93341.946294,-0.488945998,0.758662874,0.168270677,0.0453122514,-0.0203297726,-0.0158732538
93341.956321,-0.551878803,-0.0771017763,-0.391375715,-0.00332346465,-0.0316287644,-0.0133946515
93341.966349,-0.654935455,-0.314966329,-0.224270259,-0.0338052069,-0.0361681237,-0.00925689706
93341.976376,-0.624070581,-0.216216762,0.461631107,-0.0119398567,-0.0155214352,-0.0107892803
93341.986403,-0.677254109,-0.325278391,0.380089135,0.0398999075,0.00933517873,-0.00342670505
93341.996430,-0.687153864,-0.772033439,-0.302216253,0.0497304346,0.00651196189,0.00709810711
93342.006457,-0.673178822,-0.835367044,-0.154663054,-0.0416311701,-0.000899349144,0.0168231721
93342.016484,-0.65094602,-0.32589897,0.250504139,-0.0574767147,0.02103711,0.0216762512
93342.026511,-0.663114305,0.574392239,-0.134346827,0.0346292439,0.00844781365,0.027115758
93342.036538,-0.595970677,0.0408575997,0.347511392,-0.016667767,0.0239058666,0.014222329
93342.046566,-0.601754448,-0.0905257325,-0.257617817,0.00430143206,0.00542326163,0.0362868863
93342.056593,-0.615917231,0.223470613,0.247256535,-0.0240263459,0.0118033959,0.0110936477
93342.066620,-0.535941412,0.0823402962,0.118570534,0.0228540762,0.00588665189,0.0328452806
93342.076647,-0.449766957,0.398916831,-0.261784874,0.0123827937,0.00474442154,0.00313292674
93342.086674,-0.359006928,0.019068295,-0.166914048,-0.00556664494,0.000227700532,0.00470792034
93342.096701,-0.374495479,0.327085667,-0.0195210087,-0.00318444753,0.00744859579,-0.00401100286
93342.106728,-0.410939908,0.369831606,0.329141622,0.00869165222,0.0138526986,-0.0119496188
93342.116755,-0.385653893,-0.00297941856,0.211400794,0.0242378558,0.0205114007,-0.00714660951
93342.126783,-0.437998449,-0.288028564,-0.291209706,0.0152076087,0.00307728288,-0.00500436177
93342.136810,-0.19472769,-0.558798904,-0.408825447,-0.00857149017,-0.0139645507,0.00403094475
93342.146837,0.230409547,-0.617506529,0.269325159,0.00129525562,0.0127914286,0.00307646764
93342.156864,0.0833521052,-0.657278495,0.336833346,0.0284333988,0.0253751323,0.0138050127
93342.166891,0.0284300631,-0.60198572,-0.00131198276,0.0142371529,0.0340868652,0.0216336394
93342.176918,-0.0352184524,-0.398175942,-0.117715425,-0.0271611535,0.0297059648,0.0237745563
93342.186945,-0.0310327505,-0.175167653,0.114371913,-0.00752540025,0.0244195897,0.0362767647
93342.196973,0.000275780852,0.101027178,0.0121893038,0.019257478,0.021356155,0.0351635623
93342.207000,0.0536530275,-0.181995892,-0.378496359,0.00563141471,0.00655936621,0.0354964579
93342.217027,0.100123837,-0.556547436,-0.193703856,-0.0317694847,-0.00674498795,0.0354005838
93342.227054,0.0281556575,-0.458520411,0.175582461,2.59930438e-05,-0.00969150957,0.0459773312
93342.237081,-0.119375585,-0.291982234,0.019963445,0.0201893183,-0.0150165001,0.0384805309
93342.247108,0.0633402357,-0.462540351,-0.173816083,0.00314428844,-0.0160767037,0.0423908527
93342.257135,0.197946443,-0.286592248,-0.142261838,-0.0328083862,-0.0183534391,0.0418180036
93342.267163,0.0186448151,0.161303641,0.326374496,-0.0102865663,-0.00404347681,0.0400757636
93342.277190,-0.0920837649,0.364900032,0.402710132,0.0462009455,0.0187268172,0.042061686
93342.287217,0.0833813952,-0.00175512376,-0.239201286,0.00916835806,0.0171520885,0.0416635419
93342.297244,0.0584469655,-0.256245333,-0.34739395,-0.0301726558,0.0048906294,0.0501510347
93342.307271,-0.144452981,-0.164281335,0.21268908,-0.00570992333,0.0116127141,0.0559303607
93342.317298,-0.0762319422,-0.0577470144,0.355608774,0.0290339417,0.0149752207,0.0570068131
93342.327325,-0.0386277539,-0.143316005,-0.190389032,0.0350550856,0.00623765619,0.0548315416
93342.337352,0.0880452954,-0.426523756,-0.637934647,0.0226255781,-0.0101860586,0.0676586549
93342.347380,0.275479582,-0.53093997,-0.316675571,-0.0393586946,-0.00603924986,0.0645507495
93342.357407,0.0966661804,-0.363453844,0.479661854,-0.03246031,0.00681902453,0.075804464
93342.367434,-0.0958502413,0.255818767,0.610600603,0.0237425077,0.0153208997,0.0663595642
93342.377461,-0.0637038891,0.0579289405,0.295491866,0.0304384935,0.0218592275,0.0648836414
93342.387488,-0.069078714,-0.296846077,-0.238838882,0.0153239886,0.00990136604,0.0735959033
93342.397515,-0.181052947,-0.233581885,-0.399248056,-0.00128002115,-0.00123730422,0.078187197
93342.407542,-0.319628273,-0.18461455,-0.56010848,0.0197509616,-0.03181279,0.0739618237
93342.417570,-0.100337707,-0.8407369,0.279810313,0.0180598549,-0.0128433603,0.0883460859
93342.427597,-0.0725653003,-0.774347708,0.221292658,-0.0386811872,-0.00752316291,0.101890392
93342.437624,-0.102839296,-0.277308762,-0.411848009,0.00732465275,-0.00925395187,0.106035068
93342.447651,-0.203380569,-0.196705129,-0.0420987512,-0.00291679985,-0.00372789257,0.0963254492
93342.457678,-0.136743146,-0.405425804,0.942351846,-0.035052896,0.0140851921,0.108131513
93342.467705,-0.398906209,0.328896187,0.378538398,0.0492193732,0.021485851,0.111164852
93342.477732,-0.48954506,0.252591457,-0.386660961,0.0444640326,0.0181236107,0.106156513
93342.487760,-0.547320445,-0.0167020472,-1.42379276,-0.0203679618,-0.0417754084,0.113532401
93342.497787,-0.529934134,0.211358973,-0.40287969,-0.0829413277,-0.0583493255,0.100314065
93342.507814,-0.406869005,0.730545325,1.11992726,0.00890257443,-0.0300953157,0.0995912845
93342.517841,-0.448558567,1.05128038,0.959540882,0.0590190063,0.00582939371,0.0803960184
93342.527868,-0.488095299,0.807385696,-0.635263382,0.0270839757,0.00261069702,0.0733804549
93342.537895,-0.659319954,0.892247022,-0.833839496,-0.0168126416,-0.0172993607,0.044856939
93342.547922,-0.767865961,0.446268109,0.435975273,0.0115790521,-0.0028048406,0.0417383755
93342.557950,-0.778378003,-0.0165855583,0.491216098,0.0524761523,0.0140473757,0.0609717252
93342.567977,-0.615688171,-0.208335233,-0.598869295,0.00276372256,-0.00242187843,0.0601096595
93342.578004,-0.459892483,-0.54621349,-0.592911263,-0.0696489629,-0.00609490989,0.0742081622
93342.588031,-0.393791314,-0.212993782,-0.125320055,0.0027652972,-0.00159236699,0.0780503149
93342.598058,-0.463154554,-0.560708793,0.137029735,0.0801495644,0.0201036081,0.0738134975
93342.608085,-0.543600767,-1.08663255,-0.593602168,0.0620264928,-0.0101062266,0.0872968132
93342.618112,-0.625543357,-0.865534949,-0.178356649,-0.00124355917,-0.0376702092,0.0802191938
93342.628140,-0.685174015,-0.654650192,1.06194503,-0.0740288165,-0.0408550828,0.0833311001
93342.638167,-0.545434157,-0.126784548,0.896988272,0.00579171349,-0.00681988631,0.0964634116
93342.648194,-0.631583879,1.11274358,-0.252218588,0.0376724149,-0.0238883506,0.0836360301
93342.658221,-0.857527966,0.342697333,0.263281787,-0.00685031199,-0.011073487,0.0563117373
93342.668248,-0.891951702,0.214909998,-0.297717188,0.0141234123,-0.0180765345,0.0789161096
93342.678275,-0.968025399,0.401028709,-0.308205264,0.00102492149,-0.0262154203,0.0515737044
93342.688302,-0.500969942,-0.647333366,0.203545988,0.00878004591,0.00112538897,0.0786766926
93342.698330,-0.585572837,-0.577940316,0.404063885,-0.032878716,0.0166675978,0.0817758138
93342.708357,-0.703079235,0.100716157,0.461961947,-0.037921146,0.053726551,0.0668495963
93342.718384,-1.0199221,0.658528867,-0.453491687,0.0281859688,0.0230309543,0.0632553915
93342.728411,-0.722094536,0.183006336,-0.0546911063,-0.0302882609,0.0219664898,0.0550411413
93342.738438,-0.573817553,0.167540453,-0.287538908,-0.00429234607,-0.00271382431,0.0560512799
93342.748465,-0.379018437,-0.10015974,0.147027982,0.0475918907,0.0111135746,0.0453653442
93342.758492,-0.254399612,-1.01914847,0.142417858,-0.014939398,0.0101851968,0.0667630429
93342.768520,-0.4168343,-0.25561551,0.0570747398,-0.128288854,0.0027949245,0.05062269
93342.778547,-0.515861075,0.841172742,0.0446232545,-0.00108776427,-0.0109661614,0.0364770437
93342.788574,-0.350087343,0.135571335,1.06637804,0.0432666536,0.0353749737,0.0355667765
93342.798601,-0.144965835,-0.332741932,-0.90190064,0.0527323256,0.0125753831,0.0602034139
93342.808628,-0.276185364,-0.321210666,-1.2685268,-0.0646547568,-0.0357372865,0.0243050675
93342.818655,-0.382469819,-0.590139288,0.683276547,-0.0925359246,-0.0160378843,0.035270899
93342.828682,-0.512878187,0.212553534,0.709451438,0.0540788206,-0.00977413092,0.0377753335
93342.838710,0.218898137,0.327825123,-0.363398159,0.0757825109,0.00175282972,0.019092727
93342.848737,0.133045654,-0.942463656,-0.126364011,-0.0794206527,-0.00243738821,0.0295882444
93342.858764,-0.0302054922,-0.0275629342,-0.297009332,-0.00411604484,0.0239867632,0.0363990138
93342.868791,-0.301284076,0.97131581,0.49380553,-0.0327428956,0.00951354749,-0.010311767
93342.878818,-0.219494814,0.297191519,1.31472619,0.0605934444,0.0552884944,0.00697507846
93342.888845,-0.405923979,0.844646263,-1.73227127,0.09902152,-0.0182152848,0.0142369861
93342.898872,0.5279867,-0.60312572,-0.755291444,-0.0626049233,-0.0236374803,-0.0278273751
93342.908900,0.42701891,-0.644766584,1.04802756,-0.166548092,0.00166947274,0.00731782752
93342.918927,-0.228861741,1.59058585,0.255860698,0.0701326164,-0.000998748271,-0.0101407911
93342.928954,-0.0629754607,0.579647419,0.592291624,0.0179660874,0.0162220512,-0.0761467074
93342.938981,0.348586959,-0.745901146,0.11751255,0.0456272769,0.0349981346,-0.0105330753
93342.949008,-0.0961271311,0.564554041,-1.67974555,0.0439644004,-0.0183955814,-0.0326210675
93342.959035,0.0750632834,-0.462907138,-0.842847563,-0.0588059206,-0.0413770631,-0.0682706763
93342.969062,0.54700401,-0.712591874,1.24315441,-0.130131502,-0.0132471585,-0.0345883412
93342.979090,0.262158347,0.719060785,1.76673054,0.0872921604,0.0478582725,-0.0432910216
93342.989117,0.23166753,0.851243762,-0.522900154,0.136432822,0.047781308,-0.065178216
93342.999144,0.440780564,-0.430156304,-1.97299492,-0.0602309783,-0.0119528623,-0.0733607789
93343.009171,0.329584627,-0.0441349107,-0.440942586,-0.120558504,-0.0214299868,-0.0742060622
93343.019198,0.0428107264,0.629122156,1.77201403,0.0493647601,0.00568445431,-0.0927038496
93343.029225,0.120368479,-0.270109717,1.24371087,0.0700788233,0.0321213872,-0.0844541719
93343.039252,-0.0270763776,-0.119332707,-1.73387812,0.0513354982,-0.0224960494,-0.0854448681
93343.049280,-0.21900261,0.686464338,-1.68395469,-0.0948424903,-0.0830741815,-0.163382814
93343.059307,0.252051689,0.698382081,0.548386431,-0.0242492766,-0.0659639008,-0.147724748
93343.069334,0.177855531,0.154543372,2.51597947,0.0921923774,0.0299021758,-0.13352798
93343.079361,-0.0101492401,-0.307214472,-0.0672676792,0.109929028,0.0408016973,-0.117758066
93343.089388,-0.291925278,-0.482371571,-1.84058902,-0.0436557275,-0.0164924852,-0.155335278
93343.099415,-0.103347483,-0.204769084,-0.287427849,-0.0866242391,-0.00460626619,-0.153756023
93343.109443,0.152686767,0.668704078,0.617578625,0.064619075,0.00935162775,-0.133016915
93343.119470,0.385973637,-0.157582275,0.605502987,0.00971161994,0.0377294727,-0.139352575
93343.129497,0.396299946,-0.391225137,-0.270466777,-0.0297385831,0.03037542,-0.121035621
93343.139524,0.0359366987,-0.0414535307,0.0925663244,0.0201863642,0.0411934488,-0.125251934
93343.149551,0.000891465065,-0.447235997,-0.191855013,0.0410956438,0.0121077326,-0.104294725
93343.159578,0.147490003,-0.381473339,-0.799539167,-0.0393691068,-0.026025803,-0.0885589053
93343.169605,0.639375018,0.531118549,-0.0790744369,-0.0366588053,-0.0326807752,-0.107989058
93343.179633,0.481087002,0.249474238,1.70294225,0.00868656906,0.0316675835,-0.0962692877
93343.189660,0.0436970853,0.476278815,-0.15385466,0.0912781167,0.00737955639,-0.0761768003
93343.199687,-0.114900422,0.244766536,-1.24200119,-0.0175610133,-0.0366859056,-0.110621594
93343.209714,0.371341665,-0.695060382,0.104093096,-0.0376529661,-0.026342719,-0.081018426
93343.219741,0.179850194,-0.175871892,0.543571724,0.0229131761,-0.00604224267,-0.070464321
93343.229768,-0.191287687,-0.0868740142,-0.326115599,0.0144869336,-0.0105461806,-0.0699548577
93343.239795,-0.270152586,-0.297357205,-0.854657243,-0.0227224869,-0.0509295568,-0.0741216396
93343.249823,0.215915231,-0.518465615,1.25876757,-0.097104047,-0.0211570125,-0.074054793
93343.259850,-0.0142258373,0.0526131843,1.26624244,0.101177621,0.0360721879,-0.0571184201
93343.269877,-0.367333808,0.30047191,-0.905362763,0.109421964,0.017623673,-0.065365166
93343.279904,-0.354986586,-0.238157266,-1.72581347,-0.0579510448,-0.0282538041,-0.0822296371
93343.289931,-0.616794818,0.32419243,-0.814014267,-0.0932885301,-0.0760189362,-0.0870334436
93343.299958,-0.292226508,0.532399748,1.82359224,0.0195474732,-0.0176051549,-0.0870568832
93343.309985,-0.494874365,-0.175113895,1.31739863,0.0533744129,0.020587771,-0.0735783582
93343.320013,-0.597062528,0.0980342706,-1.2171368,0.00640131115,-0.0221048325,-0.0776258265
93343.330040,-0.846461578,0.445254439,-0.899508777,-0.0539288749,-0.0424745522,-0.120450259
93343.340067,-0.28209846,0.426532166,0.328824811,0.00607773709,-0.0375082895,-0.104186334
93343.350094,0.152497994,-0.265534628,1.65087655,0.0153577882,0.0522226625,-0.104577281
93343.360121,-0.126401794,-0.979553469,0.164005421,0.0665253657,0.062878237,-0.0651278799
93343.370148,-0.464103379,-0.931061826,-1.23055684,-0.00866605574,0.040539109,-0.0642248025
93343.380176,-0.853844601,-0.35473939,-0.230876525,-0.179439653,-0.0101083574,-0.0934364801
93343.390203,-0.574979327,0.603606825,0.0887073109,0.0374686825,-0.02254958,-0.083283179
93343.400230,-0.174547638,0.225363332,0.968747686,0.0393536682,-0.00109089379,-0.101717316
93343.410257,-0.340104549,-0.800999056,0.844397084,-0.0811157566,0.012995364,-0.0760902469
93343.420284,-0.721902082,0.251080541,-1.79207429,0.0172949708,-0.037439312,-0.0550696519
93343.430311,-0.702771485,0.0663352375,-1.34755416,-0.00187925575,-0.0657452561,-0.0966535812
93343.440338,-0.115936313,-1.15587669,0.918057363,-0.0577952494,-0.0519034743,-0.0613264782
93343.450366,-0.564949479,-0.230036358,0.936846235,-0.0404522126,0.0214354553,-0.0732960631
93343.460393,-0.934937734,0.500641687,-0.98074446,0.0275401524,-0.0644682713,-0.0799848591
93343.470420,-0.12398633,-0.604402718,1.20710285,-0.0598038067,0.0340913281,-0.08449252
93343.480447,-0.567399065,-0.163001232,-0.475273895,0.0149372746,-0.0191306129,-0.0349934106
93343.490474,-0.304366077,0.924350426,-0.039384816,-0.0241174498,0.0290520963,-0.0760250022
93343.500501,-0.822757827,0.211063625,0.255253379,0.000228103663,-0.00189889657,-0.0664251079
93343.510528,-0.267730748,-0.0668361335,0.889564844,-0.0422394616,0.035557133,-0.0569192139
93343.520555,-0.7385546,0.849534912,0.018228584,0.0273111197,0.0177578952,-0.0669609313
93343.530583,-0.661134091,1.47621771,-1.81774357,0.114161063,-0.0117552561,-0.059828986
93343.540610,-0.510973413,-0.00243541134,-1.00629859,-0.0642632735,-0.0579704225,-0.13189599
93343.550637,-0.0271347886,-0.119072238,1.28961922,-0.0946190474,-0.00643159744,-0.0840938469
93343.560664,-0.724334059,2.30055534,0.67955022,0.068672407,0.015921912,-0.0938346242
93343.570691,-0.685017801,1.49870353,-0.0102136666,0.0399408969,-0.00766144522,-0.142706827
93343.580718,-0.214840924,-0.453269578,-0.238131611,-0.0719217253,0.00532279707,-0.117717326
93343.590745,-0.187041319,0.280623008,-0.0684647801,0.0063142106,-0.00735504754,-0.110560507
93343.600773,-0.426819139,0.0432895122,0.91372664,-0.0684905169,0.00358761529,-0.137740732
93343.610800,-0.400089793,0.20081449,0.885292573,0.104809891,0.0549163156,-0.110985816
93343.620827,-0.86633335,0.95813338,-1.37158853,0.0929058301,-0.00589670023,-0.143833235
93343.630854,-0.193423202,-1.12827294,-0.858908471,0.0206284351,-0.0337815948,-0.14570731
93343.640881,-0.203043007,-1.20883452,1.55603729,-0.103510019,-0.0296576891,-0.0889191185
93343.650908,-0.563132676,0.808641761,2.92902309,-0.028629391,0.113641948,-0.147554741
93343.660935,-0.543837243,1.2313441,-2.92843803,0.210256155,-0.0106861295,-0.0939431791
93343.670962,-0.411229794,-2.4765084,-3.3592897,0.144813235,-0.0212229259,-0.140414805
93343.680990,-0.0238300754,-1.7313824,-0.0765154,-0.28568836,-0.0945330925,-0.0557872695
93343.691017,0.108516467,0.311608623,4.00897346,-0.310859491,0.0267099802,-0.124078706
93343.701044,-0.149315162,0.630140539,0.236109703,0.217670138,0.0582761586,-0.0429934417
93343.711071,-0.281870752,-0.59529762,-1.31713681,0.11674245,0.0514542058,-0.08616674
93343.721098,0.598865788,-1.10714861,-0.203086601,-0.145294492,0.0410210051,-0.0523624425
93343.731125,0.604404023,-0.688795403,1.56663876,-0.101406124,0.0797228672,-0.0469173459
93343.741152,-1.18619958,0.835514131,-0.0426657374,0.215431477,0.107636788,-0.0425814507
93343.751179,-1.16691299,2.13043156,-3.6005932,0.087537426,-0.055961731,-0.0551089612
93343.761207,-0.461224244,-0.938301276,-0.105130085,-0.107437384,-0.0657861299,-0.124557555
93343.771234,-0.0467270628,-0.389217779,1.75965023,-0.133825589,-0.0551747672,-0.0437423257
93343.781261,-0.509559564,2.56804118,0.136058845,0.066938411,-0.00679897905,-0.0806681221
93343.791288,-0.313525426,1.14141584,0.0815206142,0.0917857024,-0.0165946178,-0.125317887
93343.801315,-4.41519523e-06,-1.71220994,0.479902677,0.0230367328,0.0256148883,-0.0626350497
93343.811342,-0.0741240193,-0.504086084,1.40795276,-0.124919717,0.0451462426,-0.0717124348
93343.821369,-0.590379689,0.853299671,-1.93983616,0.216744151,0.0923790045,-0.0818154072
93343.831396,-0.788557452,-0.186795949,-2.33901142,0.123405415,-0.111154943,-0.106972695
93343.841424,0.621004299,-1.86885727,2.68478588,-0.040248767,0.0404577487,-0.0429750686
93343.851451,-0.43981865,-0.273851589,2.4771602,-0.342514087,0.049368684,-0.0692756479
93343.861478,-0.382326831,1.51304507,-3.49631683,0.204583626,0.00306696732,-0.0360982535
93343.871505,-0.846409775,-0.202169971,-1.1841119,0.128473144,-0.0565867752,-0.137082667
93343.881532,0.455629101,-1.70134295,1.94435739,-0.0741782305,-0.0308342736,-0.0339733181
93343.891559,-0.34899341,-0.291345689,2.60522485,-0.254247059,0.0522017561,-0.0416139257
93343.901586,-0.203727464,0.923456107,-3.54239878,0.220585491,-0.00413741606,0.0135851479
93343.911613,-0.47115454,-0.584618917,-1.07156864,0.112776208,-0.0282539364,-0.101532922
93343.921641,-0.433314346,-1.30052986,1.80203566,-0.153491158,-0.0609620839,-0.0244245534
93343.931668,0.765759245,-0.565258675,2.06800481,-0.168605675,0.0754221239,-0.0267180656
93343.941695,-0.0292110424,0.373589132,-1.10864194,0.00925567141,0.0397490792,0.00690966795
93343.951722,-0.720864118,1.08783601,-1.10489983,0.00919042389,0.0354949467,-0.0416360316
93343.961749,-0.334650522,0.0675532624,0.168962751,-0.00196023122,0.00887212608,-0.0542434347
93343.971776,0.129753645,-0.228781791,-0.465322994,0.0580956484,-0.000985298576,-0.00756914032
93343.981802,0.109382399,-0.670437325,0.292457613,-0.00615284545,-0.0175400387,-0.0259372262
93343.991830,0.0726126389,-0.462413108,1.77409552,-0.152738024,0.0613201529,-0.0201848005
93344.001857,-0.286170642,0.770388675,-1.96752555,0.0793924141,-0.023988885,0.00625772632
93344.011884,-0.534337484,-0.236862788,-0.853205291,-0.0381054548,-0.0365006841,-0.0665413742
93344.021912,0.226790663,-0.826230017,0.535222413,0.0231477856,-0.0470721006,0.000323670423
93344.031939,0.0775207961,-0.399313312,1.52359574,0.026264749,0.0277989459,0.00550991061
93344.041966,-0.39374784,-0.267458983,0.880162224,-0.0376271498,0.0387248293,0.0121792652
93344.051993,-0.300416061,0.981364399,-2.63474442,0.103953953,-0.0306419927,0.0496837641
93344.062020,-0.109387458,-0.594942779,-0.675369766,0.0901161688,-0.0278813608,-0.030767404
93344.072047,0.0389610287,-1.63693857,2.17163645,-0.0896011335,0.0176754713,0.0582218575
93344.082074,-0.512516405,-0.145828801,0.295521677,-0.220145558,-0.000594612947,0.0303577366
93344.092101,0.171678669,0.96015926,-1.3319369,-0.00683301687,-0.0599564753,0.0409850809
93344.102128,-0.114916487,-0.609192582,1.74434335,0.0125270984,0.0615116328,0.00764656483
93344.112155,0.125481292,-0.187277851,-0.39229809,0.169355329,0.089018897,0.0494334246
93344.122183,-0.842799256,0.77689192,-2.76816388,0.00973504084,-0.0837209217,0.027371
93344.132210,-0.181929236,-1.16095801,-0.162105771,-0.1024112,-0.0366966903,-0.00300954145
93344.142237,0.330145147,-0.855893918,1.87001614,-0.077323955,-0.0153218938,0.0437550354
93344.152264,0.497983119,0.252512218,2.77322346,0.0551994587,0.0973500617,0.0240375208
93344.162291,-0.433655926,1.05876218,-1.61311122,0.156100776,0.0245658689,0.0409944015
93344.172318,-0.445415045,-0.636765283,-2.25977246,0.0846817228,-0.0422595024,0.00684335546
93344.182345,0.192603968,-1.34619417,0.462399754,-0.136844282,-0.0377592921,0.04545493
93344.192372,0.337633128,0.424151847,2.10229754,-0.16877744,0.0268497959,0.0117560881
93344.202399,-0.0757860936,2.6207744,-0.653656532,0.0962728667,0.0113797577,0.0233315187
93344.212426,-0.750995564,0.526327953,-0.401746887,0.10905737,-0.00888316907,-0.0542788548
93344.222453,-0.532683067,-1.91583442,-0.353380623,0.0153897298,-0.0387185618,0.0344435568
93344.232481,0.410711626,-0.169402623,0.925955423,-0.189691786,-0.00200875119,-0.0170457312
93344.242508,0.326627531,0.560375586,-0.656606614,0.0737049687,-0.000324301925,-0.024365962
93344.252535,-0.546052654,-0.633655627,0.360955395,-0.0166678042,0.0265099768,-0.00354457044
93344.262561,-0.71785383,0.194166814,-0.635794712,0.113619629,0.0473742418,0.0289774197
93344.272589,-0.29001928,1.06462823,-1.49424402,0.018811095,-0.070852264,-0.0364977275
93344.282616,0.73030244,-1.21496126,1.49732148,0.032412387,0.00830300882,-0.0155732711
93344.292643,-0.870954434,-0.625126211,2.1313173,-0.172356192,0.0324155361,0.0194651405
93344.302670,-0.318958374,1.39799801,-1.95854554,0.244675111,0.0332997039,0.0163095607
93344.312697,-0.141614771,0.411085481,-1.37494544,0.0436882111,-0.042685873,-0.064000458
93344.322724,0.599723684,-1.12995892,0.672202196,-0.206952531,-0.05172491,0.00685027937
93344.332751,-0.387626873,0.528257826,1.80668729,-0.00909111136,0.0567773328,0.0124256075
93344.342778,-0.605733325,1.41755874,1.59219873,0.174881663,0.104950727,-0.0281860014
93344.352806,-0.614861731,0.107652131,-3.49266123,0.181097473,0.033221674,0.021725099
93344.362833,-0.135344257,-1.53835778,-2.96684112,-0.0954209384,-0.167249105,-0.0197600262
93344.372859,-0.0592800128,-0.694560105,3.54213102,-0.234701593,-0.0247809078,-0.00694010084
93344.382887,0.00540357219,0.0571437176,4.90631861,-0.0474369046,0.149658792,-0.0094935396
93344.392914,-0.218348092,0.914155195,-3.02285118,0.142918136,-0.00635582969,0.0810811068
93344.402941,-0.180698471,-0.990240868,-1.19379451,0.0277971323,0.0057703418,-0.0298970831
93344.412968,-0.398435231,-0.5014302,1.40258977,-0.434025903,0.0416689523,0.0131979244
93344.422995,-1.02736299,1.93710883,-2.67681013,0.0979634407,-0.106855004,0.0548428404
93344.433022,-0.593835346,-0.526106887,-0.0723384066,0.10661472,0.0123068046,-0.0533680548
93344.443049,0.258210906,-1.14133357,-0.805632808,-0.281473089,-0.157867334,0.0418692487
93344.453076,0.314189197,0.345608946,2.96806389,-0.095293906,0.0979668506,-0.00121883259
93344.463103,-0.429839802,0.882011021,1.70210463,0.226145904,0.114962079,0.0383413578
93344.473130,-0.55371,-0.706261283,-3.15616016,0.195831414,0.0355183825,0.027087375
93344.483157,-0.459863586,-1.66403715,-0.94212919,-0.213202958,-0.0921325154,0.0290053836
93344.493185,0.463427207,-0.579648508,1.73815619,-0.273797323,0.00456765837,0.0143891559
93344.503212,0.586308176,0.536850078,-0.472762789,0.011699921,-0.0514553964,0.072194397
93344.513239,0.231593916,0.315134386,1.24598174,-0.0256410581,0.0534680866,0.0301606613
93344.523265,-0.886472613,0.441905457,-0.811507837,0.071334492,0.018242725,0.0674071009
93344.533293,-0.752761185,1.01741596,-1.51523829,-0.0504923467,-0.0506029196,0.0261805686
93344.543320,0.175742229,0.190138819,-0.0156432905,-0.0620555286,-0.0663650997,0.0315095554
93344.553347,0.815057018,-0.472953645,1.25047847,0.148002903,0.0414335288,0.0597992497
93344.563374,0.352208985,-1.67658844,0.310584221,0.139456283,0.0307678383,0.104337424
93344.573401,-0.477399243,-0.805058415,0.0654450932,-0.255129893,-0.0264674883,0.0691376175
93344.583428,-0.155046088,0.752458978,0.530200786,0.0262040286,0.0571632244,0.0186145263
93344.593455,-0.827708582,1.6384842,-1.40419608,0.115518618,-0.0384728193,0.109312191
93344.603482,0.0772274757,-0.71175988,-0.712063713,0.0557037513,-0.039901606,0.0301137767
93344.613508,0.443421873,-0.886826817,0.599746616,-0.134635035,-0.025195894,0.0533946003
93344.623536,-0.223758098,0.159708426,1.61106944,-0.0121269585,0.0350994028,0.0499202381
93344.633563,-0.275105313,1.38514701,-0.38712098,0.0842294055,0.0215058316,0.0620863582
93344.643591,0.0197021444,0.161601035,-0.651793076,-0.0192943239,0.0248494305,0.00736079455
93344.653618,-0.11675026,-0.85171539,-0.697916529,-0.065750238,-0.0205638569,0.0568244825
93344.663645,-0.057418539,0.0204086631,1.04472676,-0.0105530298,0.0222006504,0.0419062557
93344.673672,-0.00259445909,0.164358389,0.731285084,0.0962461266,0.0478157297,0.0304711736
93344.683699,-0.302970933,-0.392726883,-1.53971982,0.0114739747,-0.0293711975,0.0410844045
93344.693726,0.341077972,-0.642516175,-0.761756257,0.0066323476,-0.0242214419,0.0391426901
93344.703753,0.0471645696,-0.443898779,0.804008375,-0.120363947,-0.00460060422,0.0351309064
93344.713780,-0.185170191,1.10801758,-0.179261489,0.0357207242,-0.0327193245,0.0222353483
93344.723807,-0.985400605,0.907554116,-1.10744718,0.0557628754,-0.0612178102,-0.0122001232
93344.733834,0.311188737,-1.40985182,0.161499575,0.0717216018,-0.0429285533,0.0424444782
93344.743861,0.00552285119,-0.342571288,2.82275643,-0.177375842,0.00909150563,0.0257326117
93344.753888,-0.437497842,1.16948429,0.181053002,0.278347741,0.0747072704,-0.012391605
93344.763914,-0.555228479,0.526416691,-2.24657045,0.101587895,-0.0195260226,-0.00364365385
93344.773942,-0.397633267,-1.16175464,-0.666407292,-0.164492,-0.0375202067,0.0050789979
93344.783969,-0.821705323,-0.756532577,-0.143969811,-0.0156934638,-0.0399340942,0.0203503626
93344.793996,0.271138375,-0.0874339496,1.99972623,-0.0443650563,0.02839543,0.0144557222
93344.804024,-0.826650232,0.240111221,-0.290891141,0.163329284,0.0324077465,0.0371322701
93344.814051,-0.345868447,0.572147601,-1.55720053,0.0616780217,-0.0120867502,0.0210102941
93344.824078,-0.173743738,-0.805046797,0.286032548,-0.0698038307,-0.0231388669,-0.0102658705
93344.834105,-0.236162821,-0.850873606,2.72342745,-0.0908230958,0.0192722388,0.0409666928
93344.844132,-0.140345417,0.811063508,1.5996584,0.180716794,0.164123707,0.0244407127
93344.854159,-1.23143829,2.19734119,-4.1003372,0.199183952,0.00702143073,0.0275632678
93344.864186,-1.26585655,-1.85624768,-3.72503323,0.0724515799,-0.185907549,-0.0418416378
93344.874213,0.392658813,-1.61681874,3.12464153,-0.300222416,-0.120197772,0.0448075006
93344.884240,0.829413314,0.501415557,7.73408529,-0.260034759,0.21226167,-0.0175826387
93344.894267,-1.3422974,1.06085302,-4.58657524,0.504784595,0.100103439,0.0864095385
93344.904294,-1.18064458,-0.283334854,-5.30162438,0.0882814038,-0.151448376,-0.00244310082
93344.914321,-0.0753977975,-1.01212259,2.36731626,-0.393473257,-0.0798506133,-0.00461117973
93344.924348,0.50159371,-0.412538083,5.0481014,0.034187011,0.171838083,0.0296000535
93344.934375,-0.449900776,0.153746504,-3.24864205,0.201406355,0.0750526794,0.101994618
93344.944402,-0.769803359,-0.536728417,-3.23367712,-0.245614011,-0.120472609,-0.0154928551
93344.954429,-0.268229473,0.0991433917,1.97870916,-0.309159715,4.52804004e-05,-0.000540005537
93344.964456,-0.347530425,1.50264,2.14154526,0.177385445,0.0305107784,0.0628826464
93344.974484,0.43124756,0.291617317,-0.651893614,0.155132334,0.0612622992,0.012737717
93344.984511,0.406809942,-1.31294934,-2.12026462,-0.0656836596,-0.0752508036,0.0158086079
93344.994538,0.103934482,-0.759917762,2.90418734,-0.151679803,0.0294851948,0.0253365985
93345.004565,-0.598157593,0.452858849,1.20368866,0.231721382,0.147582271,0.0205586212
93345.014592,-0.219467013,1.25113528,-5.75023967,0.0600244659,-0.103486172,0.0947737242
93345.024619,0.0196296294,-1.83213556,-0.338947024,-0.0999271166,-0.0806956358,-0.0131308981
93345.034646,0.786872249,-0.964103825,6.0221557,-0.304845918,-0.00141253396,0.0508352997
93345.044673,0.186759882,1.07689471,1.66074386,0.237236794,0.180796155,0.0148360212
93345.054700,-0.773797689,2.4606043,-4.1979658,0.0120513481,-0.0261591591,0.0659892256
93345.064727,-0.538547941,-0.967336889,-0.8652669,-0.0156234228,0.00509410103,-0.0593426046
93345.074754,0.627889675,-0.801626248,1.00512774,-0.113422949,0.0132553576,0.0476448345
93345.084781,-0.20829216,1.21132028,-1.59793294,-0.065737721,-0.109493992,0.0220862101
93345.094808,0.0502866518,0.0346550096,1.87855659,-0.0910465387,0.0373859935,-0.0392016475
93345.104835,0.0631074179,0.773887623,0.292108069,0.121882241,0.0570859284,0.0265195756
93345.114862,-0.421890706,2.53059232,-2.24718771,0.0692869457,-0.0250547465,-0.0480364193
93345.124889,-0.65098986,0.00339126725,-0.45518154,-0.066485804,-0.122971452,-0.0822865372
93345.134916,1.27410062,-0.812815605,3.27626475,-0.0348080364,0.0398542106,-0.0265955744
93345.144944,0.844451016,0.192386251,1.54097883,0.0554004195,0.0833071478,-0.037818667
93345.154971,-0.290921124,0.299817081,-3.44749815,0.279033761,0.0853849508,-0.00509427723
93345.164998,-1.01447933,-0.939287291,-4.29441483,-0.0563921598,-0.241238437,-0.0691944366
93345.175025,0.309326962,-0.190163873,4.64276002,-0.474315633,-0.0523297779,-0.0723795747
93345.185052,0.934731664,1.45311755,4.24541782,0.414853137,0.134361812,-0.0118906652
93345.195079,-0.178812894,1.66351138,-2.21436446,0.348464261,0.152796217,-0.0252898266
93345.205106,-0.300545021,-1.06676114,-4.45539918,-0.0845652041,-0.0739338688,-0.0534405043
93345.215133,-0.373533502,-0.719055371,0.00827359171,-0.332411219,-0.0416403815,-0.0702402597
93345.225160,0.212217235,0.434731364,3.51638926,0.0682496387,-0.00680330458,-0.027207837
93345.235187,0.599718934,1.54826164,2.69349175,0.158806171,0.149470993,-0.0300126751
93345.245214,-0.361457098,1.56618206,-4.10362221,0.212045948,0.0785621934,-0.0507762772
93345.255241,-0.527353835,-1.39665331,-2.69539558,-0.139474798,-0.224095947,-0.117042646
93345.265268,1.03879497,-0.378700915,3.68808439,-0.418095787,0.0501449302,-0.0657168781
93345.275295,-0.534114415,2.24747973,-0.28866119,0.186093177,-0.0437959462,-0.0297759217
93345.285322,0.328928976,0.364054082,0.282155415,0.185272391,0.00706084569,-0.136090369
93345.295349,0.775254584,-2.23879183,0.957071277,-0.0627400693,0.037935403,-0.0297061471
93345.305377,0.432009631,-0.373608706,-0.0782198659,-0.236782436,0.0471161202,-0.0505943825
93345.315404,-1.49094511,1.07613936,-2.98480231,-0.0191925918,-0.131688512,-0.0492305798
93345.325431,0.465320583,-0.451317604,1.2008473,-0.0211830386,-0.00472630529,-0.0818337952
93345.335458,0.706246368,-0.128565796,1.37138098,0.0335116307,0.0335358613,-0.0425921162
93345.345485,-0.255882434,0.540527159,0.0577679827,0.0958897951,0.023780438,-0.0376583454
93345.355512,-0.192856398,-0.643056858,-1.65086958,0.0641955095,0.0344155029,-0.0279844147
93345.365539,-0.00723622048,-0.999287148,-1.93926099,-0.14735723,-0.146770529,-0.0422962387
93345.375566,0.779889112,-0.299108798,3.46637757,-0.219215695,0.046185878,-0.0346692135
93345.385593,-0.240598813,0.810343085,0.0648862903,0.211121838,0.0607890532,0.0110681806
93345.395620,-0.313456525,0.148945808,-2.17299434,0.151832144,-0.0521955557,-0.0627439921
93345.405647,0.738027262,-2.16363546,0.763409822,0.0659137848,0.0180815392,0.00949931282
93345.415674,-0.256783347,-1.66077552,0.894024161,-0.123405811,-0.0484269142,0.037469163
93345.425701,0.341471172,-0.439599803,1.29986706,-0.244031568,0.000886839253,-0.00119674069
93345.435728,0.12326062,0.835713453,-1.97910083,0.385420661,0.0741346933,0.0457334849
93345.445755,-1.00969545,-0.297446746,-2.4703944,0.286809664,-0.108349099,-0.0296299798
93345.455783,0.719035561,-2.52980686,1.00001727,-0.0925536198,-0.0426289469,0.0843453253
93345.465810,0.179644387,-0.565828036,2.80526812,-0.411868502,0.00365892363,0.0525988447
93345.475837,0.28417946,1.86155266,0.0537517328,0.286686103,0.125731566,-0.00034452931
93345.485864,-0.27870774,1.84635144,-0.935080441,0.0694352794,0.0548211754,0.00762684408
93345.495891,0.0692478523,-1.81274493,-0.454318785,0.155074816,0.0697793596,0.0320680062
93345.505918,-0.446337786,-0.75553867,-0.503261972,-0.244839568,-0.0361212484,0.0287025678
93345.515945,-0.379353623,1.55192542,-0.0181298466,0.106038566,0.0290106189,-0.0826644306
93345.525972,-0.243460102,0.616000078,-0.90913293,0.146099697,-0.0343025729,0.0165082211
93345.535999,1.23122667,-0.709360053,1.71447545,-0.179970298,-0.00329379101,-0.022780065
93345.546026,-0.1164169,1.12540586,1.29478698,0.0905110049,0.102689103,-0.0593572525
93345.556053,-1.03102941,1.41832549,-2.12387288,0.0911419052,-0.0801949642,0.00904045018
93345.566080,0.454869296,-1.11430352,-0.312650553,-0.10062087,-0.0300484385,-0.063255847
93345.576107,0.160057497,0.139799081,2.05488639,-0.272256274,0.0125962252,-0.0550868702
93345.586134,-0.403269154,2.29602544,-0.590067564,0.0959473136,-0.0394049242,-0.0242048544
93345.596161,0.162522864,0.0264074651,-0.60701753,0.20507441,0.0418320045,-0.107064941
93345.606189,0.252527289,-2.4262933,-1.57150495,0.072971243,-0.0720362432,-0.00089935449
93345.616216,-0.224692712,-0.924996754,1.45936263,-0.211413626,-0.00896646005,-0.0375375268
93345.626243,-0.893427181,0.690984445,2.29803639,-0.292148132,0.0125902312,-0.0948514198
93345.636270,0.00154310651,2.090936,-1.71547503,0.0337575297,-0.035422302,0.00955168854
93345.646297,-0.0201065979,0.806517243,-0.648100067,0.00396208116,-0.0162262387,-0.0950253238
93345.656324,0.259262607,-0.785022173,0.889205947,-0.151587312,0.0139066315,-0.0419535791
93345.666351,-0.706641531,0.590351732,0.848280647,0.0606719661,0.0409936428,-0.0304945302
93345.676378,-0.0979228828,0.889412968,1.04015522,0.00799277565,0.0509109877,-0.0831516166
93345.686405,0.517525658,-0.919513573,1.67954735,-0.133192052,0.118863673,-0.0539468569
93345.696432,-0.580752942,0.739234389,-4.33829898,0.180563207,0.026810712,0.0223423182
93345.706459,-1.26360979,-0.200663164,-2.74807445,0.100278761,-0.132689989,-0.163205162
93345.716486,-0.0396829803,-1.93549818,1.01497343,-0.0988167641,-0.138423777,-0.0413005729
93345.726513,-0.0531344593,-0.557514783,3.27435804,-0.192403172,-0.0075390061,-0.0318111969
93345.736540,-0.456579633,1.05127219,-1.30442989,0.270611625,-0.00938457639,-0.0362597411
93345.746568,-0.573813681,0.0683445087,-2.05255185,0.15106843,-0.0485434301,-0.0433504065
93345.756595,0.547986226,-1.8596097,0.96479398,-0.0536487517,-0.0357799671,0.0217311228
93345.766622,-0.180775536,-0.272746349,2.70495539,-0.307438661,0.0905449473,-0.0118982098
93345.776649,0.0779189468,1.55098566,-1.09425861,0.274552296,0.108359367,-0.0182378632
93345.786676,-0.58668573,0.790696354,-1.32322811,0.0734977531,0.0727968447,-0.0193878156
93345.796703,0.079087808,-1.10055206,0.873778076,-0.165000309,-0.00477224743,-0.000564328888
93345.806730,0.0590810439,0.539878742,1.58830465,0.10123324,0.130355486,0.00610289487
93345.816757,0.0630896082,1.01398832,-2.44255304,0.184786181,-0.0270882073,0.034907646
93345.826784,0.601740248,-2.28732409,-1.25685039,0.110100504,-0.046203579,-0.00719799616
93345.836811,0.210196999,-1.3673676,2.39737471,-0.245942835,-0.0515285685,0.0271016541
93345.846838,-0.671946504,0.507465834,0.614844816,-0.0724077937,0.0146794811,-0.0360168596
93345.856865,0.059474491,1.15154049,-3.38874785,-0.0107910321,-0.148215956,0.0929035688
93345.866893,-0.579915213,-0.95566596,-0.117389847,0.0383413616,-0.0763034217,-0.00934610286
93345.876919,0.597036198,-0.65980056,2.19217421,-0.120823261,-0.0497021742,0.0339084263
93345.886946,0.721557115,0.143461229,2.46819422,0.00683403388,0.100210094,0.0148322037
93345.896973,-0.255904993,0.124392902,-0.0339323959,0.104719053,0.114745096,0.0551292929
93345.907000,-0.443197954,0.0783533729,-2.2614968,0.00659248513,0.026148117,0.0424087043
93345.917027,-0.11539711,-0.546963615,-1.60089004,-0.10576601,-0.00727481969,0.0147520429
93345.927054,-0.1500369,-0.0471441892,0.17804096,-0.0318861981,-0.0791625894,0.0348586435
93345.937081,0.85192011,-0.0696179782,2.91737415,0.17395937,0.0904583939,0.0219271327
93345.947108,0.607887007,-1.23780072,0.544123513,0.0712540406,0.0660641052,0.0521729211
93345.957135,-0.571487138,-0.649727641,-1.92194278,-0.18323179,0.000489093209,0.0348708923
93345.967162,-0.450087311,1.45282266,-2.84288916,-0.105725799,-0.147911019,0.0455293986
93345.977189,0.0972879838,0.0544213754,1.8582088,0.0636491138,-0.025333184,0.00445359943
93345.987217,0.11778576,-0.582199069,2.49431124,-0.0371603225,-0.0139036944,0.0436433474
93345.997244,0.11257272,0.89744861,-1.59997818,0.164915811,0.0247092106,0.0203449479
93346.007271,-0.112111165,-0.411116453,-2.36084214,-0.0205589742,-0.0974680997,-0.0310306256
93346.017298,0.249237728,-0.5999807,1.99419431,-0.318375756,0.00252614527,0.00537505324
93346.027325,-0.478862192,1.33558905,0.995649721,0.115168232,-0.0110764822,0.0291072796
93346.037352,0.540460032,0.58672755,0.406488481,0.111860584,0.0777263575,-0.00854662203
93346.047379,-0.482416779,-0.688355405,-1.56134187,0.00636798097,-0.0224710844,0.0208099368
93346.057406,0.117757045,-1.1861474,-0.186953212,-0.115498003,-0.00752808635,0.0325089353
93346.067433,0.427329985,0.104155119,2.65794288,-0.211036776,0.038750463,0.0366823743
93346.077460,-0.899033404,2.31548841,-0.918377728,0.256527494,0.0406173364,0.0447376403
93346.087487,-0.932487491,-0.650177065,-3.18541314,0.1700637,-0.133728362,-0.0532080983
93346.097515,1.06448661,-1.72737419,2.10461459,-0.330255289,-0.0378476448,0.0438313666
93346.107542,0.0189469992,0.0502088631,3.08887463,-0.177664984,0.0720287867,0.0220309938
93346.117569,-0.161776438,2.220936,-2.61729586,0.0504036169,-0.0470049224,0.0618380638
93346.127596,-0.796746165,-0.081910784,-0.00835956319,-0.0158702121,0.0231248968,-0.0971867447
93346.137623,0.0435353006,-1.00829616,0.286480292,-0.0713824746,-0.0064913185,0.0331859099
93346.147650,0.203773652,0.60019066,0.641270466,0.00686785626,0.0654491864,0.00444800683
93346.157677,-0.236473933,0.22735372,-0.673233923,0.0723091844,0.00953398723,-0.0183265475
93346.167704,-0.188490239,0.0354428447,-2.64467136,-0.00134373456,-0.0292845156,0.0048128599
93346.177731,-0.264989833,-0.49679074,0.342046697,-0.0806691837,-0.0749494724,-0.0440617358
93346.187758,0.492397135,-0.21917437,2.93007055,0.00956750243,0.0537467197,-0.00694339865
93346.197786,0.782008223,0.472967133,0.443327389,0.00622656709,0.0536758796,0.00362668789
93346.207813,0.0392272464,-0.105661772,-0.306174635,0.0671258676,0.0773516529,-0.011545341
93346.217840,-0.236675867,0.597858418,-2.74214214,0.123773973,-0.0411382459,0.0489864456
93346.227867,0.508870569,-1.48692731,0.00329697234,-0.0112586836,-0.050424955,-0.010965304
93346.237894,0.838634731,-0.960036064,3.06608588,-0.299795408,-0.00169283458,0.0432119141
93346.247921,-0.144075425,0.762637988,-0.775028995,0.22342066,0.00865114931,0.0445741224
93346.257948,0.270129819,-0.219268441,-0.0969105378,0.1707745,0.00692568751,0.0151214241
93346.267975,0.0636068188,-1.20539914,0.764415784,-0.209187482,0.0260778096,0.0441623958
93346.278002,-0.263973733,0.980763729,-4.00217844,0.0722399387,-0.0996713333,0.036428045
93346.288030,-0.131361581,0.781709622,1.25088705,0.0349985617,-0.0223405894,-0.0586699737
93346.298057,0.304099327,0.153206534,2.08833448,0.168931316,-0.0256138809,0.0179563588
93346.308084,0.00710022918,-0.427683557,0.818512701,0.125380646,0.116554179,0.00155554756
93346.318111,-0.693634677,-0.237659729,-4.86134554,-0.0196684119,-0.0409379743,0.0770420427
93346.328138,0.121022102,0.87692685,-0.206240097,-0.348874528,-0.102625041,-0.0389588555
93346.338165,0.560042502,1.49412658,6.54731646,0.232846926,0.139184662,0.0133200618
93346.348192,-0.290856863,1.42249255,-0.487751684,0.516283702,0.176658266,0.00515480942
93346.358219,-0.384267005,-0.681387173,-6.89359429,0.0301353629,-0.166663147,-0.0157755059
93346.368246,0.943831209,-1.36274827,1.36071462,-0.328867276,-0.00261109245,-0.070496813
93346.378273,0.545123677,-1.03202995,4.65826096,-0.215309028,0.00202893311,-0.0268515912
93346.388301,0.250059072,-0.461460154,0.405455631,0.271572481,0.124112227,0.03671167
93346.398328,-0.800784042,2.68368357,-3.66278457,-0.032029741,-0.0882437072,-0.0299429898
93346.408355,-0.812274062,-0.55955491,-0.990960149,-0.0121556357,-0.0709624506,-0.133152992
93346.418382,1.12357732,-1.31328047,2.50308257,-0.267237444,-0.110036618,0.0213987599
93346.428409,0.312360996,2.48686132,1.84042063,0.29780836,0.102027171,-0.0123075373
93346.438436,-2.02585337,0.137421611,-2.18590935,0.170706044,-0.0623252906,-0.128066883
93346.448463,1.03827036,-2.00230815,-1.42132257,-0.380839397,-0.0167988177,0.0172570119
93346.458490,-0.499583712,1.4029682,-0.544927277,-0.0167887364,-0.108840062,-0.0331110847
93346.468518,-0.191272892,1.20473396,4.70545818,0.140987839,0.123991587,-0.075089701
93346.478545,0.0877042451,-2.08084802,-0.549615727,0.231486585,0.0838945069,0.0304210181
93346.488572,0.365002124,-1.34654751,-3.49366895,-0.0776137379,-0.0100873841,0.0373841184
93346.498599,-0.903141935,-0.336835046,-0.198788027,-0.242100422,-0.079346887,-0.0317643252
93346.508626,0.498240454,0.413804421,1.96424516,0.0591843235,0.0342252188,0.00470846376
93346.518653,0.228712406,2.36844259,0.844861778,0.00605745614,0.0196539991,0.0144303334
93346.528680,-0.137681002,0.467622776,0.692001706,0.13510118,0.0846764081,-0.0284271171
93346.538707,-0.232075917,-0.762661289,-3.05989291,0.132747214,-0.0124783704,0.0481755133
93346.548735,0.276297054,-1.13577352,-1.1637191,-0.129051898,-0.088817618,-0.0181041737
93346.558762,1.11005988,-0.0425841102,4.16213865,-0.341356952,0.00683806914,-0.0115623842
93346.568789,0.139133787,1.78433206,0.252980758,0.311948668,0.113131487,0.0536714787
93346.578816,-0.496484175,0.532475699,-3.69759694,0.166649784,-0.0246410288,-0.00298434359
93346.588843,0.950221421,-2.02288566,-1.15977592,-0.288532097,-0.106080226,0.0211153994
93346.598870,0.949085695,0.515080072,3.88631797,-0.37309267,0.0312653043,-0.0194799328
93346.608897,0.310253575,2.53988797,0.955207821,0.24313509,0.0617260084,0.0200395132
93346.618924,-0.0880188353,-0.364529145,-2.15048499,0.303927879,0.00857597108,-0.0439506551
93346.628952,1.3216408,-2.332728,-0.983122295,-0.137637545,-0.0501784227,0.0159220001
93346.638979,0.198577818,-0.610800273,2.61895352,-0.363932986,-0.0274512704,-0.0196839297
93346.649006,0.265536956,1.27370352,-0.702162496,0.492807518,0.148154639,0.0267783771
93346.659033,-0.481696136,3.10475707,-3.49249172,-0.184629027,-0.22188013,-0.0347616826
93346.669060,0.172784201,-1.23288255,0.925450396,-0.0127185113,-0.0126478245,-0.117821955
93346.679087,1.21961192,-1.94136239,2.31108642,0.0515371743,0.0143142844,0.0472410428
93346.689114,-0.162814859,0.221892422,1.89989865,-0.119182107,0.0588457965,-0.039017946
93346.699142,0.0675437975,0.512316233,-2.47695625,0.185479518,0.0471164368,-0.0230419082
93346.709169,0.248772869,0.355756392,-2.07801713,-0.0962815848,-0.0764712758,-0.0334657883
93346.719196,0.254311761,-0.193524727,1.41262543,-0.20328394,0.0159606513,-0.0411167858
93346.729223,-0.261154237,1.89314314,0.977346587,0.18624119,0.00425951959,-0.0302367066
93346.739250,0.481340356,0.129235355,0.28241845,0.218097653,0.0587113098,-0.0889620711
93346.749277,1.12057528,-2.49583036,-0.453581119,-0.00499800825,0.0114452605,-0.0104009495
93346.759304,-0.179813852,-0.97622469,0.357104565,-0.259964515,-0.00296430445,-0.0287618456
93346.769332,-0.431030619,0.672362455,-1.35248518,0.064272407,0.00481398994,-0.0610340317
93346.779359,0.0503760425,1.25949131,-0.196224899,0.0724919844,-0.0513515465,-0.056345806
93346.789386,0.951625589,-1.03186533,2.2301921,-0.0493510892,0.0268505838,-0.0525915479
93346.799413,-0.086265845,0.24473004,-1.80554693,0.084455173,-0.0086490886,0.00834317642
93346.809440,-0.445474959,1.44198869,-0.951456406,-0.00373140862,-0.0375782095,-0.0719676395
93346.819467,0.244445763,0.126601837,0.696926302,0.00356645161,-0.0149583837,-0.0292782341
93346.829494,-0.112428195,0.478085462,1.42279903,-0.00899993954,-0.00227987223,-0.0560936039
93346.839522,-0.379578628,0.574880899,0.488219839,0.125949617,0.0240446765,-0.0437762183
93346.849549,0.297194187,0.0653935453,-1.35899851,0.025700781,0.0181953095,-0.0602185731
93346.859576,0.338056249,-1.11856907,0.369301199,-0.14949048,-0.00272648424,-0.0475725537
93346.869603,-0.256605798,0.30191082,1.1498957,0.0595383751,0.0942970001,-0.0382845109
93346.879631,-0.455917954,2.0466649,-1.00509973,0.100281272,0.0091805084,-0.0751261493
93346.889658,0.0147578952,-1.14833701,-0.337067786,0.068421613,-0.0115300959,-0.0858919774
93346.899685,1.28489907,-1.75999782,1.02806204,-0.112630729,0.0304037731,0.000784060424
93346.909713,0.618806643,0.022828433,2.51551243,-0.353108842,0.0438655176,-0.0389955757
93346.919740,-0.627414923,1.97048123,-2.27281607,0.447140168,0.117689409,0.0061276932
93346.929767,-0.868992705,0.794966067,-2.94686041,0.0707566696,-0.161751292,-0.125243649
93346.939794,0.513686445,-2.54117435,-0.999808641,-0.101925623,-0.0596185319,-0.0374229816
93346.949821,0.21767888,-1.66041107,0.0471922282,-0.152711843,-0.126276112,0.0119067528
93346.959848,0.763089734,0.173427356,4.39627007,-0.122615185,-0.00334060906,-0.0433351961
93346.969876,-0.421990732,-0.0713470761,1.38052582,0.237182136,0.132592999,-0.0293040653
93346.979903,-0.39691646,-0.231877017,-4.39512854,0.158249508,-0.0321890369,0.0556206773
93346.989930,-0.0826217985,-1.77358474,-1.2910607,-0.0673703072,-0.0628183178,-0.00391375602
93346.999957,-0.0632320064,-0.83320519,2.77531722,-0.391820539,-0.0741647102,0.0420587952
93347.009984,0.82012811,1.88310398,1.56250911,0.311889927,0.117904597,0.0350576113
93347.020011,0.0193383731,2.56530006,-0.230395464,0.0958337965,0.115858757,0.00526722564
93347.030039,-0.598363125,-0.957642082,-1.86420896,-0.07115439,0.0274274245,0.00311672312
93347.040066,-0.255928191,-0.230758644,-1.55095433,-0.0427017105,-0.0542043253,0.0347651983
93347.050093,1.11324246,0.410154885,2.65846778,0.00399655221,0.0313912712,-0.0286691678
93347.060120,0.558730944,-0.958652063,2.91982681,0.096356574,0.129497074,0.0300729735
93347.070147,-0.315425122,-0.172519897,-3.45729649,0.230987351,0.112990797,0.0786514277
93347.080174,0.0984101106,0.824071677,-3.25457494,-0.249019195,-0.218544266,-0.0543665444
93347.090202,0.46867362,-0.557132871,2.63333919,-0.101214555,-0.0164438944,-0.0122028445
93347.100229,0.269945256,-0.0138005947,2.4260005,0.139317896,0.0368230537,0.0877823452
93347.110256,0.147615245,0.916925025,-2.18001036,0.139975961,0.0179484345,0.0103717069
93347.120283,0.549461669,-1.62680895,-2.3314214,0.0619711722,-0.0874432318,-0.00661340219
93347.130310,0.54757655,-1.12115426,1.8903651,-0.279175479,-0.0509238422,0.0476178783
93347.140337,-0.177951053,1.39408581,1.44940296,0.137845423,0.086395935,-0.0126241562
93347.150365,-0.499115217,2.04140318,-1.24770847,0.0374634336,-0.0659137062,0.0296719013
93347.160392,0.945555987,-1.39345086,0.293163131,0.0676618102,0.0454674073,-0.00808293422
93347.170419,0.89510656,-0.87480079,0.721846809,-0.186319326,0.0402566687,0.0450015883
93347.180446,-0.451724923,1.51395123,-0.936305014,0.0814465988,0.0268564418,-0.00371135541
93347.190473,0.0816187695,1.25558802,-1.13048377,0.0747961509,0.000931101057,-0.0230541607
93347.200500,1.01056235,-0.995161811,1.27673052,-0.158807818,0.0104266012,-0.00394757793
93347.210528,0.184203567,1.00601434,0.933708521,0.137341823,0.0571525589,-0.0171573893
93347.220555,-0.473473996,1.62771935,-0.608344395,0.190811973,0.00831258468,-0.0442164359
93347.230582,0.862407821,-1.46700622,-1.11287271,-0.0210696538,0.00803907759,-0.0470689503
93347.240609,0.42676636,-0.944520881,-1.06641666,-0.1541566,-0.0742587216,0.000816018758
93347.250636,0.0347773315,0.563041883,1.64954968,-0.0759813753,-0.0180867977,-0.0129951355
93347.260664,-0.00400323447,1.3047032,2.15879567,0.134406488,0.029825867,-0.0295562675
93347.270691,0.114864566,0.0827595628,-0.358011205,0.144140344,0.0191428632,-0.0376930242
93347.280718,0.249195003,-1.53072159,-2.03077491,-0.0446410221,0.00236867539,0.0174221596
93347.290745,-0.355659919,-0.172224805,-1.73131967,-0.210270737,-0.121471509,-0.00156724409
93347.300772,0.475024962,1.52765388,2.40006644,-0.06691118,-0.0130371788,-0.052913521
93347.310799,-0.24848889,0.496932311,1.84516929,0.22914524,0.0926463761,-0.00640381084
93347.320827,-0.431458855,-0.351050911,-2.70564342,0.111708369,-0.0435655296,-0.00590580006
93347.330854,0.398482369,-1.40414016,-0.270002667,-0.0963636083,0.0246857003,-0.0254454133
93347.340881,0.0397496355,-0.991031068,0.883149716,-0.311132092,-0.0673997469,0.010026827
93347.350908,0.312638424,0.727388322,1.60368225,0.0734696346,0.0650797271,0.0279640159
93347.360935,-0.627641133,1.66487259,0.0701499099,0.19986939,0.0644996919,-0.000764567899
93347.370963,-0.0638266022,-0.510759754,-1.90901257,0.0909418347,-0.0327000983,-0.0244019856
93347.380990,0.886050635,-1.93338937,-0.0392813557,-0.0472732936,0.0394017928,0.0291376705
93347.391017,-0.293144152,-0.59401843,0.191521789,-0.29070272,-0.0639046199,0.027930194
93347.401044,0.234680375,1.54818609,0.0779965318,0.0951208654,0.00610216086,-0.0170500637
93347.411071,0.0170811505,0.579873045,1.31723379,0.142883595,0.0586282172,-0.0304777217
93347.421099,0.157675662,-1.51097717,-0.701933364,-0.0788975325,0.0153513186,0.052115425
93347.431126,0.291612222,0.338447238,-1.61836081,-0.0651305881,-0.039211794,0.0125080947
93347.441153,0.8179599,-0.144262319,1.50126174,-0.0370898959,0.048517526,-0.0248099831
93347.451180,0.277225604,-1.01738153,1.08990855,-0.0221309219,0.0349894695,0.0603493857
93347.461207,0.160861562,1.04210711,-0.972163679,0.167228084,0.0438940123,0.0419437471
93347.471235,-0.070618637,-0.255277492,-2.04829186,0.124564241,-0.0641451023,-0.0176580628
93347.481262,1.18963465,-1.70499986,1.68680945,-0.113838207,-0.00395606567,0.0571839544
93347.491289,-0.0205645251,0.021432202,0.964844833,-0.23858041,0.00820073191,0.0247474494
93347.501316,0.700625606,2.0780999,-2.05634131,-0.0447760452,-0.0877894453,0.0608178372
93347.511343,0.0618717569,-0.201463229,1.85144179,0.0747833732,0.0463321366,-0.0272217398
93347.521371,0.192677088,-1.30428585,0.545750237,0.0557327191,0.0136556847,0.0508887726
93347.531398,0.810539248,-0.457937095,-1.57114313,-0.0271182251,-0.000376244812,0.029443135
93347.541425,0.909366775,-0.216453786,0.118659966,-0.145869915,0.0279235699,-0.00499286831
93347.551452,-0.605523445,0.323740631,-0.190810472,0.0547513436,-0.0236109934,0.0511260624
93347.561479,0.563308627,0.148895338,1.33087419,0.00120662456,0.0167356309,0.0140527277
93347.571507,1.09175163,-0.0538448468,0.395954228,0.0473834421,0.0467808813,0.0304303704
93347.581534,-0.0483228852,0.350619176,-1.18027568,0.0848621014,0.00895706921,0.0284236776
93347.591561,-0.00295744261,-0.17266378,-1.37240394,-0.0416273889,-0.0579977289,0.0140295583
93347.601588,0.470995853,-0.549105522,1.44490214,-0.144097496,-0.0313855402,0.0237727905
93347.611616,0.350425536,0.742290781,0.316376833,0.323244404,0.108797402,0.0556004937
93347.621643,-0.359934089,1.75692704,-3.85360817,0.058973066,-0.16279336,0.00867053538
93347.631670,0.583124285,-1.90310295,0.444716213,0.0365734841,-0.0039658995,-0.0246799649
93347.641697,0.166737322,-1.61467369,2.27935331,-0.381496717,-0.0614800594,0.0777601222
93347.651724,0.627034081,1.7834579,0.0765030783,0.204703372,0.0723094277,0.0246242019
93347.661752,-0.283630894,2.06150912,0.762211552,0.0535601894,0.0371035047,-0.0332401623
93347.671779,0.736823366,-1.71927009,1.12534636,0.116571646,0.097818517,0.00761299438
93347.681806,0.0655423625,-0.928411896,-0.838643097,-0.18862075,0.0131731395,0.0488587017
93347.691833,0.0706654914,1.19520859,-2.08350521,-0.0347923082,-0.0637786306,0.00933286405
93347.701861,1.15020711,-0.316278288,1.42230277,-0.0840267059,0.0325641491,-0.0110882563
93347.711888,1.10960863,0.105813124,2.22610863,0.0491846162,0.0904828392,0.0418551187
93347.721915,0.406126125,1.65108182,-0.581127302,0.196969281,0.0968994581,0.00295965278
93347.731942,0.242931449,-0.537097433,-2.79956089,0.046388566,0.0153934172,-0.00213177831
93347.741969,0.717703801,-1.08050771,-0.937084182,-0.195860032,-0.0796702496,0.00266617254
93347.751997,0.970817634,-0.0241577243,3.20597833,-0.0271698111,0.0341724314,0.020558353
93347.762024,0.912558045,1.57448811,-0.120202566,0.185248982,0.0392345682,0.0717230062
93347.772051,0.698054221,0.358810227,-2.2212174,-0.0699361828,-0.0320638485,-0.0277026505
93347.782078,1.56641884,-0.488918618,-0.0059460723,-0.191859428,0.0260649704,0.0250617596
93347.792106,1.72904628,2.02454337,2.06483553,0.0246260087,0.0748934977,-0.00558616457
93347.802133,1.4830916,1.32347118,2.16606654,0.12342396,0.140893289,-0.050302506
93347.812160,2.02822635,-0.399419914,-1.48650144,0.100043531,0.136747279,-0.00977611591
93347.822187,1.9733567,-0.707175694,-1.94471809,-0.155983184,0.00218200761,-0.0506854658
93347.832214,2.35970696,-0.155078156,0.928962203,-0.0916337562,0.055271589,-0.0131791034
93347.842242,1.81040413,1.21090417,1.1429545,0.125020515,0.0347226382,-0.00862509807
93347.852269,1.79540982,0.128724209,-0.811827571,0.117178846,0.0374369331,-0.00537976951
93347.862296,1.72612981,-0.803018872,-2.63604031,-0.107828971,-0.125132269,-0.0186686763
93347.872323,2.18151298,-0.321962325,0.280925581,-0.101947647,-0.0552232295,-0.0153541067
93347.882351,2.01902203,0.559584546,2.01773651,0.0440332661,-0.0241132445,-0.00464154177
93347.892378,1.77501776,0.0669609819,1.14075786,0.093573119,0.0342999965,0.00488352028
93347.902405,1.81570764,-0.490756099,-1.13444215,0.00231830753,-0.000326423827,0.0113715133
93347.912432,1.76416508,-1.09879762,-0.349328133,-0.121516284,0.0079722524,0.00188799665
93347.922460,1.55477239,-0.318240309,0.111031955,-0.00113714404,0.0171284665,0.0235173921
93347.932487,1.03133538,0.414494851,-0.291771431,0.0461193207,-0.0144638141,0.0106404754
93347.942514,1.32992406,-0.612540358,0.513879766,-0.0262148012,-0.0154965875,0.0123587469
93347.952541,1.05921305,-0.198683919,-0.344584737,0.0383279766,-0.0310110982,0.0375860738
93347.962569,0.767694816,0.10447983,-0.730923311,0.0175268217,-0.0588629722,0.0187210398
93347.972596,1.02170743,-0.536798012,-0.452010508,-0.040643007,-0.0667784206,0.0424031983
93347.982623,1.09165029,0.014595803,0.534363166,-0.0403697644,-0.041680257,0.0367397214
93347.992650,0.922871277,0.291366429,1.14338588,0.045608792,0.0100463217,0.0379099133
93348.002678,0.790754059,0.169620073,-0.237568132,0.0708196047,0.0205415737,0.044198438
93348.012705,0.823821631,0.136691945,-1.2702073,-0.0571847004,-0.0158100418,0.0237842421
93348.022732,0.974871367,0.235991839,0.121798849,-0.110340063,-0.000115501383,0.0205740663
93348.032759,0.841455122,0.959694711,1.33862379,0.0330474596,0.0349061311,0.0126271941
93348.042787,0.814958891,0.671713928,0.436368071,0.0854387614,0.0448415846,-0.0015727808
93348.052814,0.909421793,-0.243579474,-1.20272542,-0.010867802,0.00165177226,0.00793310578
93348.062841,0.899006271,-0.301949026,-0.636839837,-0.0933261928,-0.0204873506,0.00663295106
93348.072868,0.787095463,0.39608285,0.53836831,-0.00505412137,-0.0249409556,0.0108756325
93348.082896,0.720039697,0.445285199,0.685043557,0.0752913165,-0.00540453956,0.00878345358
93348.092923,0.769965976,-0.237605825,-0.435997531,0.0347484197,-0.0209110595,0.0160663998
93348.102950,0.817911311,-0.461862415,-0.528788043,-0.0597605077,-0.0365331649,0.0186350192
93348.112978,0.773693545,0.0941813306,0.247927566,-0.0465277922,-0.0242946066,0.0227828915
93348.123005,0.674402931,0.755747863,0.632639416,0.0351236607,0.00738209564,0.014367836
93348.133032,0.753876061,0.357194097,0.00539540592,0.0415538619,0.0147507962,0.000420328667
93348.143059,0.846257627,-0.263908269,-0.478371277,-0.0191313256,0.010238869,-7.58185331e-05
93348.153087,0.896787206,-0.254486068,-0.0240948925,-0.0394078311,0.0174541723,0.0065410719
93348.163114,0.842685468,0.103921529,0.337872041,0.0169441211,0.0240652029,0.0124690025
93348.173141,0.809844982,0.132927551,0.124811474,0.0283256727,0.0229344245,0.015685569
93348.183168,0.806435904,0.151113653,-0.43690997,0.010897947,0.00218014357,0.0192283722
93348.193196,0.818342323,0.345974857,-0.273509798,-0.0151911783,-0.0137021506,0.00959625046
93348.203223,0.858070741,0.508929842,0.111652718,0.0111171245,-0.012600667,0.00793150856
93348.213250,0.851538782,0.566062765,0.242450596,0.0290806792,-0.00411050968,-0.00721016017
93348.223278,0.952384664,0.15970165,-0.0340598216,0.0217828187,0.000173984291,-0.00582371888
93348.233305,1.1012789,-0.0103389145,-0.098250262,-0.00943528814,0.0122239886,-0.00844160517
93348.243332,1.16604597,0.06733145,0.11767037,-0.00787893636,0.0236683924,-0.00813241352
93348.253359,1.19514873,0.0466856894,0.228855786,0.0114500201,0.0367863223,-0.00650495526
93348.263387,1.26882618,-0.082204214,0.0715954325,0.0058810846,0.0409770727,-0.00650681977
93348.273414,1.31136374,-0.0890477415,-0.195955434,-0.00184155022,0.0325540275,-0.00555527166
93348.283441,1.29643359,-0.124344224,-0.135507687,-0.0097748409,0.0178440594,-0.00430358623
93348.293469,1.31389983,-0.249839594,0.0111324883,0.00171590038,0.0061421281,0.00196735931
93348.303496,1.35931821,-0.285921911,-0.0177469847,0.000808295159,-0.000680091479,0.00107866243
93348.313523,1.40169795,-0.254385147,-0.126236001,-0.00934154493,-0.0128091929,0.00660605307
93348.323550,1.38648226,-0.076087745,-0.0460401823,-0.0177981467,-0.0129969457,0.0128237358
93348.333578,1.33978378,0.182024394,0.111219587,-0.00726667558,-0.0119758892,0.0156352347
93348.343605,1.24129856,0.35600496,0.0788978645,0.00415056246,-0.0105132816,0.0139414645
93348.353632,1.11950386,0.377865312,-0.0780708128,-0.000664965593,-0.0156875357,0.00569178953
93348.363660,0.907617155,0.479491091,-0.190301938,-0.00552416918,-0.0236107066,-0.00348386497
93348.373687,0.52043486,0.418378049,-0.266169957,0.0030277737,-0.0575135491,-0.0108038304
93348.383714,0.536165659,0.13253194,0.171512435,-0.00625840295,-0.0569529526,-0.00964934987
93348.393741,0.325867872,0.24599869,-0.0381321856,0.0223271693,-0.0650444321,-0.00874014621
93348.403769,0.278886578,0.0756798063,-0.102627746,0.00272523845,-0.0649158053,-0.0133599327
93348.413796,0.189636478,-0.179460857,0.0736254771,-0.00569860637,-0.0560583949,-0.00235734836
93348.423823,0.109072457,-0.0375564913,0.117455266,0.00827473263,-0.0411484234,-0.00171526012
93348.433851,0.0450267676,-0.189327714,0.291178679,0.00305413898,-0.0211233135,-0.00305509617
93348.443878,-0.0641534961,-0.254893973,-0.00345893166,0.00853279373,-0.0125141145,0.00510349727
93348.453905,-0.123062183,-0.229638335,-0.0446121953,-0.0112787285,-0.00604263243,-0.00066251264
93348.463933,-0.185345949,-0.177540684,0.0512938183,-0.00792900426,-0.00407189332,0.00307097283
93348.473960,-0.268025584,0.0173508921,0.0245069336,0.00186690176,-0.00524288524,0.000712211682
93348.483987,-0.279012459,-0.0128238266,-0.01170712,-0.000174677634,-0.00593663861,-0.00101777774
93348.494015,-0.274390261,0.0236788393,-0.110173339,-0.00522243324,-0.0124398118,-0.000734418193
93348.504042,-0.3074803,0.156236878,-0.0153136201,-0.00388153176,-0.0151543731,-0.00241620422
93348.514069,-0.340387495,0.249252924,0.03061811,0.00231963909,-0.0150451829,-0.00342394461
93348.524097,-0.354794023,0.266819962,0.0268736628,0.0052057067,-0.0142635444,-0.00717074473
93348.534124,-0.369098479,0.162345369,-0.0284957578,0.0043585552,-0.013940503,-0.00641680465
93348.544151,-0.344685886,0.0361690218,-0.0265522225,0.00834690454,-0.0109098257,-0.00460319177
93348.554178,-0.305769478,-0.155814243,0.10288372,0.000224530237,-0.00015358456,-0.000637745047
93348.564206,-0.238464741,-0.143051116,0.0400400183,0.0178053877,0.00590297658,0.00886867425
93348.574233,-0.0758511536,-0.32099253,0.153927094,-0.00333664868,0.0220702298,0.00776612616
93348.584260,-0.056889364,-0.410838769,0.123704974,-0.00656333472,0.0298290819,0.0132501074
93348.594288,-0.171238221,0.0839019469,-0.154310587,-0.000981082785,0.0269278352,8.58357828e-05
93348.604315,-0.040775196,0.219673869,-0.083830107,-0.0173541722,0.0171534594,0.0059659234
93348.614342,-0.0230058379,0.747997907,-0.0815884655,-0.00607115868,0.0121781433,0.00283164947
93348.624370,0.0180930378,0.830285802,0.117889566,0.0230209469,0.0116231403,-0.00590218746
93348.634397,0.167482916,0.161961557,0.048630152,0.0225277296,0.0113062242,-0.0114948261
93348.644424,0.252145085,-0.454328732,-0.0287149535,0.0231903247,0.0153044284,-0.01208871
93348.654452,0.256632551,-0.834778357,-0.105315378,0.0111182141,0.0104819758,-0.00505929676
93348.664479,0.207040654,-0.691022651,0.114795692,-0.0349973519,0.0053894793,-0.00494877578
93348.674506,0.191657189,-0.31503059,-0.102941635,-0.0062101758,0.000928950866,0.0105492235
93348.684534,0.00973500498,0.15977203,-0.163100628,-0.00532094621,-0.0161014322,0.0049960003
93348.694561,-0.0221373891,0.0390271648,0.0269286078,0.00106052013,-0.025040067,0.00904267325
93348.704588,-0.0601004806,0.0858986006,-0.102666909,-0.00309054902,-0.0293762248,0.00374351579
93348.714616,-0.0918083181,0.202232449,-0.0332525969,-0.0024351452,-0.0325419262,-0.000668809311
93348.724643,-0.124689492,0.341816057,-0.00303982947,-0.00412864936,-0.0280028332,-0.00087733523
93348.734670,-0.103763791,0.424334071,0.161699482,0.00329784165,-0.0160401791,-0.00421161254
93348.744698,-0.0631601742,0.215599916,0.168588072,0.0149864559,0.000924956074,-0.00312237957
93348.754725,-0.0246139741,-0.143806848,0.0873471284,0.00883508614,0.0129587155,-0.000805696035
93348.764752,-0.00268163505,-0.258846711,-0.0377399714,-0.00327936699,0.0197282032,0.000720295561
93348.774780,0.0327636125,-0.155301307,0.015237001,-0.00883312383,0.0248702363,0.00103508073
93348.784807,0.0198407879,0.0103090518,0.043076025,-0.000880657923,0.0254920841,0.000532541862
93348.794834,0.0175890407,0.02638729,-0.00419776733,0.00741136075,0.0185660001,0.000540798036
93348.804862,0.0127351983,-0.131715364,-0.102202799,0.000751859805,0.00649788727,-0.00233568207
93348.814889,0.0232037045,-0.206038355,-0.123005349,-0.00795960659,-0.00556942836,-0.000809158692
93348.824917,0.00708742221,-0.0530186616,-0.0469987982,-0.00706025678,-0.0151650646,-0.000922075966
93348.834944,0.00212412127,0.128305481,0.00491668249,0.00143336272,-0.0188343685,7.02175032e-05
93348.844971,0.00914191391,0.165631807,-0.00376814374,0.00180194411,-0.0187329027,0.00184201865
93348.854999,-0.00368943755,0.144522922,-0.0173915954,0.00119767292,-0.0145812986,-2.35257018e-05
93348.865026,-0.0179237557,0.107664762,0.0306379837,0.000406447745,-0.00934152972,-0.00183580679
93348.875052,-0.0150172982,0.0540872663,0.0634068654,0.002223789,-0.000275330656,-0.00175404784
93348.885080,-0.0126839919,0.00550469747,0.0164241649,0.00380730443,0.00488614182,-5.28204534e-05
93348.895107,-0.013622766,-0.0651140817,0.00191457807,0.00142191118,0.00645714052,-0.000842714244
93348.905134,-0.0218672463,-0.139602373,0.0291521291,0.000201118068,0.0087197617,3.93246021e-05
93348.915162,-0.0108906239,-0.119664103,0.0123956401,-0.00151901761,0.00910592064,0.000260101138
93348.925189,0.0130273405,-0.0612708092,0.00446601612,-0.00305006885,0.00616366028,0.00161298688
93348.935216,0.0211494,0.0343023054,-0.0112453478,0.000171024299,0.00280621306,-0.00108452936
93348.945244,0.0163586175,0.0656886832,0.0117988432,0.000189932767,-0.000254557971,0.00133175679
93348.955271,0.014951888,0.0395594497,0.00790885005,0.000641072233,-0.00162981431,0.000335468417
93348.965298,0.0122466978,0.0717967863,-0.049852434,0.000238934945,-0.00412253306,-0.000661353143
93348.975326,-0.00571646813,0.0934542219,-0.0562891891,-0.00129424687,-0.00747518629,6.94184285e-05
93348.985353,-0.0166713125,0.10408157,-0.0275622763,0.00176545885,-0.00699022521,-3.6841752e-05
93348.995381,-0.00795492668,0.0390023409,0.0406718865,0.00299770362,-0.00552548623,-0.000899971956
93349.005408,-0.00424907159,-0.0586175319,0.0352849328,0.00231593429,-0.00342265439,-0.000189973535
93349.015435,-0.0139173011,-0.0905746314,0.00775102914,0.000662111275,-0.00107561056,0.000640932908
93349.025463,-0.00547193705,-0.0779084119,0.0535395514,-0.000462541701,0.00286373737,0.000671293093
93349.035490,-0.00956201025,-0.0208643727,0.0465071685,-0.000970672811,0.00501743549,0.00170486557
93349.045517,-0.00622480581,-0.019123146,-0.00631315205,-0.000313937309,0.0051516591,-1.6068602e-05
93349.055545,-0.0110052953,-0.00418655216,-0.0377364643,-0.00202688248,0.0032243294,5.82332443e-05
93349.065572,0.00351851193,0.0342531097,-0.0347448813,-0.00263568107,0.000721756913,-0.00169625741
93349.075599,0.0073172786,0.0750938231,0.00475827706,-0.000533914421,0.000731876897,-0.000416874448
93349.085627,0.013667739,0.072242603,0.0085003862,0.00267572748,0.000276742698,0.000328277675
93349.095654,0.0106162699,0.0408870861,0.0116439449,0.000853326235,-0.000453496157,-0.000434984015
93349.105682,0.0178243747,0.0330562235,-0.014243945,0.000514572084,-0.00296112864,0.000178874908
93349.115709,0.00429707226,0.011705534,0.00954784943,0.000707384961,-0.00291239253,-3.25809512e-05
93349.125736,-0.00733176241,-0.0287382708,0.0209203073,0.000781420798,-0.00137494974,-0.00214766295
93349.135764,-0.00911873259,-0.0551332563,0.0171793672,0.00113002863,-0.00163008067,-0.000814218568
93349.145791,-0.0120056223,-0.0620031466,0.00251429753,-0.000157609751,-0.00121036641,-0.00141476144
93349.155818,0.00243346578,-0.0297593209,0.00760022249,-0.00207268889,-0.00186310712,0.000234001754
93349.165846,-0.0173330735,0.0162947021,0.00310992533,-0.00141329015,0.000378209129,0.000871829195
93349.175873,-0.0100439577,0.0461112368,0.0147810739,-0.000669735595,0.000973159293,0.000747193089
93349.185901,-0.013787245,0.0564319663,0.00834724146,-0.00017012661,0.00177450451,-0.0006381837
93349.195928,0.000116210943,0.0521499918,0.00400892,0.000143860065,0.00160246432,-0.00217509319
93349.205955,0.0111926496,0.0287077505,0.000267979906,-0.000323790993,0.00185413294,-7.94525538e-05
93349.215983,-0.00150331198,0.0126839597,0.0146343589,0.00235854486,0.00107675636,-4.74942196e-05
93349.226010,2.38747509e-05,0.00658118586,-0.000178594818,0.00140593225,-0.000164010483,0.0011972673
93349.236037,-0.00217421525,-0.0268167601,-0.00346945306,-0.000462541701,-0.000148830391,0.00029365669
93349.246065,-0.000165382477,-0.0402740979,-0.0073611998,0.00123309298,-0.000530994069,0.00109420295
93349.256092,0.00776298567,-0.0187732503,0.0149336341,-0.00146575446,-0.00145750776,0.000355442492
93349.266120,0.0124250364,-0.00981165747,-0.0102072369,-0.00164232205,-0.00219307296,0.000314163482
93349.276147,0.00386463566,0.00433838451,0.0119373749,-0.000999168604,-0.00104285361,-0.00119638213
93349.286174,0.000185622918,0.0138412994,0.00550178891,-0.00042765424,-0.000148031549,0.00127423272
93349.296202,0.0067178651,0.0450485623,-0.0114078448,0.00011616323,0.00104559733,0.000179141266
93349.306229,0.00116411713,0.0580208703,0.0125335872,-0.000436975382,0.00106264146,0.000577549888
93349.316256,-0.00156132121,0.0293111781,0.0378229268,0.000215765443,0.00225147659,0.00123561683
93349.326284,-0.00738463424,0.0423449705,0.0209156311,0.00133775524,0.000960642434,-0.00191703302
93349.336311,0.00446412679,-0.00628393087,-0.0345981663,0.000645599624,0.000995529894,-0.000497302534
93349.346339,-0.00488730557,-0.0138288435,-0.0450727986,-0.000338704698,-0.00154326161,-0.0015186244
93349.356366,-0.00648018708,-0.0451608014,0.0043052726,-0.00201836042,-0.00192569165,0.00193576186
93349.366393,0.00113440698,-0.00573728873,0.0482975591,0.00252845465,0.000263959481,0.000474485075
93349.376421,-0.00170685803,-0.00231798181,0.0267509132,0.00256653783,0.000320951184,-0.000378525378
93349.386448,0.00470412326,-0.0104874287,-0.0548009964,0.000186470634,-0.000464414982,-2.72537861e-05
93349.396476,0.00389591214,0.0284481315,-0.0212845112,-0.00283062434,-0.00205405584,-0.000665880302
93349.406503,-0.00949839326,0.0422744534,0.027494425,-0.00107160664,-0.000494508809,-0.000872541713
93349.416530,-0.0027062626,0.040801239,0.0262984932,0.00291834144,-0.000275064297,-0.00157614847
93349.426558,-0.00819179504,0.00995501425,-0.0328066067,0.000990212726,-0.000133650415,0.000790070249
93349.436585,0.00425619682,0.000489769088,-0.0152995916,-0.00176136544,-0.000820479626,-0.000149493599
93349.446612,0.0130496208,0.0137346926,0.0373722604,0.000572628987,0.00305601753,0.000386334462
93349.456640,0.000696650313,-0.0135290614,0.0390206121,0.00133669004,0.00146451251,-0.00165417933
93349.466667,0.00235423566,-0.010071272,0.0104415834,0.000113500055,0.00166478225,-0.000161477858
93349.476695,0.0054660658,-0.0247856789,-0.00826311707,-0.000757087308,-7.18650784e-05,-0.000201691436
93349.486722,0.00818315644,0.00747110218,-0.00482262123,-0.00164045789,-0.000148031549,0.0015301625
93349.496749,-0.00440820768,0.0108773807,0.0221115629,0.000967043166,0.000523884045,0.000639867475
93349.506777,-0.00158992625,0.0252609209,0.00265925896,0.000254647637,-0.00151050467,0.000346919959
93349.516804,-0.007218114,0.0269012856,-0.0169444362,-0.000121657091,-0.002414914,-0.00198467777
93349.526832,-0.0107233045,0.0310148402,-0.0182917591,0.000912182097,-0.00159838893,-0.00137001977
93349.536859,0.000414175543,0.00336979064,0.00669713617,0.00109487487,-0.000345904418,-0.000128986808
93349.546886,0.00200531263,0.00798100619,-0.00991205333,0.00176279573,-0.00160930798,-0.00015668341
93349.556914,-0.0153477997,-0.00245768254,-0.0346028425,-0.000980792795,-0.000684125852,0.000529879211
93349.566941,-0.0026923665,-0.0173925821,-0.015899311,-0.00162341352,0.000143318283,0.000469691558
93349.576969,-0.0098420419,-0.0024680441,0.0282420285,-0.00134564586,0.00147170302,-0.000424597906
93349.586996,-0.00184963207,0.00127326132,0.0562254294,0.000919372605,0.00401981579,-0.000654961476
93349.597023,-0.00484010542,0.00189601916,0.0298915493,0.00157104806,0.00489306621,-0.000498367036
93349.607051,0.0103620531,0.0107337161,-3.42179114e-05,-0.000279614551,0.00297622134,0.000635495847
93349.617078,-0.00530253074,0.0162466754,-0.0184402277,-0.000899065863,0.00244172507,-0.000891560251
93349.627106,0.00679715458,0.0319419695,-0.0133513801,0.00194465754,0.000810272605,-0.000222574482
93349.637133,-0.0125006758,0.0286137886,-0.0296618789,0.00120616297,-0.00354612634,-0.00142046486
93349.647160,0.00481916904,0.0186122629,-0.0357987743,-0.000809050975,-0.00475173925,-0.00042524145
93349.657188,0.00323951233,0.00914653827,-0.0118585112,0.000838646787,-0.00313067312,-0.000854010256
93349.667215,0.000847114467,-0.00315488929,0.0189668352,0.00070016238,-0.000799075621,-0.000252934666
93349.677242,0.0044427963,-0.0122053979,0.0210605926,0.000319064018,-0.000130089619,-0.00116932814
93349.687270,0.00445957848,-0.0128105105,0.039017105,-0.000389070478,0.0019144192,0.000709532266
93349.697297,-0.00203609455,0.0131550524,0.0258495804,0.000427188357,0.00269019798,-0.00104469203
93349.707325,-0.00562364788,0.011426064,0.0101393856,0.000511077937,0.00347290103,-0.00154483368
93349.717352,-0.00768451224,0.0159623832,-0.0353492769,0.00230258657,0.00056765865,0.000373441232
93349.727379,-0.00949651183,0.0205976189,-0.0215826174,0.000197091262,-4.65467136e-06,0.000105260378
93349.737407,-0.0182581616,0.00433500067,-0.0149985628,0.00149298541,-0.0020406413,-0.000749348225
93349.747434,-0.0006971193,0.0166508449,-0.00452451507,6.10037295e-05,-0.00242067423,-0.00107904759
93349.757462,0.00588459718,0.00337779585,-0.00467415267,-0.000374955702,-0.000879236884,-0.000544550391
93349.767489,0.0156678314,-0.00298205804,0.0307882059,-0.00240348558,0.000573783959,0.000544682583
93349.777517,0.00238749404,0.0077407677,0.0354269716,0.00164931303,0.00294053516,4.53390833e-05
93349.787544,-0.00557381739,0.00168424414,0.00954083516,0.000305481959,0.000795092571,-0.00122924943
93349.797571,-0.00611031716,0.00275169527,-0.00676907912,-0.000887347962,0.00151947242,0.000415252959
93349.807599,-0.00967015593,0.0222873575,-0.0102113285,-0.000991477509,-0.00090666736,-0.000295012752
93349.817626,-0.00996211091,0.00412026194,-0.00961277812,0.00192228694,-0.00135008354,0.000710863126
93349.827654,-0.00217922935,0.013952733,-0.0173939335,0.000327586202,-0.00170987674,-0.000619385885
93349.837681,0.0102566154,0.0161784553,-0.00886517462,-0.00208017788,-0.00241454892,0.000571846468
93349.847708,0.00789352128,0.0234079819,0.0168713242,0.00173320261,-0.000932233795,-0.00137252782
93349.857736,0.0067928483,0.0126040172,0.0111862643,0.00187754597,0.0020076298,-0.00146414016
93349.867763,0.014517917,0.00142637865,-0.000484884288,0.000494832644,0.000254204576,-0.000336291762
93349.877792,0.000777743592,0.00177415091,0.00729627111,0.000386175705,0.000357268923,-0.00150834912
93349.887819,-0.00566424932,0.000210911047,0.0123839496,-0.000261771371,-0.000123697953,0.000164382597
93349.897846,-0.0138405689,0.0116238379,-0.00527328761,-0.000392266311,-0.000277894936,0.000584363444
93349.907874,-0.00973300573,0.00550420428,-0.0280199569,-0.000134205964,-0.00109149065,-0.000746951001
93349.917901,0.0119821743,0.0165969776,0.000709878454,3.65026698e-05,-0.000567380726,0.00103150818
93349.927929,0.00662009924,0.0121429071,-0.00123657944,-0.000296392473,0.00106913185,0.000493549248
93349.937956,0.0105137046,0.006070058,0.00774167679,0.000132909108,0.00197327506,0.000760131953
93349.947983,0.014819818,0.0086448404,-0.00841918442,0.000474858918,0.000966067505,-0.000414322624
93349.958011,-0.0133650558,0.0127333199,-0.00647331105,0.000659149728,-0.000305858129,-8.16933159e-05
93349.968038,-0.017253953,0.0115980824,0.0117813076,-0.000315300911,-0.000865121992,-0.000113385292
93349.978066,-0.00967175423,0.00115369919,0.00923629926,0.00165197615,-0.00215941823,-0.00108011209
93349.988093,-0.00934395618,0.00286154429,0.00833847364,0.000914280541,0.000733839892,-0.000859869206
93349.998121,0.00226940236,-0.00497043255,0.00220333188,0.000455684267,0.000135693894,0.000884235343
93350.008148,0.00519408503,0.0187529226,-0.00243601836,-9.23943536e-05,0.000580175509,-0.0004161862
93350.018175,-0.00643366279,0.0058387289,0.00579463437,-0.0010942755,0.000107198101,-0.000490755336
93350.028203,0.000858284315,0.0185080125,-0.00303398425,0.000378718838,0.000162591887,-0.000150668928
93350.038230,-0.00807184019,0.00355418446,0.0120794137,-0.000980558567,0.000323713137,-0.000522979097
93350.048258,-0.0073950232,0.0151240372,-0.00557957708,7.40532468e-05,-0.00140627629,-0.000242282199
93350.058285,-0.0226731468,0.0217149188,0.0143210552,0.00023863663,-0.00206381075,-0.000889696674
93350.068311,0.00354558717,-0.00575503902,-0.00064328972,-0.00018986605,-0.000521574323,0.000173704205
93350.078340,0.00543586703,0.0135278632,0.00788663822,0.000627724459,0.000595888085,-0.000236955965
93350.088367,0.012981588,0.00588403391,-0.0117158879,0.00205624395,0.00108058339,-5.69257233e-05
93350.098395,0.00196209454,0.003972693,-0.00213849671,0.000334510352,0.00122892154,-0.00156720498
93350.108422,0.0026996881,0.00924062347,-0.00393356344,0.000778991967,-0.00116739088,-0.00138903924
93350.118449,0.00574299218,0.0083026485,0.00609157149,-0.000803990983,-0.000151128546,-0.00173098923
93350.128477,-0.0118040444,0.0151874167,0.00504352374,0.0021832767,-0.00116978764,0.00140994319
93350.138503,-0.00537891587,0.00578564701,-0.00603082798,0.00142347685,-0.00221507825,-0.00110594512
93350.148532,0.000656574031,-0.000234302837,0.0089329324,0.00111801236,-0.0026606253,-0.00118690499
93350.158558,-0.00609371765,0.000620651759,0.00130141461,-0.000922767906,-0.000661123931,-0.000377304414
93350.168587,0.0130160793,0.00535196373,0.0170127785,-0.000341932517,-0.000843017749,-0.0033099768
93350.178614,0.00184018976,-0.00184382953,0.0143198861,-4.36584761e-05,0.00168139263,-0.000103530968
93350.188641,0.0092699105,0.0248008565,0.00519257683,0.0018690239,0.0016971052,-0.000573046999
93350.198669,-0.00213029391,-0.00854759691,-0.000193207865,0.000400823081,0.00115248883,-0.00126120777
93350.208696,-0.00854879178,0.00900106996,0.00175208098,0.00253428147,-0.00166114086,-0.00102285438
93350.218724,0.00386134316,0.0112030096,-0.0395473131,0.00131135795,-0.00163477558,-0.000494217062
93350.228750,-0.00114596361,0.00705202738,-0.0293731251,-0.00127696839,-0.00280443594,-0.000638027238
93350.238779,-0.000648654216,0.00547832092,0.079110046,-0.00464533455,-0.00214690148,-0.000198339606
93350.248805,0.018226101,0.0500953426,0.147796044,0.00811759895,0.00544816752,0.000336689381
93350.258833,-0.0102175972,0.0515706438,-0.108824847,0.00784622226,0.00384867316,-0.000435361201
93350.268861,0.0132879596,-0.0446320511,-0.178704439,-0.00482563069,-0.00270669783,-0.000583433108
93350.278888,-0.015071467,-0.00885452114,-0.097756341,-0.0028735334,-0.005542698,-0.000109922634
93350.288916,-0.0205017347,0.0251531725,0.0774657859,-0.000442067389,-0.00115061287,-0.000969324755
93350.298943,-0.00953301248,-0.0355461972,0.0699862438,0.00699374453,-0.000310651879,0.00177852481
93350.308971,-0.0089445131,0.0097085378,-0.0187465172,-0.00134780839,0.00168751782,-0.00159916238
93350.318997,0.0243016215,-0.0404004962,0.0629521074,-0.00539022078,0.00226276073,-0.000688894214
