t,ax,ay,az,gx,gy,gz
97902.729108,-0.321500264,0.358935238,-0.179458742,-0.00154852867,-0.0220247637,0.00316659641
97902.739136,-0.277282133,0.412388523,-0.127077981,0.067182593,-0.00192269054,-0.0197408497
97902.749163,-0.216820358,0.399965679,-0.0613818127,0.128171653,0.0135079306,-0.0327541195
97902.759191,-0.183893436,0.305303236,-0.0363520008,0.180339783,0.0187799241,-0.0306536853
97902.769219,-0.191844395,0.171872013,-0.00829378109,0.211954966,0.0144011546,-0.0149626071
97902.779247,-0.253637054,0.10478955,-0.0507996284,0.233592093,0.00110985083,-0.00379543938
97902.789275,-0.365026833,0.0850120234,-0.0422322911,0.232424021,-0.00892786868,0.000134853646
97902.799303,-0.433725179,0.0586074435,0.0221487034,0.212522492,-0.0148653872,-0.00898381043
97902.809331,-0.434129668,0.0399663828,0.0491986229,0.192328542,-0.00804982521,-0.0245481208
97902.819359,-0.349678968,0.0389911354,0.108881815,0.165163487,0.0102905668,-0.0389840528
97902.829387,-0.280916106,0.0481055168,0.178711138,0.133798376,0.0293484125,-0.055443719
97902.839415,-0.233998287,0.0453707032,0.178209618,0.0910389274,0.0420740619,-0.0678300783
97902.849443,-0.22685806,0.0061726813,0.125109312,0.0412095897,0.0427009687,-0.055962503
97902.859471,-0.294161445,-0.042726139,0.0590069002,-0.0139367543,0.032035809,-0.0821120813
97902.869499,-0.451330394,-0.000879984005,0.063166358,-0.0719526559,0.0175596643,-0.0942667499
97902.879527,-0.496665912,-0.00678585161,0.0772439832,-0.127069697,0.0143665336,-0.110182866
97902.889555,-0.525043646,0.0194623367,0.139290982,-0.184718341,0.0208302923,-0.130681753
97902.899583,-0.511569101,0.0429613908,0.11770225,-0.232652575,0.033900287,-0.14724794
97902.909611,-0.488156661,0.0678399576,0.0752764825,-0.266852111,0.0497016199,-0.164875403
97902.919639,-0.475021139,0.112896631,0.0625292291,-0.292641878,0.0729006827,-0.174096867
97902.929666,-0.482974948,0.122630628,0.00625029257,-0.301960289,0.09499906,-0.163849548
97902.939694,-0.532510328,0.184536392,-0.169508425,-0.279076815,0.109627537,-0.142507777
97902.949722,-0.671227748,0.263810639,-0.303334712,-0.240453511,0.11889907,-0.119783565
97902.959750,-0.837725374,0.313213936,-0.402893403,-0.213208318,0.108060002,-0.0985432491
97902.969778,-0.988343221,0.3593988,-0.503941456,-0.172215074,0.0878447443,-0.084940359
97902.979806,-1.11900819,0.376463004,-0.594842208,-0.137947649,0.0508742109,-0.0912797451
97902.989834,-1.27149352,0.38193917,-0.765697372,-0.111211114,0.00774644827,-0.109616145
97902.999862,-1.32545906,0.316548231,-0.732611679,-0.106779613,-0.0171671584,-0.120899692
97903.009890,-1.23942358,0.229179269,-0.703708826,-0.0909223557,-0.0284389872,-0.129928067
97903.019918,-1.13351581,0.199955038,-0.643269262,-0.0848783106,-0.0400791317,-0.133320138
97903.029946,-1.01059144,0.123506662,-0.592316489,-0.0778654069,-0.0485746153,-0.126191661
97903.039974,-0.901222352,0.0854818694,-0.495527263,-0.0684916154,-0.0478078909,-0.109368734
97903.050002,-0.827100447,0.102309195,-0.372377269,-0.0505240597,-0.0460334271,-0.0923215747
97903.060030,-0.798648771,0.189990109,-0.350147317,-0.00847754069,-0.0446403287,-0.0860663429
97903.070058,-0.857986803,0.336308688,-0.458511245,0.0570932142,-0.0431217924,-0.0894442946
97903.080085,-0.985210476,0.455131394,-0.537793456,0.136872739,-0.0341645181,-0.0964574665
97903.090113,-1.05682624,0.453144677,-0.638576136,0.21007131,-0.0294312816,-0.0951434597
97903.100141,-1.1416628,0.360285703,-0.79213822,0.225132555,-0.0597588271,-0.0872533172
97903.110169,-1.28913614,0.236177823,-0.917604674,0.244570434,-0.100945413,-0.0802960694
97903.120197,-1.38576871,0.177642285,-0.777661951,0.264297545,-0.125127435,-0.0758137032
97903.130224,-1.43510967,0.159325561,-0.604896569,0.252881885,-0.136953741,-0.0700873733
97903.140252,-1.37752184,0.141601743,-0.526036383,0.226787969,-0.137460276,-0.0603330135
97903.150280,-1.28183371,0.172996816,-0.418607689,0.185315102,-0.131978959,-0.0395220108
97903.160308,-1.19129024,0.184560339,-0.336045142,0.154276222,-0.12328241,-0.0109500224
97903.170336,-1.16146158,0.170112803,-0.351461906,0.151031956,-0.1211612,0.0250689648
97903.180364,-1.12592499,0.198589668,-0.580534281,0.182279631,-0.131798655,0.0603436008
97903.190392,-1.10363125,0.241646245,-0.865016409,0.254669666,-0.148105726,0.0875459239
97903.200420,-1.15685021,0.208303709,-1.1559575,0.358252794,-0.16879423,0.108313523
97903.210447,-1.26175246,0.117903764,-1.40388772,0.475401521,-0.187516779,0.128781781
97903.220475,-1.28748253,-0.017721481,-1.37075644,0.583887994,-0.200999826,0.157895729
97903.230503,-1.1673852,-0.132713704,-1.18905021,0.676550567,-0.210441276,0.197531551
97903.240531,-0.97429,-0.246625713,-0.984984851,0.763767481,-0.210819975,0.242057472
97903.250559,-0.771939262,-0.272038478,-0.705947544,0.846602738,-0.211138487,0.284398258
97903.260587,-0.592651566,-0.214736921,-0.443736285,0.929570615,-0.205713362,0.309254616
97903.270615,-0.534775825,-0.056722954,-0.29012101,1.00661242,-0.210695073,0.29860276
97903.280643,-0.635338469,0.0503682878,-0.0692272655,1.03764808,-0.210735813,0.254555941
97903.290671,-0.689273765,0.0792458611,0.341370136,0.998842061,-0.202339664,0.200171545
97903.300699,-0.639027825,0.0150610102,0.655547145,0.94657886,-0.18147327,0.165834337
97903.310726,-0.723054674,-0.100742567,0.825155523,0.849332213,-0.167585954,0.151308656
97903.320754,-0.977039445,-0.196465333,1.24674486,0.682426333,-0.15981032,0.142669633
97903.330782,-1.29933853,-0.210588332,1.76726745,0.484408855,-0.149803758,0.121967286
97903.340810,-1.45804689,-0.00433159946,2.10025612,0.275067896,-0.150567815,0.0802821517
97903.350838,-1.5024501,0.241252715,2.30800806,0.0708582923,-0.175800741,0.0195128135
97903.360866,-1.40135367,0.440861899,2.48661282,-0.11632891,-0.216078922,-0.0564639792
97903.370894,-1.13001796,0.682897216,2.66775966,-0.285974503,-0.246433005,-0.127154544
97903.380922,-0.759077004,0.708553489,2.78549815,-0.42190066,-0.255641937,-0.16794911
97903.390950,-0.382169946,0.613912673,2.65503579,-0.500689507,-0.25778234,-0.170102283
97903.400978,-0.219660038,0.515564235,2.30167652,-0.507891774,-0.256637692,-0.142399549
97903.411005,-0.327691045,0.366957582,2.0341011,-0.481314182,-0.253654689,-0.0920024142
97903.421033,-0.477302017,0.148265,1.87557994,-0.513761103,-0.268518329,-0.0251040738
97903.431061,-0.51481623,-0.149061557,1.77018246,-0.592003465,-0.298014969,0.0691888705
97903.441089,-0.514081486,-0.298696312,1.83596572,-0.626644254,-0.289396435,0.141211405
97903.451117,-0.473573936,-0.0932108927,2.02766961,-0.638388515,-0.230573073,0.153341562
97903.461145,-0.408187198,0.309280761,1.95046596,-0.631268561,-0.160613164,0.0940566659
97903.471173,-0.412933407,0.653706777,1.42083769,-0.546475887,-0.124171272,-0.00948969461
97903.481201,-0.377861253,0.865578281,1.13246557,-0.458720177,-0.0971407145,-0.135304078
97903.491229,-0.268884051,0.75961323,0.942748468,-0.368081093,-0.102725096,-0.261352807
97903.501256,-0.212805058,0.507080996,0.281892696,-0.22251378,-0.176228344,-0.372537404
97903.511284,-0.243207503,0.208571548,-0.370123937,-0.0547319762,-0.284191817,-0.460773766
97903.521312,-0.372312423,-0.10564086,-0.52829556,0.0693657324,-0.377625644,-0.510336816
97903.531340,-0.364412098,-0.560576147,-0.390905443,0.108559743,-0.427859783,-0.489812881
97903.541368,-0.203060384,-1.01417792,-0.220627787,0.0684591979,-0.409156412,-0.405863404
97903.551396,0.0503794302,-1.2430422,-0.0746077895,-0.0271879677,-0.336391658,-0.244010046
97903.561424,0.299933197,-1.35793904,-0.0765507402,-0.114794783,-0.248136893,-0.0291510131
97903.571452,0.30727892,-1.34948203,0.0467880547,-0.173098296,-0.156172603,0.178911909
97903.581479,-0.0363012022,-0.968003613,0.541779896,-0.183544815,-0.0612642094,0.289032042
97903.591507,-0.561365617,-0.496846785,0.963874258,-0.1773756,-0.0135933589,0.294048369
97903.601535,-0.709945966,-0.438206197,0.69799454,-0.118798316,-0.0562923513,0.267486006
97903.611563,-0.507218651,-0.656962491,-0.0141729023,-0.0595736019,-0.157081544,0.237102777
97903.621591,-0.255338633,-0.855770515,-0.142170921,-0.0751286,-0.23486422,0.201129854
97903.631619,0.0660398494,-1.10756121,-0.291004223,-0.0635081604,-0.280347019,0.149880514
97903.641647,0.159400106,-1.14066261,-0.970626655,0.0119714206,-0.318486959,0.0722571015
97903.651675,-0.168585721,-1.10515283,-0.932129459,0.0799086541,-0.293274015,-0.0346033052
97903.661702,-0.598285773,-1.08902113,-0.296263166,0.10103631,-0.208262444,-0.154577643
97903.671730,-0.89098657,-1.03527573,0.241904384,0.0525521375,-0.124405101,-0.254248559
97903.681758,-0.989008699,-0.883825227,0.64478142,-0.0729296282,-0.0859021768,-0.318966299
97903.691786,-0.899334639,-0.617037016,1.03549339,-0.227595627,-0.089740321,-0.326331288
97903.701814,-0.614114552,-0.16280911,1.39038468,-0.312666565,-0.0764815137,-0.302132994
97903.711842,-0.182797604,0.392777156,1.84685127,-0.328193337,-0.0390190892,-0.269887179
97903.721870,0.349162726,0.904379063,2.32609025,-0.252256483,0.000633514486,-0.217727855
97903.731898,0.828395674,1.20080984,2.54350726,-0.127341732,0.00187481381,-0.155651703
97903.741925,1.12610531,1.24634037,2.14371474,0.0916558579,-0.0758173168,-0.0903400704
97903.751953,1.01666111,1.34724273,1.69198161,0.297296911,-0.203267425,-0.0690305233
97903.761981,0.533460651,1.1468877,1.66852066,0.374645233,-0.320825487,-0.0813750699
97903.772009,0.185671113,0.552410632,1.70400698,0.269799232,-0.377298325,-0.0690233335
97903.782037,0.0328390608,-0.101369594,1.79619836,0.0250408817,-0.340759754,-0.0193375312
97903.792065,0.0799880577,-0.528192246,1.86703072,-0.315099388,-0.234378472,0.0258770846
97903.802093,0.2066998,-0.51870246,1.71453305,-0.666762888,-0.101187393,0.054990761
97903.812120,0.245581246,-0.220918623,1.21443716,-0.917755723,0.00261330837,0.0645586997
97903.822148,0.143314356,0.408465833,0.481363129,-0.996028662,0.0636907741,0.0492170304
97903.832176,-0.0460910123,1.223674,-0.40485915,-0.852784991,0.0859529376,0.0263516605
97903.842204,-0.356206397,1.81253823,-1.19851654,-0.520490348,0.091571942,0.012944242
97903.852232,-0.707450496,2.16239767,-1.56883688,-0.158506304,0.0840112269,0.0342657752
97903.862260,-0.969096596,2.01197461,-1.45695413,0.110123552,0.0728419274,0.0941133946
97903.872287,-1.01243327,1.52043057,-0.970366543,0.248738155,0.0562195443,0.181904227
97903.882315,-0.819939323,1.01389428,-0.466306429,0.250469476,0.0280395728,0.261455804
97903.892343,-0.557710163,0.548056017,-0.11338731,0.144757703,-0.00146239321,0.302699894
97903.902371,-0.330422443,0.32596455,0.0159177001,-0.00714501645,-0.026575204,0.293595105
97903.912399,-0.309535795,0.34506446,-0.280858092,-0.132080287,-0.0599834956,0.230817184
97903.922427,-0.480990678,0.491794323,-0.806844206,-0.175447732,-0.0625755489,0.139032662
97903.932455,-0.594689283,0.695977501,-1.15210784,-0.123870037,-0.0200845469,0.0478071496
97903.942482,-0.619228388,0.884382642,-1.24171096,-0.0360174105,0.0332460515,-0.0114513785
97903.952510,-0.500525838,1.07928226,-1.08432025,0.109645516,0.0992120206,-0.0291451532
97903.962538,-0.354529769,1.20918224,-0.575212794,0.276345819,0.18216309,-0.0230457168
97903.972566,-0.101385724,1.1362407,-0.159219087,0.422354162,0.2447844,0.00284899725
97903.982594,0.245086083,0.62564337,0.0310579861,0.444106579,0.250217259,0.0769069791
97903.992622,0.44233504,-0.00652741074,0.150305712,0.307282418,0.195609659,0.192201614
97904.002649,0.572946968,-0.424989755,0.148674896,0.0831462592,0.0968378112,0.315556854
97904.012677,0.593743088,-0.562018747,-0.219451729,-0.15370889,-0.0337071493,0.415255487
97904.022705,0.567023679,-0.450396145,-0.662481328,-0.348971307,-0.148711771,0.478588104
97904.032733,0.56288077,-0.219994714,-0.835314514,-0.533152938,-0.197044149,0.508886874
97904.042761,0.505446928,0.0718168984,-0.909579773,-0.724869072,-0.195490986,0.501568496
97904.052789,0.485867673,0.246870208,-1.08683253,-0.887413263,-0.154815733,0.479313821
97904.062816,0.654307666,0.371735135,-1.3777105,-0.952733159,-0.0819580331,0.45423165
97904.072844,0.79364614,0.598946136,-1.82647425,-0.908801615,0.0120531488,0.423708081
97904.082872,0.763206724,0.775741358,-1.99957807,-0.808696091,0.117383301,0.381742001
97904.092900,0.6468781,0.869082051,-2.18877436,-0.651522696,0.19710955,0.327581823
97904.102928,0.48590395,0.915725509,-2.45655612,-0.520403266,0.238119841,0.271921754
97904.112956,0.291894705,0.804099583,-2.43186884,-0.46316421,0.247406542,0.23542206
97904.122983,0.130319265,0.489401254,-2.66075416,-0.403250009,0.210425094,0.249605522
97904.133012,-0.00216737063,0.166222463,-3.1745641,-0.304786026,0.141535237,0.316203475
97904.143040,-0.160189466,0.037560719,-3.52806073,-0.146726608,0.0950673446,0.404104292
97904.153068,-0.4610427,0.151875007,-3.6177673,0.0901098922,0.0973225087,0.462166518
97904.163096,-0.754114925,0.301083791,-3.66670231,0.40042302,0.15221931,0.489036769
97904.173123,-0.961601052,0.269925194,-3.4937113,0.745429933,0.235509142,0.510509014
97904.183151,-1.10186782,0.195661908,-2.87216112,1.02937245,0.314125925,0.536868215
97904.193179,-0.923107802,0.077220237,-2.12092423,1.24780357,0.350661576,0.572864294
97904.203207,-0.582419839,0.0648116775,-1.28856623,1.37450516,0.377176255,0.593712032
97904.213235,-0.182800599,0.269590209,-0.225483995,1.42570174,0.419338882,0.561652899
97904.223263,-0.00443203676,0.569314859,0.590515577,1.43180573,0.473458052,0.433122635
97904.233290,-0.0443329349,0.714278223,0.941515127,1.34148514,0.487210631,0.240750507
97904.243318,-0.101499596,0.689150066,0.832651432,1.12367344,0.386910647,0.0256224871
97904.253346,-0.289841664,0.567850887,0.548602435,0.857149005,0.214578286,-0.164176479
97904.263374,-0.409653289,0.283544372,0.817850753,0.677030385,0.112880424,-0.293212473
97904.273402,-0.316682854,-0.00911759163,1.50761172,0.58492893,0.119654179,-0.347526044
97904.283429,-0.0832473244,-0.215138579,1.79292971,0.53813237,0.16879189,-0.343092412
97904.293457,0.171611005,-0.385373565,1.67858846,0.555209935,0.219785839,-0.300589174
97904.303485,0.339997642,-0.353467437,1.4520231,0.627103806,0.25395447,-0.256849676
97904.313513,0.278637603,-0.203227265,1.30965929,0.727573931,0.285470843,-0.236480504
97904.323541,0.0286298822,-0.176709443,1.3334692,0.793803334,0.315393329,-0.239802524
97904.333568,-0.301610336,-0.27366745,1.21219377,0.797416151,0.325626791,-0.252314568
97904.343596,-0.657021674,-0.444302322,1.14666477,0.654004931,0.323439002,-0.276373565
97904.353624,-0.993096626,-0.605708543,1.11592243,0.339139163,0.286250621,-0.310930759
97904.363652,-1.28631012,-0.718474798,0.751339176,-0.044658035,0.194425091,-0.358522505
97904.373680,-1.6853128,-0.703783864,0.280758723,-0.382180601,0.0796639249,-0.417693019
97904.383707,-2.07541409,-0.420290236,0.233801742,-0.74497211,0.00330603844,-0.468525827
97904.393735,-1.71890688,-0.402062432,0.146790398,-1.04182982,-0.0688347295,-0.468999624
97904.403763,-1.46805887,-0.266008131,-0.689327249,-1.21802437,-0.153370395,-0.457186908
97904.413791,-1.33771882,0.0198216487,-1.66372875,-1.25018656,-0.239090621,-0.474031389
97904.423819,-1.22979635,0.252551998,-2.22101367,-1.22368193,-0.274439275,-0.511355579
97904.433846,-1.13917179,0.280148427,-1.97092013,-1.17510688,-0.206512168,-0.55760324
97904.443874,-1.08243554,0.305935615,-1.28069681,-1.1411556,-0.051191289,-0.600841522
97904.453902,-0.951077466,0.318417167,-0.645865708,-1.12704861,0.128904715,-0.625157475
97904.463930,-0.716088999,0.00864449423,-0.117300684,-1.18357182,0.297866821,-0.572729468
97904.473958,-0.489129817,-0.27155296,0.523603018,-1.33960938,0.423695862,-0.469437182
97904.483985,-0.483734607,-0.222848422,0.842576029,-1.50036442,0.491927922,-0.368949175
97904.494013,-0.732797557,0.0815264463,0.509902994,-1.69540787,0.443624556,-0.34096548
97904.504041,-0.917622648,0.131341557,0.45547933,-1.90919483,0.312295586,-0.338052511
97904.514069,-0.689310152,0.154757504,-0.157223529,-2.0364697,0.110696942,-0.299926162
97904.524097,-0.000545833847,0.48809799,-0.617165099,-2.07961512,-0.121064916,-0.178989887
97904.534124,0.407551787,0.792748314,-1.47926474,-1.91540468,-0.380980372,-0.0509592183
97904.544152,0.267284434,1.06269587,-2.18840319,-1.5624243,-0.578727841,0.0260519423
97904.554180,0.0144280278,0.882913592,-2.35037246,-1.07374895,-0.645860255,0.0399302095
97904.564208,-0.296759608,0.489162842,-2.27593359,-0.534735024,-0.566977441,0.0211008601
97904.574235,-0.730025901,-0.12437749,-1.97099086,-0.0709920973,-0.373998106,-0.0273564197
97904.584263,-1.27477824,-0.472756044,-1.60903269,0.313380092,-0.144624561,-0.105029114
97904.594291,-1.50765439,-0.772431941,-1.02327279,0.576580524,0.0543242171,-0.156088561
97904.604319,-1.49881422,-0.839496914,-0.563406621,0.839938939,0.129099116,-0.189622819
97904.614347,-1.40397073,-0.653441843,-0.407144046,1.03832591,0.0880358443,-0.218677372
97904.624374,-1.13967199,-0.611101269,0.562480154,1.1897409,-0.0081357006,-0.237682223
97904.634402,-0.5899426,-0.426135308,1.24507137,1.30920959,-0.133595079,-0.269859344
97904.644430,0.372990651,-0.00559160946,1.59271167,1.46294343,-0.236012012,-0.282812417
97904.654458,1.02913189,0.272767432,1.61268537,1.5785116,-0.294589311,-0.300575197
97904.664485,0.933680853,0.587279226,1.55726919,1.64787602,-0.317050934,-0.346778095
97904.674513,0.628801834,0.724027976,1.21064771,1.68712652,-0.287758023,-0.413251132
97904.684541,0.506959086,0.646970674,1.24028531,1.6059829,-0.193465084,-0.462346762
97904.694569,0.687862291,0.252916411,1.63935009,1.32243907,-0.0438436307,-0.429280967
97904.704597,1.17564705,-0.609473522,2.39905787,0.786437333,0.131617144,-0.268436968
97904.714624,1.35273636,-1.04312892,2.31994868,0.279796839,0.224050671,-0.072792612
97904.724652,0.978647683,-0.88287706,1.39641344,-0.0872480348,0.200698733,0.0610109903
97904.734680,0.203514101,-0.323453225,0.655536623,-0.326922387,0.114046402,0.0976398438
97904.744708,-0.677639076,0.381843747,0.421910823,-0.435281098,0.0558078624,0.0444661044
97904.754735,-1.10358412,0.838413064,0.36853053,-0.36581412,0.0600356311,0.00175006595
97904.764763,-1.26280723,1.09433553,0.165965638,-0.240331054,0.0995132625,-0.0195253938
97904.774791,-1.21229855,1.06296387,-0.368631068,0.0315151028,0.0838799775,0.00435170764
97904.784819,-1.00232199,0.92609354,-0.621241555,0.240333036,0.0410190634,0.0289214998
97904.794846,-0.703977048,0.686093966,-0.169518362,0.312467694,0.02121979,0.0388686731
97904.804874,-0.407023342,0.531420012,0.160983174,0.304987669,0.024710929,0.0124522448
97904.814902,-0.151881382,0.554515532,-0.120652917,0.2932567,0.0327763148,-0.0466387719
97904.824930,-0.0627968123,0.575409486,-0.372065134,0.259331495,0.0552560575,-0.108184688
97904.834957,-0.150441349,0.465520868,-0.535771595,0.261811167,0.0922353789,-0.157391638
97904.844985,-0.564683838,0.561867429,-0.319559871,0.21030882,0.165310651,-0.209512368
97904.855013,-0.368641151,0.380601236,-0.414306777,0.18554835,0.193722054,-0.226415724
97904.865041,0.151822072,0.146952548,-0.383638667,0.181072369,0.211639807,-0.19833748
97904.875068,0.807971895,-0.147902642,-0.134455817,0.192095727,0.236048475,-0.106167078
97904.885096,1.39233465,-0.309243863,-0.132245739,0.260773331,0.238581404,0.0290677063
97904.895124,1.7156527,-0.201712367,-0.314729382,0.29057917,0.206100702,0.172873348
97904.905152,1.52978716,0.0215125906,-0.161336225,0.232214376,0.176823497,0.309747845
97904.915179,1.20342178,0.0327145211,-0.0518383238,0.10752172,0.15198952,0.447730988
97904.925207,1.08631808,-0.175285292,-0.236197697,-0.0526533052,0.105775692,0.598244607
97904.935235,1.18412715,-0.448632423,-0.62576517,-0.190903053,0.0527438968,0.757945061
97904.945263,1.16596065,-0.523515011,-0.871749517,-0.301612258,-0.00329007907,0.903807223
97904.955290,0.833762681,-0.448674472,-0.986310546,-0.345156789,-0.0630261153,1.0100745
97904.965318,0.284366173,-0.271648767,-1.11069505,-0.321060777,-0.134298429,1.06223989
97904.975346,-0.29003019,-0.0054332771,-1.31799866,-0.233761579,-0.206528679,1.05918956
97904.985374,-0.793516084,0.324738114,-1.39056764,-0.0712400377,-0.255067736,1.00816262
97904.995401,-1.18330874,0.656405807,-1.19967974,0.137710512,-0.257249117,0.900612772
97905.005429,-1.34215754,0.875899476,-0.66805299,0.372381359,-0.216116324,0.743651628
97905.015457,-1.22070529,0.923591055,-0.127930799,0.638458014,-0.134550363,0.563939929
97905.025485,-0.793390704,0.657257236,0.437197824,0.843979776,-0.0184695646,0.394886971
97905.035512,-0.215261529,0.154471527,1.20735977,0.903106987,0.116266415,0.264509767
97905.045540,0.108708194,-0.1921048,1.71693777,0.862412274,0.220310256,0.148605824
97905.055568,0.0272121791,-0.095694581,1.68335991,0.745423377,0.249433517,0.0238377899
97905.065596,-0.251578715,-0.0645408247,1.26796359,0.566636562,0.15336664,-0.0591889173
97905.075623,-0.515964413,-0.343772594,0.852832635,0.441628605,0.0123496,-0.0831784084
97905.085651,-0.551658242,-0.430394098,0.893496069,0.372347802,-0.10925433,-0.0939407721
97905.095679,-0.422644324,-0.311519005,1.02493108,0.345044285,-0.184813529,-0.126463026
97905.105707,-0.159836415,-0.300269041,1.26762573,0.310457528,-0.207093537,-0.166265026
97905.115734,0.213450991,-0.376923863,1.53882636,0.262694538,-0.174253032,-0.19767648
97905.125762,0.568607551,-0.515174541,1.78242819,0.207646728,-0.103391111,-0.211843163
97905.135789,0.780558622,-0.632902474,2.0117449,0.117171951,-0.0199798439,-0.220788196
97905.145816,0.921855317,-0.598122143,2.29514449,-0.0218708906,0.0541164912,-0.221747205
97905.155844,1.0180704,-0.542590445,2.38826642,-0.188753352,0.0707434043,-0.20639354
97905.165872,0.899133417,-0.518429379,2.21155552,-0.329684079,0.0273008533,-0.189395919
97905.175900,0.609644129,-0.408800764,1.98162916,-0.385802209,-0.0474442244,-0.202537552
97905.185927,0.318498562,-0.180532216,1.85255971,-0.414630145,-0.112120956,-0.242704138
97905.195955,0.229552414,-0.0905469708,1.95679049,-0.445946783,-0.118096553,-0.284926981
97905.205983,0.289446034,-0.205044361,2.09949274,-0.465444058,-0.0636146739,-0.305604041
97905.216011,0.297575381,-0.381328673,2.35553904,-0.495997965,0.0303917173,-0.298342109
97905.226038,0.158538849,-0.390233682,2.56611656,-0.523001909,0.129888743,-0.288020521
97905.236066,0.00894645458,-0.35559696,2.61055718,-0.548938155,0.204740092,-0.291160911
97905.246094,-0.0935853521,-0.30369781,2.66943198,-0.55915755,0.244864076,-0.293559879
97905.256122,-0.172386739,-0.113662062,2.67057588,-0.519461751,0.255375832,-0.300126702
97905.266149,-0.151186368,0.163597996,2.68104759,-0.438737601,0.250878274,-0.30670312
97905.276177,-0.111198604,0.440577639,2.67120366,-0.343905628,0.220633566,-0.305547833
97905.286205,-0.217462419,0.392248456,2.19414554,-0.234216169,0.138207138,-0.297376722
97905.296232,-0.473579781,0.12476016,1.5546441,-0.132902876,0.0156039838,-0.269144297
97905.306260,-0.625450843,-0.192235148,0.945132148,-0.0405465737,-0.120837748,-0.207498491
97905.316288,-0.554844581,-0.3455171,0.294539411,0.036061652,-0.248460159,-0.118194185
97905.326316,-0.285515727,-0.554682705,-0.15918986,0.0861200243,-0.336519718,-0.00888739806
97905.336343,-0.0646810369,-0.890433905,-0.135713708,0.085701108,-0.348112434,0.0978435725
97905.346371,0.0753378756,-1.14393148,0.104267599,0.0350493826,-0.285070091,0.172341257
97905.356399,0.206408233,-1.25198948,0.276833074,-0.0385127179,-0.178590789,0.207872614
97905.366426,0.157274638,-1.09034171,0.234172328,-0.123282731,-0.0705764368,0.200465038
97905.376454,-0.08937779,-0.71324457,0.0247977566,-0.237079456,0.0150393192,0.145390481
97905.386482,-0.419172995,-0.129927964,-0.118942606,-0.397465944,0.0614092126,0.0490343831
97905.396510,-0.70823171,0.533132808,-0.31161388,-0.516083419,0.0766265169,-0.0476040095
97905.406537,-0.798686326,1.13373362,-0.324816476,-0.604141057,0.0772313252,-0.0988967568
97905.416565,-0.673864015,1.49579955,-0.388791812,-0.699646831,0.00810897537,-0.0886523798
97905.426593,-0.446047704,1.61074593,-0.795477009,-0.730999172,-0.118953899,-0.00961135514
97905.436620,-0.142005008,1.66061295,-0.958745078,-0.695149302,-0.245486543,0.126870856
97905.446648,0.2418627,1.49960611,-0.87719843,-0.601869941,-0.323969096,0.288869083
97905.456676,0.739181048,1.28362994,-0.575800239,-0.496757895,-0.305011928,0.434708029
97905.466704,1.20224075,1.22345802,-0.11933482,-0.380733818,-0.19133383,0.5285272
97905.476731,1.31494015,1.05229079,0.184103937,-0.291087031,-0.038835898,0.573184669
97905.486759,1.19896984,0.893232303,0.433321859,-0.239605725,0.113919832,0.588288546
97905.496787,1.00397662,0.840962383,0.48627019,-0.178302959,0.238521948,0.583281517
97905.506814,0.663040131,0.954730363,0.5201596,-0.116596177,0.315801561,0.553461313
97905.516842,0.227327796,1.08740748,0.509579754,-0.0330629349,0.330537617,0.514286995
97905.526870,-0.22000845,1.35696581,0.235529004,0.158514485,0.286498785,0.46925351
97905.536898,-0.751518917,1.65696787,0.481457821,0.400416315,0.252310187,0.419130415
97905.546925,-1.10926063,1.70541436,1.21831196,0.655842483,0.24810347,0.381681561
97905.556953,-0.98222883,1.67723836,1.47769823,0.906871021,0.237462804,0.37780267
97905.566981,-0.64342343,1.58091135,1.75987208,1.09523106,0.251808196,0.411360919
97905.577008,-0.351854851,1.16896056,2.22418178,1.23093057,0.298536003,0.486974448
97905.587036,-0.237410945,0.664046385,2.27361772,1.29555297,0.324363083,0.573601484
97905.597064,-0.435527004,0.169137345,1.80020935,1.26275289,0.264969528,0.638866246
97905.607091,-0.78315631,-0.374154325,1.22830962,1.23583615,0.167053089,0.684726417
97905.617119,-1.14407227,-0.423787065,1.02902156,1.20415008,0.0791999325,0.686435878
97905.627147,-1.31636595,-0.156299875,0.713400199,1.13235366,-0.022347467,0.624410093
97905.637175,-1.17905591,0.0789649983,-0.133923317,1.07740784,-0.135634616,0.526567638
97905.647202,-1.02430454,0.308269246,-0.865703807,1.07842064,-0.208099216,0.432652086
97905.657230,-1.19053095,0.558824189,-1.09187754,1.02985871,-0.229011431,0.345801324
97905.667258,-1.25138099,0.454777758,-1.02564302,0.932611763,-0.200614408,0.31217894
97905.677285,-0.822968534,0.212861829,-0.960323288,0.797769785,-0.108748131,0.335802227
97905.687313,-0.176783367,0.0967703753,-1.15508832,0.715333283,0.0169970095,0.413585186
97905.697341,0.249501433,-0.294752396,-1.65221483,0.704957843,0.0883023515,0.534674346
97905.707369,0.635304713,-0.73984996,-2.50313374,0.724414647,0.048620712,0.669187903
97905.717396,1.07941538,-1.01811804,-3.31332025,0.701767921,-0.0873126164,0.792685866
97905.727424,1.42601685,-1.04900556,-3.29662104,0.591976166,-0.201577678,0.85515964
97905.737452,1.46584251,-0.797180159,-2.59849148,0.386203289,-0.212648705,0.819594443
97905.747479,1.45445574,-0.324838249,-2.47457868,0.216447026,-0.144746348,0.665975094
97905.757507,1.4326652,0.142417005,-3.32006972,0.123501644,-0.0576737672,0.432991356
97905.767535,1.41292429,0.43674818,-3.81940924,0.0268810913,0.0650201961,0.184210852
97905.777562,1.34533003,0.460357019,-3.6657659,-0.110391811,0.243796065,-0.00725099444
97905.787590,1.12232747,0.171478118,-3.43894335,-0.259030819,0.415671676,-0.103068866
97905.797618,0.683466029,-0.268879777,-3.56368617,-0.43480131,0.48976776,-0.131211296
97905.807646,0.174061303,-0.771905725,-3.71440222,-0.651381314,0.457924068,-0.133064851
97905.817673,-0.319538097,-1.29661071,-3.52293681,-0.886254787,0.36418879,-0.118655547
97905.827701,-0.7904811,-1.55247699,-3.27754108,-1.11779189,0.239119828,-0.107113414
97905.837729,-1.0569932,-1.4682392,-3.05736454,-1.29631186,0.103571318,-0.123894528
97905.847756,-1.06655919,-1.17153297,-3.03410992,-1.40083206,-0.00415168609,-0.182315215
97905.857784,-0.690142949,-0.670935195,-2.86482245,-1.43027341,-0.0333753526,-0.256562024
97905.867812,-0.294764014,-0.216192216,-2.89127089,-1.30532801,-0.00186376413,-0.313868195
97905.877839,-0.257791397,0.037444801,-2.99507263,-1.059062,0.0619301274,-0.354730129
97905.887867,-0.520783358,0.204604508,-2.80748377,-0.748572052,0.126159713,-0.3970339
97905.897895,-0.892130407,0.325301666,-2.56525147,-0.456063747,0.167270929,-0.452116609
97905.907922,-1.0709971,0.284484356,-2.10438752,-0.223748744,0.181661054,-0.502645552
97905.917950,-0.83080427,0.0469420396,-1.78935419,-0.0458634198,0.16595161,-0.511021197
97905.927978,-0.535984142,-0.324014877,-1.49137838,0.0776622444,0.109410033,-0.472683668
97905.938006,-0.388693686,-0.727598162,-0.834200415,0.124244399,0.0680924207,-0.425414413
97905.948033,-0.109564792,-0.941917862,-0.0435825366,0.0998122916,0.0506910533,-0.394076198
97905.958061,0.205540693,-0.959775664,0.232687643,0.0803131536,0.0416887701,-0.37586683
97905.968089,0.389993845,-0.903120222,0.231869312,0.108637206,0.0273332708,-0.36226207
97905.978116,0.454490867,-0.948146235,-0.182274968,0.207317963,-0.00933472998,-0.357991695
97905.988144,0.177361514,-0.826511906,-0.736588766,0.339895189,-0.0538137816,-0.3917422
97905.998172,-0.418886835,-0.64519044,-1.18239835,0.486712068,-0.0850965977,-0.451437503
97906.008199,-0.934312063,-0.604842391,-1.25986504,0.588925242,-0.0953436419,-0.51254344
97906.018227,-1.15445221,-0.744611475,-1.03502577,0.619627237,-0.0775417462,-0.547936618
97906.028255,-1.02973935,-0.875169554,-0.619457594,0.594365299,-0.0390558764,-0.551235735
97906.038282,-0.735471599,-0.865325767,-0.240574012,0.549459577,-0.00871234853,-0.542429447
97906.048310,-0.486194969,-0.709623676,0.103199678,0.479864001,0.0042399345,-0.533583522
97906.058338,-0.269969837,-0.610744857,0.518797664,0.363099575,-0.0101264874,-0.509227037
97906.068366,-0.131408814,-0.702016123,0.748176328,0.198628873,-0.0793971717,-0.463378847
97906.078393,-0.0289319704,-0.769989005,0.668109104,0.0943320394,-0.153718799,-0.407407463
97906.088421,0.161132775,-0.618701953,0.425533105,0.108752787,-0.207848355,-0.365030706
97906.098449,0.000443579049,-0.257722569,-0.397593543,0.271690577,-0.264945179,-0.365673333
97906.108476,-0.556033644,-0.0541751692,-0.803913413,0.436372191,-0.276484132,-0.396575302
97906.118504,-0.82989395,-0.21672625,-0.21078327,0.510435224,-0.209268883,-0.390707046
97906.128532,-0.691703477,-0.555711609,0.323391996,0.514959931,-0.126106083,-0.353249162
97906.138559,-0.482116796,-0.63838529,0.624960283,0.444883645,-0.0895470083,-0.305749267
97906.148587,-0.269639327,-0.647392699,1.03581254,0.337960124,-0.0907917693,-0.24241212
97906.158615,-0.130417684,-0.674354648,1.64701551,0.151074141,-0.106976867,-0.161945239
97906.168642,-0.0527456114,-0.650405763,2.27669113,-0.0885962322,-0.12821877,-0.0723242685
97906.178670,-0.128667187,-0.360595792,2.4882863,-0.288347453,-0.169822946,-0.00975995883
97906.188698,-0.152686068,-0.114280386,2.32789642,-0.373482317,-0.216573402,0.0424174927
97906.198725,-0.22727919,0.0354325479,1.97220141,-0.338197023,-0.257254779,0.0891208127
97906.208753,-0.580251957,0.117758437,2.00527599,-0.293030888,-0.28341341,0.114812061
97906.218781,-0.784618784,0.0570919335,2.28804781,-0.280513495,-0.303044111,0.118033953
97906.228808,-0.686397333,-0.0651595046,2.28550397,-0.282206714,-0.351453722,0.099675186
97906.238836,-0.466717421,-0.203466225,2.06410812,-0.241003886,-0.41409421,0.040739432
97906.248864,-0.213438625,-0.335540553,2.13180511,-0.195090726,-0.451130509,-0.0689998493
97906.258892,-0.00530095595,-0.402280313,2.51726047,-0.147667021,-0.436612278,-0.216999158
97906.268919,0.0802402424,-0.334920814,2.72834652,-0.0700848699,-0.381983668,-0.39504534
97906.278947,0.0137323349,-0.0853203221,2.65550048,0.0441050865,-0.270922929,-0.606068075
97906.288975,-0.00492267439,0.0943571036,2.79221723,0.158186376,-0.104813844,-0.778327227
97906.299002,-0.0646877863,0.192236682,2.9291409,0.235628963,0.0913764387,-0.912961423
97906.309030,-0.162202267,0.41985389,2.96171572,0.27226609,0.247003853,-0.990964651
97906.319058,-0.122426101,0.471955029,2.77315305,0.233727202,0.304889262,-1.00816727
97906.329085,0.0194584688,0.448795834,2.69646202,0.194743052,0.295895219,-0.923618913
97906.339113,0.308256058,0.513122614,2.90333192,0.0832199976,0.253584266,-0.768547535
97906.349141,0.46345009,0.578567438,3.00618731,-0.073710233,0.177670583,-0.627952874
97906.359168,0.431026368,0.920345717,2.96469035,-0.300014466,0.0885739923,-0.445941538
97906.369196,0.430386317,0.915512305,3.15318404,-0.609724641,-0.0313279144,-0.229675278
97906.379224,0.829155918,0.635029476,3.11783041,-0.945449173,-0.162413016,-0.00794088747
97906.389251,1.10540849,0.646764557,2.83410933,-1.26756251,-0.281568706,0.165170163
97906.399279,1.26136024,0.397237386,2.20052618,-1.50158405,-0.382714212,0.303767741
97906.409307,1.2774251,0.338890192,1.37027362,-1.60349739,-0.439436108,0.402117759
97906.419334,0.824668251,0.767587643,1.01572661,-1.58918047,-0.402740926,0.410056889
97906.429362,0.043853531,1.31732456,0.90229137,-1.45008624,-0.284981012,0.322993636
97906.439390,-0.536685349,1.68892602,0.56661097,-1.23648024,-0.131745383,0.200326562
97906.449417,-0.664558645,1.69173027,0.288732771,-0.990650713,0.0115182996,0.106867187
97906.459445,-0.597445449,1.60007577,-0.0948725789,-0.698132575,0.109310374,0.0457162149
97906.469473,-0.61259823,1.6177013,-0.40029871,-0.357148886,0.172511175,-0.0102290744
97906.479500,-0.524235654,1.43181077,-0.175034495,-0.0751030818,0.211922765,-0.0448568277
97906.489528,-0.230179642,0.850006179,0.0271627322,0.102575563,0.20197773,-0.0190561228
97906.499556,0.01336149,0.249581056,-0.162402393,0.261343628,0.155535132,0.0547283553
97906.509583,0.0537413581,0.0421938953,-0.0609042583,0.400182724,0.133419171,0.122643754
97906.519611,-0.0623049371,-0.0341986222,0.325861017,0.513347924,0.142701894,0.179729134
97906.529639,-0.0724659095,-0.248736933,0.352435135,0.625158072,0.138641626,0.239673167
97906.539666,0.164030104,-0.47339025,0.228254629,0.704484284,0.114445485,0.310801953
97906.549694,0.393045963,-0.500781384,0.250396318,0.71912235,0.0726833865,0.383878559
97906.559722,0.515794719,-0.468058205,0.197833772,0.640265644,-0.00485641323,0.467431515
97906.569749,0.669529493,-0.420644273,-0.0300806655,0.483856589,-0.105331086,0.564969778
97906.579777,0.826494224,-0.116214259,-0.256738381,0.280776173,-0.210944325,0.643290639
97906.589805,0.829907613,0.295675101,-0.603035451,0.0715183169,-0.319689453,0.671166241
97906.599832,0.660727177,0.686143504,-0.891628521,-0.162198037,-0.398433805,0.649582088
97906.609860,0.410881954,0.85877145,-0.833694803,-0.327828825,-0.395026833,0.593553483
97906.619888,0.12039443,0.889059621,-0.701967535,-0.381807387,-0.31083551,0.514932394
97906.629915,-0.163029311,0.698170627,-0.498444027,-0.309446633,-0.193066001,0.427778363
97906.639943,-0.208308879,0.421337699,-0.503426492,-0.111941263,-0.0860218406,0.332056105
97906.649971,-0.18540227,0.273998801,-0.476951742,0.150057599,-0.0098759383,0.230955303
97906.659998,-0.162921119,0.158606983,-0.128708797,0.421796679,0.0450578816,0.136629865
97906.670026,-0.0954420676,0.0461663334,0.507538019,0.65129751,0.0972316042,0.0752591938
97906.680054,0.13525758,-0.0110092004,0.912292539,0.833148539,0.133491606,0.0517389551
97906.690081,0.373179269,0.109424845,1.15548112,0.929954469,0.147613287,0.056403216
97906.700109,0.556538598,-7.69194274e-05,1.28808283,0.943048418,0.11918804,0.0939210281
97906.710137,0.455095263,-0.171216508,1.11559568,0.916763544,0.0598461479,0.137921497
97906.720164,0.3515018,-0.193818216,0.776412827,0.887034118,-0.0154603217,0.17045255
97906.730192,0.264353532,-0.154057028,0.119179922,0.846516788,-0.0867528766,0.175591916
97906.740220,0.207255278,-0.179296281,-0.179577399,0.740937948,-0.104077272,0.16198875
97906.750247,0.277054462,-0.319724414,-0.41638183,0.652709544,-0.0793668628,0.134541154
97906.760275,0.0874278524,-0.479780462,-0.729980746,0.566128552,-0.0346713029,0.0797482207
97906.770303,-0.232918474,-0.539775643,-0.789409087,0.500431061,0.010581133,0.0107752765
97906.780330,-0.560131581,-0.550674784,-0.886284822,0.477317721,0.0380926505,-0.0598917007
97906.790358,-0.782505445,-0.315707652,-0.6850164,0.539741933,0.067086488,-0.128874511
97906.800386,-0.724877724,-0.102461938,-0.0266787481,0.587573647,0.0911598653,-0.16637288
97906.810413,-0.516258537,-0.0395830917,0.770026926,0.625411868,0.0836500153,-0.16660431
97906.820441,-0.337720966,0.256920971,0.836418091,0.663532078,0.0110791447,-0.170123681
97906.830469,-0.186678829,0.508017327,1.01927583,0.552761912,-0.103348359,-0.168433905
97906.840496,-0.568553446,0.852232915,1.59164668,0.24053131,-0.194240987,-0.198075682
97906.850524,-0.157570735,0.563452506,1.71589791,-0.117140546,-0.238400996,-0.120031469
97906.860552,0.253410771,0.337699631,1.94311969,-0.619135261,-0.210695595,-0.000197214074
97906.870579,0.301935421,0.399878439,1.62452077,-1.06677687,-0.167428285,0.0966020375
97906.880607,-0.081056372,0.574863908,1.00718908,-1.42578387,-0.114942968,0.119064197
97906.890635,-0.560027317,0.865725726,0.551620322,-1.61864591,-0.0413816683,0.062577486
97906.900662,-0.674621993,0.971758143,-0.213548058,-1.58690512,0.0199607871,-0.0385347493
97906.910690,-0.506622621,0.995816845,-1.22315998,-1.44711256,0.0139167421,-0.149996296
97906.920718,-0.351716027,0.821851002,-2.00253049,-1.28750181,-0.0807439834,-0.232756689
97906.930745,-0.31985425,0.546156211,-2.26905903,-1.16876912,-0.210457772,-0.274089754
97906.940773,-0.27364975,0.334489108,-1.86379247,-1.08850861,-0.32482031,-0.283527195
97906.950801,-0.147413407,0.216244896,-1.31692665,-1.06000936,-0.381811142,-0.276450902
97906.960828,0.0642116841,0.256372415,-0.48226037,-1.09640861,-0.360051513,-0.265442461
97906.970856,0.0934683381,0.369209744,0.207066295,-1.14051986,-0.277654916,-0.249731943
97906.980884,0.258356666,0.463565752,0.799222625,-1.19418418,-0.174728274,-0.197823212
97906.990911,0.657265493,0.511240965,1.18509417,-1.21558797,-0.0802251995,-0.108342327
97907.000939,0.937197775,0.626392581,1.34756203,-1.17739165,-0.033924818,-0.0178790055
97907.010967,1.08384358,0.726789111,1.02834761,-1.04344368,-0.0503725,0.0442197882
97907.020994,0.971545816,0.880652369,0.610797318,-0.833296537,-0.100856707,0.0657969788
97907.031022,0.578766176,0.817409731,0.460201098,-0.618248701,-0.154756159,0.0620432571
97907.041049,0.307397212,0.378791008,0.367378437,-0.446158141,-0.193308085,0.0566769876
97907.051077,0.2151647,0.052652855,0.390638317,-0.323447406,-0.20493491,0.0472656451
97907.061105,0.173664814,0.0421375254,0.255730665,-0.205055222,-0.186013684,-0.00916913804
97907.071132,0.178494134,0.100551136,0.208706463,-0.096427016,-0.127448902,-0.0989176631
97907.081160,0.126338159,0.306743278,0.172511114,-0.00520895701,-0.0427606516,-0.220179915
97907.091188,0.243296058,0.600983268,0.11676117,0.10730534,0.0530087501,-0.326547891
97907.101215,0.399195973,0.715535676,0.159877258,0.257586181,0.151022404,-0.353181899
97907.111243,0.315170184,0.523359857,0.466426841,0.383748889,0.248501286,-0.288297713
97907.121271,0.134480294,0.348261284,0.917235841,0.471219897,0.337180555,-0.178029001
97907.131298,-0.0571142914,0.33223815,1.03259825,0.502983928,0.372412056,-0.0748469457
97907.141326,-0.365466978,0.388313162,1.01256259,0.45428884,0.338534236,0.0025642179
97907.151354,-0.647225014,0.232527922,1.01791272,0.36391741,0.24723123,0.0721270517
97907.161381,-0.899180837,0.0859956641,1.07076227,0.290969431,0.142710403,0.118608534
97907.171409,-1.13823334,0.102407797,1.17514268,0.229555354,0.0555283651,0.114522979
97907.181437,-1.16010586,0.129136083,1.2059049,0.14512676,0.00196767109,0.0642712563
97907.191464,-0.983616996,0.0536347787,1.21773562,0.026903173,-0.00257062167,-0.00885648187
97907.201492,-0.757574564,0.0628339112,1.1923966,-0.0993857905,0.0450102128,-0.0867294446
97907.211520,-0.629600656,0.0997998061,1.10237204,-0.222191602,0.115284644,-0.151681811
97907.221547,-0.688144542,0.226803626,0.75821783,-0.2956613,0.172670707,-0.185013935
97907.231575,-0.799112443,0.353173606,0.362446826,-0.33922717,0.181633309,-0.183757454
97907.241603,-0.903674349,0.429544313,-0.0237082078,-0.390196055,0.132077202,-0.148879632
97907.251630,-1.00155049,0.463736579,-0.590310994,-0.41151467,0.0354230963,-0.107292771
97907.261658,-0.998877767,0.603309592,-1.17424544,-0.443869412,-0.0823251009,-0.0743228421
97907.271686,-0.875323137,0.713914505,-1.73794608,-0.478250295,-0.191718712,-0.0547414124
97907.281713,-0.825760869,0.840429299,-2.0723452,-0.533862948,-0.247086883,-0.0521466956
97907.291741,-0.655110507,0.738546038,-2.20110602,-0.565453887,-0.242238611,-0.0298629627
97907.301768,-0.285087016,0.491064219,-2.35156254,-0.543711305,-0.177549884,0.0236386098
97907.311796,0.105153132,0.235220522,-2.20891114,-0.491770625,-0.06856668,0.0970670208
97907.321824,0.316077874,0.112402756,-2.32281692,-0.304011106,0.0362766422,0.176410303
97907.331851,0.294634652,0.118092565,-2.71572436,0.0246408172,0.100505166,0.242477745
97907.341879,0.117252625,0.279415053,-3.0531139,0.467179626,0.12835224,0.265200913
97907.351907,-0.226281703,0.602936229,-3.14916663,0.931374192,0.144738406,0.228416517
97907.361934,-0.527958218,0.817287493,-3.01009835,1.33914006,0.16650869,0.170475185
97907.371962,-0.773383762,0.739809847,-2.99398016,1.59926856,0.159503236,0.126579642
97907.381990,-1.06184999,0.627760508,-2.77404152,1.66940832,0.131804407,0.104888864
97907.392017,-1.22184335,0.465717231,-2.13971486,1.58031094,0.111076765,0.125552595
97907.402045,-1.09610027,0.26405696,-1.68216164,1.40494895,0.0910657719,0.180254191
97907.412073,-1.1463118,0.218802526,-1.39672791,1.2092644,0.0653260574,0.217483848
97907.422100,-1.32362717,-0.0235604517,-1.14920277,1.03821278,0.0296751149,0.244549289
97907.432128,-1.23778677,-0.450854301,-0.876712692,0.867135882,0.00199049083,0.298395485
97907.442155,-1.04766101,-0.932411783,-0.492870611,0.733850539,-0.00118106767,0.355087787
97907.452183,-1.05923396,-1.09234545,-0.11163842,0.691018403,0.035596922,0.369000167
97907.462211,-1.09065603,-1.06503666,0.35162265,0.726718307,0.0915864184,0.32874915
97907.472238,-1.04874282,-1.09194739,0.757891667,0.828700364,0.144064263,0.27815786
97907.482266,-0.747905037,-1.08078799,0.965126304,0.935423613,0.146996945,0.227632627
97907.492294,-0.319856041,-0.948155515,0.912253961,0.941175222,0.0628940538,0.178695977
97907.502321,0.0069619023,-0.970699647,0.676339757,0.778552473,-0.132032827,0.178691715
97907.512349,0.163622619,-1.28417092,0.816836023,0.538435757,-0.3260023,0.23953402
97907.522377,0.261498745,-1.33903794,1.65011465,0.255185962,-0.422322422,0.312090278
97907.532404,0.645634895,-1.35387194,2.48836463,-0.0586308353,-0.415699422,0.377949983
97907.542432,1.25703391,-1.08527609,2.57872236,-0.316994727,-0.322046965,0.386650264
97907.552460,1.57822547,-0.681459292,3.08819924,-0.501695871,-0.135790288,0.32901597
97907.562487,1.62646124,-0.433177007,3.49252764,-0.537319899,0.0855911151,0.226391852
97907.572515,1.30601845,-0.194070766,3.02826412,-0.409279913,0.272971123,0.0563479587
97907.582543,0.433843581,0.284760762,2.02575296,-0.222251996,0.361028016,-0.193442166
97907.592570,-0.919164909,0.642975029,0.647808075,-0.0513249822,0.294015974,-0.463973254
97907.602598,-2.01021915,0.584108523,-0.468776034,0.0941105038,0.158685297,-0.655523002
97907.612625,-2.14227068,0.37444454,-0.622301293,0.189391479,0.0436407328,-0.728637695
97907.622653,-1.59526165,0.22050164,-0.461243885,0.182305351,-0.0501028039,-0.717721939
97907.632681,-0.808006235,0.174376945,-0.198102067,0.0510059148,-0.105991371,-0.684036672
97907.642708,-0.0113678,0.195920887,0.0905465324,-0.126857832,-0.0919690281,-0.63378495
97907.652736,0.440152509,-0.0490773346,0.561380668,-0.358917147,-0.00475502992,-0.576254547
97907.662764,0.493613538,-0.361959262,0.98689273,-0.611230075,0.0749509856,-0.498370379
97907.672791,0.632267172,-0.431963247,1.13088385,-0.881650388,0.117537059,-0.410604298
97907.682819,0.837411851,-0.431406563,1.01325058,-1.15286171,0.0942152292,-0.370493352
97907.692847,0.712114981,0.0791097771,0.250278245,-1.40097594,0.0207503289,-0.404216439
97907.702874,0.574469684,0.697645799,-0.457488332,-1.5606761,-0.0377361476,-0.494339913
97907.712902,0.408016043,0.977667002,-1.21334236,-1.61272573,-0.0583996139,-0.614334047
97907.722930,0.0828385701,1.09867903,-1.95033561,-1.58049822,-0.0534365475,-0.731043577
97907.732957,-0.0638261371,1.20230702,-2.76238615,-1.4243505,-0.0629554838,-0.830964327
97907.742985,-0.041097113,1.26117612,-3.41461906,-1.16688061,-0.0997734219,-0.905871868
97907.753013,0.0450638247,1.13458044,-3.86437592,-0.851793408,-0.166436076,-0.925460219
97907.763040,0.313239764,0.901020035,-4.05261418,-0.544493139,-0.229201198,-0.898674667
97907.773068,0.563994139,0.700433969,-3.87235055,-0.273172945,-0.247692317,-0.83478862
97907.783095,0.785728353,0.244634905,-3.22204189,-0.0119405612,-0.192473531,-0.696554601
97907.793123,1.03223044,-0.269127687,-2.21551566,0.223242119,-0.0993363932,-0.503002942
97907.803151,1.24205933,-0.540517913,-1.24029408,0.394479394,-0.0408741497,-0.28827706
97907.813178,1.54743943,-0.903649141,-0.408529947,0.462744474,-0.023825394,-0.0412062928
97907.823206,1.89934338,-1.28358537,0.71915014,0.419319779,-0.0148617271,0.206745192
97907.833234,2.17399677,-1.4426161,1.58878836,0.281527817,-0.0261359531,0.391078562
97907.843261,2.12906034,-1.25111036,1.98434426,0.070948191,-0.053995546,0.470368057
97907.853289,1.87763366,-0.832274781,2.30691384,-0.166938931,-0.0497315563,0.435197294
97907.863317,1.48568382,-0.234773071,2.29749251,-0.400154054,-0.00776972855,0.314715624
97907.873344,0.917566826,0.368602572,1.92234812,-0.629025877,0.0632876679,0.189955547
97907.883372,0.310441147,0.881616904,1.35139181,-0.839832127,0.132786319,0.088259019
97907.893399,-0.280913585,1.3392339,0.558925092,-0.969926715,0.155780852,-0.0118119195
97907.903427,-0.892401625,1.82247408,-0.302263868,-0.999660909,0.130745798,-0.117311984
97907.913455,-1.23407272,2.12367645,-0.935924175,-0.925582945,0.0695836544,-0.196523711
97907.923482,-1.10104635,2.00571774,-1.15709148,-0.775330603,-0.0207212139,-0.200276107
97907.933510,-0.552115558,1.482401,-1.02052904,-0.582714558,-0.087139383,-0.120948523
97907.943538,0.017294925,0.939440805,-0.566206481,-0.373817533,-0.0919602364,-0.0192005932
97907.953565,0.206083915,0.658121087,0.180192316,-0.208831519,-0.0402504392,0.0472881496
97907.963593,0.154300408,0.478505255,0.800771608,-0.0477102771,0.0300855078,0.0800556839
97907.973621,0.0634924482,0.45775239,1.0444354,0.145635486,0.0936354548,0.091962412
97907.983648,-0.116314559,0.484772352,1.10860948,0.366539121,0.119543217,0.0773046389
97907.993676,-0.269546881,0.601968115,0.861509862,0.590913355,0.0831926689,0.0596004799
97908.003704,-0.369757076,0.551672636,0.448995813,0.783663392,0.00429092906,0.0628601909
97908.013731,-0.492169331,0.502162025,-0.173003866,0.94793433,-0.0885644406,0.0765967667
97908.023759,-0.582000335,0.643378349,-0.852819775,1.071738,-0.171371982,0.0932132974
97908.033786,-0.581987184,0.6362531,-1.02494511,1.13790822,-0.188975736,0.118419848
97908.043814,-0.393806864,0.522176931,-0.950766355,1.20443046,-0.115197919,0.138948292
97908.053842,-0.20476211,0.471156573,-0.55022799,1.2622776,0.0398329459,0.14314197
97908.063869,-0.103674602,0.40978203,0.00936988589,1.3365159,0.21661064,0.11364986
97908.073897,-0.0581456072,0.260665052,0.231224,1.34755969,0.332565755,0.0682616085
97908.083925,0.0431765131,-0.0668704367,0.458612952,1.24720991,0.396608651,0.0532597601
97908.093952,0.0856251503,-0.212095795,0.599695493,0.995078444,0.395899445,0.07357914
97908.103980,-0.23791641,0.0259290531,0.27333588,0.622033477,0.314635754,0.109165631
97908.114008,-0.336389863,0.147277651,-0.293834478,0.201649219,0.189203247,0.1869113
97908.124035,-0.331413025,0.13486279,-0.760291714,-0.268139571,0.0393903293,0.285327613
97908.134063,-0.476349209,0.337532019,-1.0630419,-0.679875433,-0.0788050219,0.371337622
97908.144090,-0.409635936,0.529190755,-1.2368302,-0.934885919,-0.0863769203,0.458359331
97908.154118,-0.156526724,0.620653234,-1.06709849,-1.02297831,0.0234092288,0.548416734
97908.164146,-0.0644818428,0.670138491,-1.06059042,-0.956041813,0.14855516,0.612105429
97908.174173,-0.153321042,0.681086367,-1.41354227,-0.733268917,0.236481547,0.606015086
97908.184201,-0.479192251,0.748971278,-1.66775844,-0.453521937,0.264358997,0.531225801
97908.194229,-0.7845455,0.752359094,-1.83024559,-0.174084991,0.221874371,0.451438844
97908.204256,-1.0047403,0.679019059,-2.09254277,0.112824805,0.11204429,0.396945238
97908.214284,-1.24674793,0.693151483,-2.17564483,0.396389425,-0.03183911,0.355025738
97908.224312,-1.25612658,0.676175872,-1.96070737,0.656031668,-0.163616851,0.331367821
97908.234339,-0.865720173,0.448523666,-1.52408764,0.846127808,-0.246991634,0.363344401
97908.244367,-0.246545963,0.0716141972,-0.876633781,0.922496915,-0.228841394,0.435685426
97908.254395,0.199700095,-0.175563396,-0.218703541,0.890215099,-0.1340563,0.488303125
97908.264422,0.285384063,-0.396928649,-0.0516933624,0.797992766,-0.0368636958,0.51947248
97908.274450,0.176018903,-0.634994332,0.0111836573,0.658357382,0.0293363612,0.538551092
97908.284477,-0.0229350589,-0.842866975,0.0991214685,0.491331637,0.0607520752,0.537796617
97908.294505,-0.189164435,-0.950126522,0.0731932465,0.336210489,0.0635329485,0.491306633
97908.304533,-0.313768136,-0.918285058,-0.0221475344,0.231590331,0.0224686004,0.400584698
97908.314560,-0.341355267,-0.897742986,-0.131926006,0.184366629,-0.0451269522,0.285026699
97908.324588,-0.172494693,-0.780412564,-0.346834831,0.197759137,-0.12030746,0.158734247
97908.334616,0.00765794001,-0.674549951,-0.460876805,0.265112102,-0.170525089,0.047908932
97908.344643,0.14497522,-0.564048974,-0.338237683,0.335682124,-0.18686758,-0.0486407727
97908.354671,0.413628294,-0.514715948,-0.0917535701,0.37651825,-0.153272077,-0.116103441
97908.364699,0.857835996,-0.774607678,0.551061519,0.311370134,-0.0781821087,-0.140437812
97908.374726,1.18545964,-0.995809319,1.1086352,0.182526648,-0.0141578522,-0.134823337
97908.384754,1.23553081,-1.13050318,1.46841719,0.0589286387,0.0402453989,-0.117222443
97908.394781,1.13270778,-1.17819681,1.7438024,-0.0256552175,0.074904047,-0.113302007
97908.404809,0.786993769,-1.14495023,1.80105924,-0.113215961,0.0593637004,-0.127057493
97908.414837,0.188911155,-1.14725207,1.86492352,-0.236651331,0.00421735924,-0.151869372
97908.424864,-0.301289945,-1.17417902,2.04428348,-0.340437919,-0.0337039232,-0.150318071
97908.434892,-0.512876494,-0.947791942,2.20972071,-0.37764734,-0.0389202572,-0.138312012
97908.444920,-0.350529302,-0.557859947,2.37026666,-0.39708814,-0.0326178856,-0.121477902
97908.454947,0.0863877779,-0.279154101,2.59277894,-0.457825005,-0.0575730391,-0.0770928711
97908.464975,0.475134098,-0.000607800017,2.49019535,-0.58286494,-0.129599288,-0.0123343784
97908.475003,0.680534798,0.177865225,2.19455704,-0.754569054,-0.211273387,0.0459190756
97908.485030,0.606321707,0.341291079,2.03757141,-0.920662403,-0.260108858,0.0433118418
97908.495058,0.293884692,0.58965443,1.70529176,-1.0262326,-0.254892766,-0.0278227888
97908.505086,-0.012709296,0.74573215,1.59170396,-1.05191982,-0.176763073,-0.150890917
97908.515113,-0.349125536,0.764942608,1.49496149,-1.07855034,-0.0786053464,-0.284406126
97908.525141,-0.466158984,0.429085792,1.42167472,-1.17244887,-0.0122910431,-0.341094434
97908.535168,-0.471771782,-0.0204896111,1.27913965,-1.25970256,0.00771329086,-0.31640479
97908.545196,-0.623988223,-0.234242983,1.27203011,-1.25483882,0.0166340806,-0.253036469
97908.555224,-0.657338266,-0.271729467,1.30363871,-1.08608949,0.0291101914,-0.190097719
97908.565251,-0.372632303,-0.214108395,1.11198626,-0.696079671,0.0651054829,-0.145301744
97908.575279,0.140026292,-0.292599091,0.704023298,-0.108641185,0.125406906,-0.140672639
97908.585307,0.321643801,-0.447666684,0.243382055,0.556063294,0.171536043,-0.206183478
97908.595334,0.160774901,-0.497208859,-0.0797691178,1.14642131,0.161593139,-0.311676353
97908.605362,0.0687341847,-0.697935795,0.115604986,1.47146261,0.10952168,-0.378107041
97908.615390,0.0692824845,-0.96581246,0.753668496,1.4772011,0.027826814,-0.357734144
97908.625417,0.111946609,-0.996330274,1.45934482,1.22329211,-0.0444159582,-0.246182814
97908.635445,0.226078691,-0.838440244,2.31869195,0.818764985,-0.0735384151,-0.0798516423
97908.645473,0.325670755,-0.271925647,2.87661459,0.397546649,-0.0594260655,0.0569741242
97908.655500,0.511258391,0.419049661,3.17957872,0.0616748929,0.00715615787,0.128975078
97908.665528,0.562567321,0.909605346,3.28156493,-0.156697378,0.0987356082,0.129446462
97908.675555,0.225358506,1.16601639,3.05847864,-0.332729936,0.164106622,0.0714092553
97908.685583,-0.272621996,1.07069373,2.76215234,-0.503457725,0.206245556,-0.0119428933
97908.695611,-0.717761536,0.894064297,2.50901111,-0.617445052,0.239636004,-0.110491306
97908.705638,-0.922863106,0.850701029,2.27733937,-0.641447008,0.256881297,-0.204269454
97908.715666,-0.90504834,0.808164349,2.02526723,-0.580727994,0.232068896,-0.270278841
97908.725694,-0.776442784,0.725098016,1.79570619,-0.481884539,0.158085749,-0.315952331
97908.735721,-0.655330579,0.797012694,1.64550978,-0.353822172,0.0564770997,-0.332683384
97908.745749,-0.504521228,0.900612696,1.4372195,-0.162910536,-0.0306279734,-0.318858892
97908.755777,-0.331717086,1.07431602,1.26496441,0.0470943525,-0.0937347636,-0.285929441
97908.765804,-0.0365257682,1.27376818,1.01905254,0.222112238,-0.121220984,-0.230633155
97908.775832,0.18357542,1.28991092,0.857741449,0.344761729,-0.109276175,-0.161402419
97908.785859,0.26849423,1.21615887,0.670092387,0.430027902,-0.0583980866,-0.102401152
97908.795887,0.366191347,1.004054,0.447593545,0.475029975,0.00206712307,-0.0441993661
97908.805915,0.47705944,0.777411629,0.255921803,0.477019906,0.0562760308,-0.00234752335
97908.815942,0.474055509,0.671162939,0.142051094,0.495152831,0.0840549394,0.00626726961
97908.825970,0.387941844,0.791122613,-0.226847685,0.550376415,0.0710262209,-0.00818517245
97908.835998,0.288845492,0.790977213,-0.498114941,0.617048621,0.0272853933,-0.00468018651
97908.846025,0.334126193,0.820165168,-0.783754422,0.707942605,-0.0505553409,0.0352464542
97908.856053,0.436867057,0.97113212,-1.01178693,0.801175594,-0.139033809,0.0839428902
97908.866081,0.654337769,0.959391267,-0.833835089,0.836014807,-0.20426181,0.134887561
97908.876108,1.05276966,0.902323372,-0.648551587,0.814126313,-0.208764151,0.1819648
97908.886136,1.33812068,0.783180495,-0.720139151,0.757399917,-0.181296036,0.234514818
97908.896164,1.22198868,0.620188539,-1.09093237,0.656389654,-0.1553462,0.269871742
97908.906191,0.933246553,0.475163653,-1.436566,0.424038708,-0.15830417,0.278737128
97908.916219,0.732518887,0.195141062,-1.79656894,0.129029438,-0.132516786,0.303550601
97908.926246,0.717297279,0.107900814,-1.9317484,-0.103890106,-0.026507264,0.354404986
97908.936274,0.613863427,0.167410796,-2.00368785,-0.206361338,0.11197339,0.401959985
97908.946302,0.564486452,0.157375176,-2.18650993,-0.183894649,0.217058524,0.432683825
97908.956329,0.605719211,0.268010666,-2.26500537,-0.0682908297,0.274731398,0.412879497
97908.966357,0.649243587,0.536303364,-2.4244723,0.106651954,0.280563176,0.348745763
97908.976385,0.692886695,0.616593875,-2.57299522,0.253423572,0.256139874,0.283830166
97908.986412,0.771440592,0.375510598,-2.48323311,0.249813646,0.233100608,0.242484868
97908.996440,0.644298532,0.156554452,-2.49391408,0.134810358,0.216282487,0.219054103
97909.006468,0.228318616,-0.0294258183,-2.79846226,-0.0635434762,0.173919052,0.198818073
97909.016495,-0.613645839,-0.0807904145,-3.31238969,-0.285871089,0.110212773,0.161819056
97909.026523,-1.58262166,-0.0325947307,-3.47986339,-0.507989883,0.0627009124,0.104924336
97909.036551,-2.08288895,0.0552137094,-3.25547245,-0.743507087,0.0734084174,0.0544220172
97909.046578,-1.84971382,0.0625724472,-2.74554257,-0.934271991,0.169949606,0.0531037524
97909.056606,-1.29279218,-0.0129355973,-1.95245041,-0.998122871,0.335720718,0.104631662
97909.066633,-0.808343943,-0.113864225,-1.2869436,-0.907500565,0.474993914,0.182340562
97909.076661,-0.476981918,-0.0794654221,-0.979872622,-0.678350687,0.531084895,0.241059273
97909.086689,-0.267704888,0.176268238,-1.05220954,-0.286713988,0.514914453,0.274494708
97909.096716,-0.369561334,0.402168084,-1.33288702,0.226909131,0.437650263,0.275712311
97909.106744,-0.77329696,0.338927382,-1.6827637,0.700241268,0.258328468,0.277138174
97909.116772,-1.27946742,0.00635676688,-1.85449623,1.00361526,0.00706161559,0.315180629
97909.126799,-1.59210757,-0.344972325,-1.30055302,1.16492069,-0.211261123,0.392461568
97909.136827,-1.38527611,-0.600169979,-0.330562911,1.17777872,-0.351919979,0.466413558
97909.146855,-0.860260812,-0.642153191,0.504539421,1.08945394,-0.406694293,0.502201915
97909.156882,-0.399173871,-0.550091797,1.27731418,0.916314423,-0.376359016,0.496697426
97909.166910,0.0608023186,-0.582406213,1.87615861,0.735273004,-0.286522329,0.472514063
97909.176938,0.237810265,-0.506734886,1.99505154,0.578758001,-0.182005242,0.421059936
97909.186965,0.119994654,-0.43237223,1.78980252,0.427600145,-0.0929627195,0.33725822
97909.196993,-0.278256038,-0.363681958,1.33641285,0.280332148,-0.0558435805,0.209442228
97909.207021,-0.755993651,-0.216976279,0.742267397,0.159840345,-0.0788298547,0.0574268587
97909.217048,-1.0641278,-0.166236053,0.195310391,0.0466852896,-0.152037755,-0.0846309513
97909.227076,-1.00688214,-0.266813273,-0.0728618226,-0.0973839983,-0.241997734,-0.169478983
97909.237103,-0.614723697,-0.343674577,-0.185257199,-0.243613645,-0.315367848,-0.186123744
97909.247131,-0.0694355197,-0.356585862,-0.0382213018,-0.416185141,-0.342325687,-0.136168972
97909.257159,0.253919067,-0.290762012,0.038800563,-0.59662658,-0.324587971,-0.0673606098
97909.267186,0.390003928,-0.268915068,0.15979601,-0.775813639,-0.245245725,0.00719644688
97909.277214,0.613606384,-0.290957881,0.39629532,-0.895495296,-0.101845689,0.0756838918
97909.287242,0.659342226,-0.216530471,0.5681997,-0.920057058,0.0347877853,0.10525617
97909.297269,0.495199273,-0.154276625,0.383588398,-0.875593722,0.108148821,0.0895118266
97909.307297,0.336849407,-0.169830935,0.0369400299,-0.782810569,0.114543334,0.0501684137
97909.317325,0.166022848,-0.146874359,-0.590551818,-0.616119027,0.0860965177,-0.0118171927
97909.327352,-0.118608369,-0.0526997447,-1.01191436,-0.419925034,0.0693212673,-0.0801829398
97909.337380,-0.289340016,-0.0800287916,-1.24672791,-0.240035683,0.0766652003,-0.113424778
97909.347408,-0.383084468,-0.186069848,-1.52200791,-0.103273578,0.0910473317,-0.11896655
97909.357435,-0.531502978,-0.244954986,-1.71011407,0.00530376332,0.0929243267,-0.109482497
97909.367463,-0.627527284,-0.227946823,-1.79299109,0.085790351,0.0722563341,-0.0825656652
97909.377490,-0.729391987,-0.293257354,-1.81717977,0.061972633,0.0210080557,-0.0469845012
97909.387518,-0.752797047,-0.442015015,-1.65213534,-0.0664197803,-0.0462815166,0.00101930974
97909.397546,-0.491143276,-0.523860756,-1.21346335,-0.244585261,-0.0614053421,0.0553347468
97909.407573,-0.0572000517,-0.428362008,-0.627955373,-0.408936381,-0.00229408639,0.0780147538
97909.417601,0.315045864,-0.12724974,-0.457353892,-0.485734493,0.0669638142,0.0568996221
97909.427629,0.393880806,0.208269058,-1.32138597,-0.422310233,0.0732539371,-0.0114022065
97909.437656,0.139865567,0.335023288,-2.20202431,-0.292526692,0.0451828837,-0.121389955
97909.447684,-0.140834978,0.344697856,-2.57293443,-0.16915442,0.00982862338,-0.255435377
97909.457712,-0.487914925,0.282591017,-2.63213246,-0.114187837,-0.0182879679,-0.390974551
97909.467739,-0.625998321,-0.00900631328,-2.23226279,-0.15888074,-0.0274178162,-0.491837233
97909.477767,-0.558988183,-0.0818264887,-1.72080672,-0.256140172,-0.0294633899,-0.561457634
97909.487795,-0.622676483,0.0935611675,-1.08249012,-0.343030602,-0.0178677198,-0.611853182
97909.497822,-0.647813482,0.325833581,-0.320562326,-0.400398016,0.0108297057,-0.631550431
97909.507850,-0.40219552,0.413810189,0.44134676,-0.426231474,0.0426488854,-0.615622878
97909.517878,-0.082884044,0.463131233,1.05281043,-0.475397438,0.0413601846,-0.565258503
97909.527905,0.32362807,0.365978654,1.52111826,-0.528548002,0.0190974884,-0.46964407
97909.537933,0.616830753,0.229951642,1.81064774,-0.554066122,-0.020172419,-0.370340109
97909.547960,0.621479236,0.235494955,1.70425949,-0.510846794,-0.0719192401,-0.318342417
97909.557988,0.522096304,0.26562684,1.46221892,-0.423199743,-0.094860509,-0.31147626
97909.568016,0.512953724,0.172081052,1.4169325,-0.31244126,-0.0578806512,-0.311772943
97909.578043,0.412853656,0.378415307,1.47964936,-0.140440479,0.0595908538,-0.345462203
97909.588071,0.166715653,0.901164485,1.43012925,0.116618216,0.210832849,-0.421920747
97909.598099,-0.132871315,1.45998619,1.04326168,0.410817623,0.312746704,-0.519934177
97909.608126,-0.41531632,1.80973618,0.646404638,0.64565146,0.318744391,-0.574929237
97909.618154,-0.615261896,1.72976394,0.376973949,0.788877547,0.230921865,-0.557647705
97909.628182,-0.769033531,1.34341616,0.206927179,0.802593887,0.102425665,-0.479343832
97909.638209,-0.812206829,0.896689312,0.249333657,0.705218911,0.00377046387,-0.375013947
97909.648237,-0.684107907,0.744386142,0.166427411,0.585763037,-0.0462200008,-0.290646076
97909.658265,-0.599397132,0.603508403,-0.00715513245,0.484888375,-0.0549687482,-0.238178089
97909.668292,-0.680271617,0.352587294,0.0282557881,0.3845599,-0.0544145443,-0.201632872
97909.678320,-0.588327675,0.15010829,-0.0728963094,0.29436478,-0.0680877492,-0.164799213
97909.688348,-0.381356402,0.262590358,-0.209679108,0.26453045,-0.0694693923,-0.152465582
97909.698375,-0.29552528,0.657553297,-0.243677823,0.335481852,-0.0490996763,-0.161867619
97909.708403,-0.0128461198,0.923469475,-0.288287365,0.430374533,-0.0077410494,-0.16456379
97909.718431,0.386959628,1.11683005,-0.28419162,0.514826834,0.0257676411,-0.167960927
97909.728458,0.37734702,1.28342609,-0.491326304,0.582606137,0.0157283228,-0.192098215
97909.738486,0.172488355,1.19854065,-0.651125821,0.651441693,-0.0234568957,-0.2185269
97909.748513,0.187931898,0.88293975,-0.600020488,0.69896549,-0.0559570491,-0.222391948
97909.758541,0.402431083,0.448378924,-0.536081392,0.712516487,-0.0682272986,-0.206484079
97909.768569,0.398111977,0.0665985883,-0.28336043,0.742933512,-0.0261112694,-0.19309184
97909.778596,0.316567447,-0.163419844,0.282612827,0.784076154,0.0774265751,-0.179763794
97909.788624,0.487850116,-0.444733078,0.812254541,0.791459501,0.199989781,-0.140336215
97909.798652,0.769362397,-0.737777392,0.919250103,0.743629396,0.288261056,-0.0736727715
97909.808679,0.929685134,-0.986774218,0.676533234,0.62852037,0.299521178,0.0259062834
97909.818707,0.76919537,-1.07177598,0.0789800132,0.481971949,0.218455076,0.159012407
97909.828735,0.373965086,-1.0653436,-0.637993952,0.32373172,0.0582733862,0.312422484
97909.838762,0.0652006083,-1.08886827,-1.15400286,0.1671682,-0.145429134,0.493934214
97909.848790,-0.0215333754,-1.00868561,-1.12215928,0.0176399723,-0.30033803,0.691211045
97909.858818,0.0678507849,-0.540726295,-0.199614225,-0.169071332,-0.348081321,0.848288536
97909.868845,0.370465882,0.117810862,0.982154596,-0.330328405,-0.286940187,0.9366256
97909.878873,0.970839348,0.592537475,1.78455994,-0.431351423,-0.153096899,0.99567771
97909.888901,1.46757065,0.853376094,2.13748491,-0.428778529,0.0174386054,0.992153287
97909.898928,1.47496748,1.19489689,2.06849554,-0.312830627,0.188466012,0.913002312
97909.908956,0.987346027,1.2898345,1.92134975,-0.161558807,0.304432571,0.759335756
97909.918984,0.369190017,1.08801852,2.00385677,0.0118774232,0.372409761,0.569874465
97909.929011,0.0374349783,0.826009437,2.6098803,0.146383837,0.408675075,0.38532865
97909.939039,0.0541804573,0.523922861,3.25567587,0.185036421,0.395470321,0.23972483
97909.949067,0.0692777992,0.216078015,3.51978448,0.125028744,0.336200088,0.144345045
97909.959094,-0.204547334,0.067399977,3.28989728,0.0970213413,0.259390533,0.0800001398
97909.969122,-0.662145081,0.0661910761,2.70262931,0.0650444999,0.150981486,0.0164872147
97909.979150,-1.12556171,-0.0701152638,1.91775553,0.0497715436,0.0238709375,-0.0352622643
97909.989177,-1.42695486,-0.336149515,1.5006711,0.057059817,-0.0681687072,-0.0478044227
97909.999205,-1.37650623,-0.595172719,1.37601947,0.0642354339,-0.1375238,-0.0279516224
97910.009233,-1.15435182,-0.698086163,1.16853875,0.04378023,-0.197335735,-0.017892329
97910.019260,-0.942802171,-0.731676371,1.1200135,-0.0198101979,-0.259807914,-0.00492992625
97910.029288,-0.719202601,-0.728592945,1.20223819,-0.0842592344,-0.3082982,0.0134096667
97910.039316,-0.472057467,-0.616923399,1.50639767,-0.142861828,-0.310166955,0.00884341076
97910.049343,-0.256601018,-0.395482761,1.68600312,-0.182090461,-0.303452313,-0.0243081506
97910.059371,-0.224252097,-0.260157578,1.51955642,-0.245915234,-0.318441927,-0.0663855672
97910.069399,-0.212677121,-0.383140143,1.58118549,-0.360915065,-0.337076336,-0.0774121135
97910.079426,0.0308755148,-0.49770099,1.54510354,-0.472005367,-0.361907631,-0.0661072657
97910.089454,0.288037646,-0.471699666,1.12420511,-0.538717806,-0.389381886,-0.060520485
97910.099482,0.397825087,-0.417816101,0.838250567,-0.561345875,-0.395323396,-0.0597758666
97910.109509,0.424904999,-0.318107845,0.546033461,-0.546749353,-0.365553498,-0.0502843559
97910.119537,0.513062993,-0.156833543,0.52794134,-0.581498325,-0.298880726,-0.0267167147
97910.129564,0.540961857,-0.0197823716,0.788766113,-0.678676009,-0.215330452,0.0179447643
97910.139592,0.430502819,0.0581126959,0.826685801,-0.805733562,-0.143934041,0.069146961
97910.149620,0.1455153,0.0565283448,1.13063017,-0.916517556,-0.0718944669,0.112779662
97910.159647,-0.0582337604,0.0620879699,1.3149422,-0.951498747,-0.000723886653,0.131980523
97910.169675,-0.218570782,0.0482409203,1.36028239,-0.941530228,0.0478071645,0.118068703
97910.179703,-0.557412166,0.110947588,1.17886433,-0.880463958,0.0547484271,0.0635798946
97910.189730,-0.703152215,0.0225627641,1.14375035,-0.801978767,0.0444214866,0.02661868
97910.199758,-0.545873412,-0.302879808,1.23166829,-0.76199913,0.0115168002,0.0186627507
97910.209786,-0.34447855,-0.477905024,1.0989748,-0.721436501,-0.0329212397,0.000106644817
97910.219813,-0.271386097,-0.474864341,0.812738525,-0.652304053,-0.0736401752,-0.0428738445
97910.229841,-0.328849239,-0.436454969,0.469452326,-0.548344851,-0.0976214036,-0.0968819559
97910.239869,-0.397391006,-0.47667877,0.241697463,-0.444444299,-0.0980216786,-0.144885436
97910.249896,-0.604732063,-0.425200804,0.112301268,-0.377454609,-0.0954695717,-0.200587049
97910.259924,-0.796057001,-0.401312271,0.0857674814,-0.35739702,-0.0955888778,-0.254547745
97910.269952,-0.656212477,-0.397340956,0.114188689,-0.37387827,-0.0918817595,-0.291854352
97910.279979,-0.181527145,-0.415043859,0.1785615,-0.373468131,-0.0800661147,-0.288531542
97910.290007,0.320491452,-0.492567463,-0.0892085618,-0.27675277,-0.0550220124,-0.280146569
97910.300035,0.552455165,-0.25681846,-0.686253833,0.0025326577,-0.0336024761,-0.315954894
97910.310062,0.443701835,0.0791202254,-1.30687229,0.381987303,-0.0387200043,-0.400876194
97910.320090,0.270302357,0.0639691988,-1.60941439,0.728686392,-0.0731826425,-0.471438497
97910.330118,0.262348549,-0.290353138,-1.28310972,0.894563794,-0.123166449,-0.483927935
97910.340145,0.454504969,-0.64644497,-0.522208934,0.862278283,-0.151860401,-0.444368541
97910.350173,0.773112617,-0.731133204,0.37598786,0.68231225,-0.127338544,-0.373203814
97910.360201,1.02216906,-0.600255758,1.18635732,0.45508495,-0.0512243435,-0.285260111
97910.370228,0.877032279,-0.351402358,1.56467274,0.244312257,0.0105263703,-0.201575607
97910.380256,0.55099112,-0.0489372686,1.48207337,0.104436912,0.0221177787,-0.123603582
97910.390284,0.266718361,0.304906601,1.06878483,0.0628027618,-0.0147442454,-0.0577497333
97910.400311,0.0824845873,0.749867716,0.477922048,0.100701675,-0.0738360658,-0.0290720202
97910.410339,0.102175705,1.08822588,0.190371765,0.187601686,-0.0911719128,-0.0192875639
97910.420367,0.421232668,1.22857412,0.218673146,0.248022959,-0.0597343594,0.00147497188
97910.430394,0.803992104,1.19471072,0.0210217452,0.259875864,-0.0185179468,0.0336507522
97910.440422,0.837921189,1.24730045,-0.159541743,0.252657652,0.0390084647,0.0508915223
97910.450450,0.507085562,1.37300889,-0.105803138,0.265813917,0.110150814,0.00565480348
97910.460477,0.108971137,1.61978848,-0.189925775,0.269794285,0.15247272,-0.0937831029
97910.470505,-0.0470748722,1.78823878,-0.400495694,0.265873581,0.143832624,-0.18839483
97910.480533,-0.187907531,1.97024793,-0.503133646,0.240245193,0.111605167,-0.254827112
97910.490560,-0.344011371,2.07692099,-0.316213483,0.223044634,0.086770393,-0.28181985
97910.500588,-0.447275091,2.08334386,-0.250949276,0.234066397,0.0723954514,-0.286097169
97910.510616,-0.577101677,2.03263454,-0.327512875,0.209091008,0.0598215982,-0.279378265
97910.520643,-0.657426967,1.7579639,-0.403916316,0.113179117,0.0428122543,-0.269384503
97910.530671,-0.65524217,1.48470591,-0.540992545,-0.0289766937,0.0443121493,-0.24515532
97910.540699,-0.652412792,1.19736182,-0.627438656,-0.212791532,0.0547898225,-0.231774792
97910.550727,-0.723963678,1.01079573,-0.925009398,-0.443333149,0.0561568253,-0.248961762
97910.560754,-0.64726257,0.940747942,-1.26792559,-0.675025761,0.0616599806,-0.282726407
97910.570782,-0.51150758,0.935634106,-1.59513978,-0.818077743,0.0855149776,-0.313071787
97910.580810,-0.437780848,1.04327549,-1.89203306,-0.820034325,0.119214885,-0.328702152
97910.590837,-0.173634894,0.991386607,-1.73550219,-0.744861305,0.162409231,-0.305606961
97910.600865,0.237966862,0.862583337,-1.46411569,-0.657880604,0.193241447,-0.23769632
97910.610893,0.416547688,0.764222477,-1.01542032,-0.548349857,0.240679011,-0.143011093
97910.620920,0.276640438,0.630418183,-0.602537439,-0.375613213,0.297108978,-0.0426030084
97910.630948,0.0438672901,0.445303242,-0.577458527,-0.150228545,0.302002788,0.04079175
97910.640976,-0.307089169,0.331404841,-1.23091951,0.119299598,0.217408836,0.0974664837
97910.651003,-0.605776859,0.204437262,-2.02224525,0.389298826,0.0808491185,0.187214211
97910.661031,-0.634724575,-0.0844195009,-2.58680338,0.620253205,-0.0426816046,0.352578133
97910.671059,-0.316599815,-0.349035264,-2.66762814,0.798877537,-0.0906483307,0.561503887
97910.681086,-0.0143339746,-0.400898758,-2.50901579,0.968721449,-0.0568424314,0.716027439
97910.691114,0.237410525,-0.408043077,-2.37908242,1.15676785,0.00720499456,0.766935885
97910.701142,0.0863848096,-0.261653771,-2.22609843,1.34061444,0.074617587,0.708593488
97910.711169,-0.234728629,-0.112235674,-1.94724524,1.49760664,0.124096192,0.594366789
97910.721197,-0.383551939,-0.0753509314,-1.48381642,1.55923545,0.12965022,0.469201148
97910.731225,-0.402859902,-0.184863267,-1.01379477,1.54060602,0.0875112861,0.384612232
97910.741252,-0.370495766,-0.278925626,-0.440951039,1.48179412,0.0419113077,0.347882718
97910.751280,-0.197294952,-0.381352894,0.249675603,1.33942819,0.00961648673,0.384558439
97910.761308,0.170569734,-0.664506988,0.703244715,1.1253804,-0.0232772809,0.49834758
97910.771335,0.41954402,-0.945035264,0.974517817,0.85433495,-0.0447333045,0.656012595
97910.781363,0.513697455,-1.11520793,1.25647832,0.526061475,-0.0619618297,0.804464877
97910.791391,0.33861375,-1.09212625,0.96343119,0.155645892,-0.108502962,0.896066964
97910.801418,0.0546021807,-0.972544544,0.780957485,-0.272233307,-0.136128724,0.925509274
97910.811446,-0.211428089,-0.76374127,0.930676922,-0.671200633,-0.105274677,0.885737896
97910.821474,-0.513027994,-0.329217962,0.757972331,-0.923497081,-0.0290576722,0.745618105
97910.831502,-0.721547849,0.142335428,0.513362779,-1.05416667,0.0811985284,0.537445426
97910.841529,-0.686043551,0.260816298,0.495191747,-1.05472028,0.193422809,0.333928823
97910.851557,-0.67252093,0.348907034,0.299511354,-0.928605556,0.251906604,0.157401994
97910.861585,-0.678948624,0.431595254,0.225984346,-0.681107342,0.258827627,0.0293545388
97910.871612,-0.579885389,0.401470896,0.125593296,-0.342421979,0.211671054,-0.0583758429
97910.881640,-0.600369666,0.40009442,0.0312672449,-0.00531876786,0.110339634,-0.112867586
97910.891668,-0.629560105,0.183405178,-0.0343576122,0.233699679,-0.0340252668,-0.117536642
97910.901695,-0.531085775,-0.295507635,0.32866263,0.323935807,-0.138853937,-0.0479727387
97910.911723,-0.23402028,-0.747594656,1.02723994,0.248862922,-0.158700883,0.0500984341
97910.921751,-0.0186146841,-1.04498412,1.4703993,0.113885388,-0.12001767,0.104642898
97910.931778,-0.230749314,-1.05161691,1.27858961,0.105590977,-0.0725172684,0.075798206
97910.941806,-0.998674134,-0.675427026,0.411457818,0.27998513,-0.0713047311,-0.0386442207
97910.951834,-1.7126202,-0.449303126,-0.143103234,0.472741812,-0.120748177,-0.155145526
97910.961861,-1.6646178,-0.564378937,-0.13503917,0.552877128,-0.186102942,-0.198825359
97910.971889,-0.994979298,-0.903463482,0.199309689,0.431260943,-0.217791095,-0.135728419
97910.981917,0.0613034685,-1.26159025,0.8336194,0.173893601,-0.188157573,-0.0246855281
97910.991944,0.731560563,-1.04683099,0.873600113,-0.0251390785,-0.108417213,0.00455331989
97911.001972,0.533940215,-0.4499598,-0.219825823,0.0141156502,-0.0610190667,-0.075358294
97911.012000,-0.155660079,0.128064508,-1.73777539,0.177326679,-0.0884126052,-0.251194835
97911.022028,-0.906195099,0.244345384,-2.51721897,0.258898497,-0.201670989,-0.430597365
97911.032055,-0.867980592,-0.148589264,-2.01829972,0.0921665132,-0.295272857,-0.479947597
97911.042083,0.307999489,-0.572849864,-0.474295674,-0.221297935,-0.291513532,-0.413506776
97911.052111,1.51222754,-0.539978728,0.78563366,-0.56114608,-0.192075342,-0.306542516
97911.062138,2.05015354,-0.204829074,1.80933783,-0.847611904,-0.0360284969,-0.21008867
97911.072166,2.07783153,0.141143752,2.40951789,-0.9904567,0.156716198,-0.160688624
97911.082194,1.46543583,0.357432578,2.47772925,-0.968121529,0.32038635,-0.18032518
97911.092221,0.647946899,0.463894107,1.90442434,-0.827617705,0.407846421,-0.237968773
97911.102249,0.0578708089,0.45180371,1.04617085,-0.622450173,0.401431382,-0.336181104
97911.112277,-0.752021971,0.205653688,-0.122763625,-0.480380386,0.267219245,-0.458865732
97911.122304,-1.73601584,-0.264577933,-0.843687205,-0.456152797,0.0864691883,-0.55984056
97911.132332,-2.08179648,-0.840399196,-0.838390268,-0.536858559,-0.0719345659,-0.609172404
97911.142360,-1.75887371,-1.04728005,-0.560070755,-0.707691312,-0.155388176,-0.613309383
97911.152388,-0.977309932,-0.961173986,-0.0213940857,-0.822292686,-0.153578281,-0.585540593
97911.162415,-0.537928335,-0.632250586,-0.0946235725,-0.76900363,-0.123327985,-0.549691498
97911.172443,-0.488384259,-0.167149003,0.053299044,-0.645430863,-0.100645043,-0.502877951
97911.182471,-0.256919436,0.11012955,0.236881003,-0.479415774,-0.132234648,-0.453707725
97911.192498,-0.169043986,0.457621493,0.184098676,-0.362834841,-0.225017056,-0.427133113
97911.202526,-0.250031321,0.5712223,0.512746693,-0.380682558,-0.329430282,-0.405847251
97911.212554,0.0310629911,0.445701485,1.08898357,-0.530586302,-0.405066192,-0.33683598
97911.222581,0.542634357,0.314592896,1.55573599,-0.740575492,-0.434278131,-0.230375558
97911.232609,0.976821272,0.413544049,1.8487837,-0.929827392,-0.412248999,-0.117102809
97911.242637,1.40541742,0.541089941,2.13998023,-1.05035639,-0.327147961,-0.015308802
97911.252664,1.88093445,0.572391745,2.36086871,-1.0800041,-0.202101618,0.0628342032
97911.262692,2.05603573,0.755575353,2.28543617,-1.03362668,-0.0759279728,0.0846185908
97911.272720,2.01946453,0.913927301,2.01443662,-0.936252534,0.0462948717,0.0812148079
97911.282748,1.75733671,1.07579778,1.67177878,-0.80901897,0.146338388,0.0506691486
97911.292775,0.950723246,1.5201823,0.949727659,-0.64346385,0.197169617,-0.0249502435
97911.302803,0.0870085675,1.95953233,0.31974458,-0.463666111,0.214951277,-0.109909341
97911.312831,-0.384374179,2.18030946,-0.0714098702,-0.25400874,0.218713522,-0.148019969
97911.322858,-0.739726918,2.31833993,-0.384787253,-0.064392738,0.192389235,-0.120383821
97911.332886,-1.04716578,2.22922693,-0.610743542,0.0696401671,0.118971474,-0.0199624076
97911.342914,-1.03452885,1.88837527,-0.666498162,0.115882494,0.0294152237,0.138422713
97911.352941,-0.804945679,1.56975239,-0.736344436,0.165195987,-0.0559425503,0.302723765
97911.362969,-0.778663821,1.45462276,-0.716484721,0.269313842,-0.0995430276,0.411528528
97911.372997,-0.750711254,1.28382269,-0.593880085,0.394919962,-0.10495057,0.461972266
97911.383025,-0.632201559,0.927557328,-0.438783047,0.470910341,-0.0996657982,0.463899076
97911.393052,-0.610810469,0.645761079,-0.3969003,0.505677164,-0.0989919156,0.403357267
97911.403080,-0.622706221,0.518379,-0.342566068,0.518696308,-0.0947891846,0.295522153
97911.413108,-0.387416505,0.521144008,-0.252278479,0.54546535,-0.0704931617,0.193221107
97911.423135,0.0435560505,0.544608105,-0.195848735,0.577538848,-0.0119736586,0.130783558
97911.433163,0.420024022,0.608170403,-0.234185772,0.614813805,0.0611458272,0.118762046
97911.443191,0.612013233,0.648711599,-0.182899822,0.595874429,0.129828751,0.155352548
97911.453218,0.70790087,0.545305951,-0.175596805,0.50594002,0.18415457,0.227946326
97911.463246,0.696617698,0.295965572,-0.0248322434,0.385420769,0.271446586,0.303871155
97911.473274,0.447250577,0.106254535,0.196659467,0.244588554,0.359101087,0.330045521
97911.483302,0.0163825777,-0.144307056,-0.0024807109,0.104663141,0.421505064,0.28733319
97911.493329,-0.333286089,-0.350427668,0.0330868616,-0.0747340471,0.474077731,0.202238292
97911.503357,-0.413862906,-0.497848692,-0.0583650952,-0.244521216,0.471942693,0.121522143
97911.513385,-0.388482637,-0.509375609,-0.736869921,-0.378026009,0.387521803,0.0562563241
97911.523412,-0.253508788,-0.386787633,-1.74975342,-0.444675356,0.225278035,0.0268390477
97911.533440,-0.0166600977,-0.109725645,-2.65719209,-0.555904627,0.0198982544,0.0581232011
97911.543468,0.372298358,0.0618211539,-3.03387027,-0.691743433,-0.143933028,0.183791906
97911.553495,0.762208142,0.31663127,-3.27031054,-0.750270665,-0.210370377,0.34782505
97911.563523,0.88786347,0.680458956,-3.67368091,-0.684806406,-0.184893772,0.483379185
97911.573551,0.566528552,0.855044904,-3.88973073,-0.514281273,-0.0873088986,0.528836668
97911.583579,-0.0522972465,0.94825028,-3.9553626,-0.253455073,0.0303623471,0.468246281
97911.593606,-0.357883756,0.813728412,-3.73574896,0.0295092706,0.124918409,0.354095221
97911.603634,-0.165877558,0.397960769,-3.29641061,0.317898989,0.172678202,0.282148838
97911.613662,0.0886927395,-0.0735549194,-2.60796833,0.613383651,0.187184975,0.282462537
97911.623689,0.368356269,-0.443631291,-1.68555304,0.881970406,0.19397071,0.359924078
97911.633717,0.520357826,-0.685847152,-0.973775474,1.11563957,0.15107438,0.481772482
97911.643745,0.456292071,-0.79924944,-0.494671523,1.33115113,0.0819576308,0.611246288
97911.653773,0.469681385,-0.91863862,0.153935009,1.45340347,-0.00993873738,0.716669679
97911.663800,0.598544131,-0.893192118,0.458257563,1.41565216,-0.148220718,0.78117913
97911.673828,0.71853515,-0.856470845,0.530752306,1.21814895,-0.3122392,0.824178815
97911.683856,0.773215858,-0.699140495,0.152959442,0.98447758,-0.448246568,0.804090321
97911.693883,0.644542205,-0.448077858,-0.0661100102,0.651699364,-0.522858739,0.714116216
97911.703911,0.51564015,-0.410604087,-0.0623527035,0.286241442,-0.522392154,0.586209655
97911.713939,0.440824088,-0.17898895,0.104829909,0.00203476893,-0.434495896,0.405979693
97911.723967,0.360105743,0.110166594,0.18859891,-0.210233554,-0.303992987,0.197713584
97911.733994,0.489315147,0.244170612,0.223536953,-0.347310722,-0.186329752,0.0262353085
97911.744022,0.65532941,0.304619747,0.286015913,-0.444630623,-0.103215955,-0.08637885
97911.754050,0.775089177,0.260510921,0.49742579,-0.515429139,-0.0545898266,-0.14738521
97911.764077,0.965175842,0.214886832,0.626115298,-0.517358065,-0.0318791904,-0.173302829
97911.774105,1.28327748,0.320297135,0.4936112,-0.410596222,-0.0118993567,-0.185929686
97911.784133,1.4844702,0.428157352,0.49283554,-0.234703213,0.0110059585,-0.189918831
97911.794160,1.45771985,0.345104683,0.413370373,-0.0194268469,0.0216977522,-0.18043904
97911.804188,1.42508073,0.147931348,0.349739905,0.183808297,0.0394261479,-0.159548938
97911.814216,1.45670424,-0.141797302,0.550713144,0.354505211,0.0922515467,-0.132293344
97911.824244,1.42208418,-0.484493609,0.777035928,0.472019047,0.141456634,-0.104072899
97911.834271,1.26100734,-0.67776716,0.712782359,0.536341608,0.164467156,-0.084025681
97911.844299,0.89558325,-0.768100634,0.651173167,0.576436043,0.161691338,-0.0710430443
97911.854327,0.632765258,-0.772029717,0.78365973,0.575137198,0.162397876,-0.0726286843
97911.864355,0.525326335,-0.651792395,1.031739,0.558625102,0.162362188,-0.0895184577
97911.874382,0.491255175,-0.384768256,1.28823831,0.505462527,0.163585648,-0.125923872
97911.884410,0.569911619,-0.150725691,1.75205702,0.422623813,0.187324524,-0.154227942
97911.894438,0.838003607,0.051569188,2.35810685,0.353162169,0.232302651,-0.156955555
97911.904465,1.0050056,0.228491726,2.71923499,0.326165706,0.273456752,-0.127030671
97911.914493,0.954017758,0.270331455,2.94543561,0.334017247,0.302741408,-0.0789100155
97911.924521,0.663629256,0.228951836,2.93669117,0.363761008,0.296629995,-0.0624114722
97911.934549,0.317396994,0.130453367,2.64920109,0.401651412,0.240578696,-0.0629518256
97911.944576,0.0232947865,-0.0820708919,2.2055969,0.441992164,0.157441467,-0.0694406182
97911.954604,-0.300277955,-0.362152264,1.94493755,0.465684712,0.0698716715,-0.0866233334
97911.964632,-0.55114284,-0.711377826,1.86814365,0.485926062,0.0179189928,-0.12647967
97911.974659,-0.75318495,-0.858991303,1.9752643,0.488796681,0.0075361263,-0.229820177
97911.984687,-0.949842591,-0.845275863,2.02532626,0.451067954,0.0182915702,-0.36709255
97911.994715,-0.957257397,-0.811725402,2.05176302,0.338715047,0.0253303051,-0.467270553
97912.004743,-0.684044121,-0.636249154,2.06984286,0.154205665,-0.0074465517,-0.476533294
97912.014770,-0.322241401,-0.394634145,1.95409935,-0.0529818758,-0.103714764,-0.427351594
97912.024798,0.0909356504,0.0497444202,1.94853938,-0.235491499,-0.211516067,-0.37503463
97912.034826,0.647575289,0.530677085,2.17974467,-0.41582799,-0.295171559,-0.341109395
97912.044853,1.17172206,0.716615069,2.34257669,-0.590686083,-0.336408734,-0.316444814
97912.054881,1.40857384,0.753544724,2.245276,-0.767229676,-0.322926223,-0.326062799
97912.064909,1.2822436,0.909428747,1.88968387,-0.894724786,-0.268742859,-0.380289018
97912.074937,1.04395829,1.02445082,1.0935744,-0.932172835,-0.192606017,-0.45955801
97912.084964,0.888245601,1.12985889,0.38869712,-0.886386395,-0.115094453,-0.550025642
97912.094992,0.882032937,1.2915774,-0.151105923,-0.759826362,-0.0181316845,-0.626275361
97912.105020,1.0371264,1.38011843,-0.325828868,-0.623950005,0.0853214636,-0.657141685
97912.115047,1.21191831,1.29053461,-0.452480733,-0.487141043,0.153520226,-0.619062245
97912.125075,1.39555156,1.23362497,-0.632614597,-0.298037976,0.207319006,-0.522629142
97912.135104,1.56418189,1.27580583,-0.637487172,-0.0986716077,0.237750947,-0.40884161
97912.145132,1.75739648,1.28963547,-0.738582571,0.0713789538,0.230599299,-0.273793459
97912.155159,1.99561852,1.18142001,-0.736245652,0.242408484,0.207137644,-0.110190973
97912.165187,2.21268277,1.18655635,-0.765294052,0.360776931,0.178497478,0.0368445441
97912.175215,2.1804439,1.23440955,-0.972054057,0.427089393,0.146090806,0.120337039
97912.185243,1.84701786,1.21105797,-0.960189432,0.427595109,0.125322953,0.143024504
97912.195270,1.62496749,0.982142467,-0.725622551,0.381052107,0.130237281,0.154350668
97912.205298,1.65269677,0.752903868,-0.338688349,0.268368721,0.161224753,0.163859755
97912.215326,1.81884317,0.453595781,-0.0495662872,0.12712957,0.185088277,0.188005298
97912.225353,1.89663062,0.189395541,-0.14089491,-0.0109284343,0.168832079,0.221866593
97912.235381,1.80702999,0.0927372108,-0.622853082,-0.120675974,0.0788814127,0.265487552
97912.245409,1.47233421,0.0838695114,-1.34550802,-0.184629917,-0.0613513291,0.310762107
97912.255437,1.19339796,0.126913968,-1.79836927,-0.143067032,-0.169551045,0.357654512
97912.265464,1.16956883,0.3826433,-2.1033348,0.0182393063,-0.2246878,0.367378235
97912.275492,1.21215512,0.622442893,-2.22732241,0.210862011,-0.232147306,0.345876396
97912.285520,1.43462744,0.579881334,-1.91326114,0.383885443,-0.190647274,0.308590293
97912.295548,1.66304471,0.531603881,-1.59804193,0.534828663,-0.123853855,0.23276265
97912.305575,1.77609051,0.458607034,-1.19055652,0.637761414,-0.0336139724,0.132123917
97912.315603,1.90358292,0.158772329,-0.754530666,0.67736876,0.0829674974,0.0262065474
97912.325631,1.82468532,-0.103764152,-0.103712303,0.643539965,0.210011467,-0.0740505457
97912.335659,1.6186076,-0.314860972,0.4186866,0.547261894,0.330510974,-0.155178696
97912.345686,1.44972754,-0.512186575,0.854860341,0.380098432,0.421806812,-0.197034001
97912.355714,1.21433816,-0.695369452,0.940437268,0.165759519,0.451504767,-0.185427666
97912.365742,0.841872849,-0.820297854,0.722703449,-0.0675797313,0.398451686,-0.116133288
97912.375769,0.447149345,-0.863294261,0.441149776,-0.269459844,0.286268681,-0.00996876881
97912.385797,0.0997642051,-0.708461281,0.0735106419,-0.38770926,0.151903957,0.08656203
97912.395825,-0.161913203,-0.40174964,-0.255339035,-0.406555295,0.0382595807,0.147503167
97912.405853,-0.271039859,-0.142341784,-0.458770773,-0.361525506,-0.0263175499,0.174924403
97912.415880,-0.268241077,0.136368381,-0.499721207,-0.287723184,-0.0431311466,0.159804314
97912.425908,-0.220183952,0.358607833,-0.377256273,-0.245263323,-0.0248610657,0.107761353
97912.435936,-0.0455936481,0.37315629,-0.250248434,-0.219385132,0.0082880985,0.0450652167
97912.445964,0.139061466,0.365532006,-0.202173847,-0.216963246,0.0421155728,-0.0191483907
97912.455991,0.161274192,0.308214228,-0.0386421576,-0.247796789,0.0608977824,-0.082621105
97912.466019,0.145296497,0.297132569,-0.0333487274,-0.255317301,0.0694348067,-0.130567327
97912.476047,0.192138464,0.316517873,0.0869458775,-0.215041772,0.0930221602,-0.146831259
97912.486075,0.294842486,0.267489784,0.289946823,-0.159160942,0.118884645,-0.117893882
97912.496102,0.395850791,0.199993251,0.440848163,-0.116637982,0.144942626,-0.0489893742
97912.506130,0.49584517,0.0429596737,0.575417377,-0.0840126649,0.157291174,0.0397119969
97912.516158,0.429908397,-0.0366839545,0.425234999,-0.0472240187,0.138059944,0.111271136
97912.526186,0.131485669,-0.0978416395,0.22646833,-0.0298783202,0.100253709,0.145008847
97912.536213,-0.128073806,-0.185485107,0.209099262,-0.0267722756,0.0847112313,0.149177492
97912.546241,-0.238770105,-0.231803371,0.18214988,-0.044959534,0.0833426341,0.136710435
97912.556269,-0.305801614,-0.226600377,0.0113537532,-0.0931718051,0.0758216009,0.122449487
97912.566296,-0.46328573,-0.188138672,-0.221149181,-0.137803987,0.0662853494,0.0898998007
97912.576324,-0.698268973,0.0130262438,-0.253490777,-0.159274921,0.0599528924,0.0435669236
97912.586352,-0.69460424,0.202492703,-0.175119836,-0.141604051,0.0522465035,0.0112068523
97912.596380,-0.510085584,0.268449587,-0.141740129,-0.110768646,0.0292900521,0.0018018987
97912.606407,-0.278728916,0.299924209,0.0412117158,-0.077722013,0.00962473918,0.00985103659
97912.616435,-0.0352978156,0.241150753,0.290541281,-0.0403488018,0.00178785506,0.0278904922
97912.626463,0.157703239,0.163120368,0.44101066,-0.0280830823,0.00392237864,0.0399346352
97912.636491,0.339057804,0.0717437783,0.49629474,-0.0235847384,0.0301968586,0.0453155562
97912.646518,0.481499249,-0.0164988975,0.55643912,-0.0348773375,0.0757172033,0.0430726409
97912.656546,0.449211429,-0.0582663293,0.517539188,-0.0764897689,0.10855478,0.0360991508
97912.666574,0.350517538,-0.180975923,0.401227516,-0.163931727,0.117630832,0.0337246768
97912.676602,0.253331988,-0.25306846,0.299490312,-0.263792008,0.103707559,0.0356014073
97912.686629,0.16706843,-0.190724415,0.267391877,-0.323163748,0.0952485576,0.0264894031
97912.696657,0.118619146,-0.00382178678,0.296308174,-0.331309557,0.0989535525,0.000153135508
97912.706685,0.100763573,0.145825169,0.240863935,-0.326621592,0.0956517607,-0.0212371089
97912.716713,0.0556941407,0.136288402,0.230963303,-0.323332042,0.0892836154,-0.0234549865
97912.726740,-0.0271053577,0.156029643,0.257496505,-0.321796209,0.0786602646,-0.0207100697
97912.736768,-0.109000272,0.248793778,0.118789461,-0.30943194,0.0597901717,-0.0424031131
97912.746796,-0.172972667,0.329630635,-0.0215320329,-0.287229955,0.0379402675,-0.0754803717
97912.756824,-0.140929068,0.35512642,-0.0836433288,-0.257468611,0.0201048106,-0.0974999219
97912.766851,0.0343689921,0.359513257,-0.134214994,-0.209643811,0.00631203316,-0.104656629
97912.776879,0.150449413,0.336090552,-0.0910503902,-0.162550345,0.014168092,-0.103794836
97912.786907,0.213419902,0.254811029,0.0387637382,-0.121549383,0.0320062116,-0.0994365737
97912.796935,0.34567503,0.166929186,0.10434651,-0.100961283,0.0455774143,-0.08097101
97912.806962,0.504711015,0.0946837783,0.158284436,-0.0895656198,0.0577323474,-0.0462234169
97912.816990,0.495438562,0.0539230576,0.209398537,-0.0745429918,0.0731374025,-0.00898789894
97912.827018,0.372741645,0.0613808994,0.181685185,-0.0620378517,0.0840257332,0.0188514553
97912.837046,0.241111078,0.113011097,0.127052847,-0.0536518246,0.0880660191,0.0393530019
97912.847073,0.12655604,0.130197319,-0.0132826754,-0.0414643995,0.0939782336,0.0553812385
97912.857101,-0.0412860962,0.142689757,-0.0732762486,-0.045355279,0.100525878,0.0622953363
97912.867129,-0.128569426,0.145100545,-0.166705058,-0.0613017529,0.105263114,0.0636887029
97912.877157,-0.1311247,0.130454764,-0.136257313,-0.0805651993,0.118341096,0.0633065403
97912.887184,-0.133038351,0.0947284577,-0.0196399355,-0.104792774,0.125201136,0.0570595637
