t,ax,ay,az,gx,gy,gz
96828.659756,-0.265865477,-0.13996662,0.00992082522,-0.0287241852,0.00136506277,0.0136947965
96828.669785,-0.207963597,-0.134260005,-0.0507975551,-0.0325282449,0.00365032127,0.0216552511
96828.679813,-0.170529792,-0.132865738,-0.0132285797,-0.0404263818,0.00469907407,0.0314575497
96828.689841,-0.154859793,-0.127718621,-0.0144379555,-0.0424067089,-0.00314233721,0.0382328991
96828.699870,-0.124588262,-0.0836041694,-0.0855093875,-0.0385850752,-0.0101879967,0.0333369438
96828.709898,-0.183722598,0.00272854467,-0.128280023,-0.0372857163,-0.0176155522,0.0210565727
96828.719927,-0.18198538,-0.00116272714,-0.128420893,-0.0412820587,-0.0189628463,0.00370581199
96828.729955,-0.158022558,-0.0299898489,-0.122720636,-0.0364942262,-0.0108857445,-0.00205806752
96828.739984,-0.0779718152,-0.0265730262,-0.094548434,-0.0234295549,-0.0029279528,-0.0133629191
96828.750012,-0.0317079488,0.00807238992,-0.0908694533,-0.0116434693,0.00453848566,-0.025387359
96828.760041,-0.053091472,0.0087509833,-0.0651686103,-0.00604870075,0.00613345286,-0.0349289302
96828.770069,-0.0877931484,-0.0163804257,-0.0473816092,-0.0025730091,0.00282767077,-0.0234720122
96828.780097,-0.0313701043,-0.0734292507,-0.0488674638,0.00411072608,0.00201727088,-0.0337259818
96828.790126,-0.132428628,-0.101761319,-0.0696425408,0.0077957418,0.0050524756,-0.0357979212
96828.800154,-0.132875696,-0.100928741,-0.0696121457,0.0104146945,0.00766450434,-0.0396445926
96828.810183,-0.133386422,-0.099712314,-0.069566553,0.0162704541,0.0061387791,-0.0457608077
96828.820211,-0.19529836,-0.0855982658,-0.0937394557,0.0151596489,-0.00160223118,-0.0499102782
96828.830240,-0.236705616,-0.103424357,-0.133196437,0.00634298755,-0.0114641833,-0.0470071669
96828.840268,-0.233628035,-0.109249081,-0.138396344,0.010014155,-0.0194038648,-0.0420797851
96828.850297,-0.208837713,-0.0948411278,-0.144626762,0.00906766767,-0.0234145868,-0.0354650255
96828.860325,-0.169984434,-0.115725255,-0.0814411152,0.00081799379,-0.0239181902,-0.0263980265
96828.870353,-0.136940461,-0.122077473,-0.0407209823,-0.000824644038,-0.0215391881,-0.0169608511
96828.880382,-0.108972304,-0.119865679,-0.0464077957,-0.00599836696,-0.0161777112,-0.0116262726
96828.890410,-0.103203684,-0.11962186,-0.0254702216,-0.0056492267,-0.0103006485,-0.00256699713
96828.900439,-0.136899782,-0.137562737,-0.0233869856,-0.00579170555,-0.00705292368,0.00324748207
96828.910467,-0.189303393,-0.132429831,-0.0588814928,-0.0130669288,-0.00542013918,0.0151550079
96828.920496,-0.237236563,-0.109338038,-0.140943105,-0.0184971141,-0.00897545939,0.0275682684
96828.930524,-0.272321119,-0.0665037988,-0.223473505,-0.0277982047,-0.0221711557,0.0382209111
96828.940553,-0.321397924,-0.0395840085,-0.228814281,-0.0316805625,-0.0283265199,0.0492498603
96828.950581,-0.29582416,0.00961877911,-0.140793468,-0.03204994,-0.0282863072,0.0593131472
96828.960609,-0.200921624,-0.00821947725,-0.109163235,-0.0202010041,-0.0308008614,0.0712504972
96828.970638,-0.138269299,-0.0420553671,-0.249559548,-0.00387369746,-0.0352219764,0.0726742286
96828.980666,-0.200969427,-0.00396474242,-0.345565514,0.0257896567,-0.0329524326,0.0612061236
96828.990695,-0.287574072,0.0150056963,-0.438443705,0.0621021232,-0.0300700936,0.0409221564
96829.000723,-0.370503353,0.0189541051,-0.554841887,0.0903366869,-0.0362148035,0.024473409
96829.010752,-0.413112514,-0.00950454863,-0.723196466,0.123529798,-0.0499732244,0.0109575995
96829.020780,-0.411648981,-0.0684173774,-0.787297474,0.155930339,-0.0516528833,-0.00855245178
96829.030808,-0.368999012,-0.0446822815,-0.692817694,0.199883952,-0.0397112678,-0.0355989832
96829.040837,-0.295843212,-0.0394169814,-0.568012334,0.234321295,-0.0178272735,-0.0652487587
96829.050865,-0.197676523,-0.0962101511,-0.382274074,0.25291334,0.00568577542,-0.0859234046
96829.060894,-0.129944501,-0.107408001,-0.296805283,0.268513097,0.0220309262,-0.0967520784
96829.070922,-0.126739403,-0.14625613,-0.302971989,0.263399019,0.0199874834,-0.086865903
96829.080951,-0.161241922,-0.239906218,-0.331825743,0.25229977,0.0185970467,-0.0697244566
96829.090979,-0.202628885,-0.267915027,-0.379025301,0.239206164,0.0251878285,-0.0590072211
96829.101008,-0.25787161,-0.241106296,-0.30274461,0.188357099,0.0338827808,-0.056246319
96829.111036,-0.393718078,-0.264558794,-0.188735953,0.143002658,0.030871014,-0.0534657102
96829.121064,-0.464740447,-0.2937441,-0.217127935,0.0981313205,0.0293538113,-0.057936364
96829.131093,-0.547881963,-0.246986623,-0.263563523,0.045461989,0.0265758679,-0.0769768964
96829.141121,-0.691355382,-0.175715942,-0.286125483,0.0187797779,0.0207794969,-0.104204522
96829.151150,-0.92486479,-0.0624385861,-0.448758762,0.0173983956,0.0115742813,-0.146820949
96829.161178,-1.18037589,0.0776641596,-0.545708147,0.0076546888,0.00987758102,-0.186904715
96829.171207,-1.30221371,0.0972230383,-0.447689672,0.0133445328,0.00451983359,-0.225586341
96829.181235,-1.30520164,0.105316365,-0.514121754,-0.00498813622,-0.0127699404,-0.250349478
96829.191263,-1.26177955,0.139055754,-0.427621282,0.00180239186,-0.0468932885,-0.263125465
96829.201292,-1.12960081,0.156818726,-0.449882213,0.012671818,-0.0854308318,-0.267471747
96829.211320,-0.934426106,0.215123487,-0.421554529,0.0136390785,-0.111503177,-0.262272732
96829.221349,-0.747880695,0.258015813,-0.266642784,0.0120323925,-0.121946232,-0.238064842
96829.231377,-0.545275507,0.206237951,-0.107114486,-0.000438125437,-0.114227326,-0.201175005
96829.241406,-0.418801227,0.150557492,0.0417381052,-0.0436833324,-0.102226057,-0.161344768
96829.251434,-0.384695763,0.087121879,0.138575847,-0.101168201,-0.0966946717,-0.116859325
96829.261462,-0.418117739,0.0804977025,0.0177475733,-0.14555137,-0.117393025,-0.0848531957
96829.271491,-0.458751837,0.10600242,-0.0809092003,-0.19583957,-0.142596373,-0.0617140542
96829.281519,-0.501582934,0.122132704,-0.002074733,-0.222262667,-0.150447109,-0.0431169357
96829.291548,-0.478683559,0.123671859,0.0121536988,-0.240557508,-0.129172185,-0.0196435649
96829.301576,-0.412904607,0.110572888,0.071064153,-0.229721115,-0.0964456658,-0.00588594114
96829.311604,-0.474004534,0.141641597,0.0282450019,-0.199732051,-0.0605590354,-0.00563959887
96829.321633,-0.636379052,0.217548449,-0.0204801583,-0.160212339,-0.0316855732,-0.0206188142
96829.331661,-0.87306972,0.272998972,-0.0665644486,-0.128664271,-0.0203761953,-0.0438255977
96829.341690,-1.03382603,0.327784419,-0.147125593,-0.0902441824,-0.0203967012,-0.0648203652
96829.351718,-1.09934574,0.304643307,-0.227133196,-0.0573437521,-0.0205319907,-0.0725451272
96829.361747,-1.0531965,0.218497128,-0.199595201,-0.0188381718,-0.0255523148,-0.0634962406
96829.371775,-0.999945165,0.143481489,-0.261141264,0.0153783886,-0.0531035151,-0.0335348781
96829.381803,-0.946660515,0.0268588504,-0.453249644,0.0561244851,-0.0969237025,0.00591239503
96829.391832,-0.948666302,-0.0300472416,-0.615186757,0.116211525,-0.133150944,0.0331283052
96829.401860,-1.01236976,0.0812363007,-0.626882456,0.19331403,-0.134570935,0.0454677928
96829.411889,-1.11807879,0.194026594,-0.492944526,0.27351804,-0.116985829,0.0542897795
96829.421917,-1.12598233,0.246861638,-0.320823872,0.359961852,-0.0969106566,0.0742309977
96829.431946,-1.05483776,0.212721376,-0.202635299,0.429894879,-0.0744074743,0.110418028
96829.441974,-0.910809595,0.168529713,-0.0497372324,0.510897323,-0.0589630018,0.149003251
96829.452002,-0.89779485,0.0665905385,-0.00126809279,0.567152604,-0.0574652414,0.184658705
96829.462031,-1.00110529,-0.0691538476,-0.0029053386,0.630504175,-0.0711464371,0.205893962
96829.472059,-1.14035828,-0.109167157,-0.110445091,0.6280943,-0.105478839,0.20215088
96829.482088,-1.18281306,-0.227680741,-0.16459403,0.516817256,-0.185992845,0.194600298
96829.492116,-1.14234405,-0.501582402,-0.321044237,0.387621715,-0.27271443,0.195415749
96829.502144,-1.01932667,-0.685860161,-0.126946729,0.239677011,-0.308465772,0.200504794
96829.512173,-0.75115219,-0.679846161,0.331631736,0.0837212196,-0.286932522,0.211170747
96829.522201,-0.497914365,-0.469098913,0.649539164,-0.0703865895,-0.226962396,0.21821241
96829.532230,-0.320987444,-0.217590359,0.824987501,-0.228984208,-0.139500179,0.230619012
96829.542258,-0.261754882,-0.039084425,1.08272717,-0.38170372,-0.0678339984,0.27834232
96829.552286,-0.289348406,-0.00176314072,1.26807789,-0.5262561,-0.0486610952,0.350093468
96829.562315,-0.305198594,-0.0175495437,1.34219059,-0.686855868,-0.0808102499,0.421384944
96829.572343,-0.169307484,-0.107788342,1.3057059,-0.817332403,-0.128983357,0.488561584
96829.582372,0.173977253,-0.306195092,1.09862616,-0.896748916,-0.170870894,0.545763924
96829.592400,0.42336275,-0.411129795,0.79065853,-0.914639787,-0.217811772,0.564791634
96829.602429,0.196289002,-0.441021514,0.269452051,-0.847243444,-0.219742024,0.510009362
96829.612457,-0.431617491,-0.346877797,-0.0934775899,-0.741170005,-0.166904383,0.376918956
96829.622485,-1.2179277,-0.174262711,-0.115451521,-0.673411445,-0.0804472576,0.205379709
96829.632514,-1.82991072,-0.0258144629,-0.0885161681,-0.54059054,0.0143588817,0.0458992262
96829.642542,-2.11425797,-0.031852026,-0.345163363,-0.350949273,0.095245472,-0.0895869668
96829.652571,-2.12660906,-0.101090032,-0.403091821,-0.13894646,0.153866446,-0.203417645
96829.662599,-1.95801147,-0.16645043,-0.395171549,0.0817427626,0.197420589,-0.276437269
96829.672627,-1.64980126,-0.38209367,-0.343617887,0.297325387,0.218799374,-0.288130955
96829.682656,-1.39934006,-0.508057881,-0.421179266,0.432040318,0.167973212,-0.250777201
96829.692684,-1.24737021,-0.807846372,-0.648645375,0.481521859,0.0393206914,-0.214888425
96829.702713,-1.29458,-0.823788257,-0.92573973,0.58053021,-0.102770143,-0.231811748
96829.712741,-1.46166953,-0.496961683,-0.917002297,0.657433494,-0.206278422,-0.280102865
96829.722769,-1.50737797,-0.306312745,-0.488786821,0.709212824,-0.289997005,-0.309945719
96829.732798,-1.39492137,-0.405160621,-0.0297302172,0.64143829,-0.34106844,-0.295859979
96829.742826,-0.967153779,-0.708506731,0.682310968,0.460824295,-0.347428613,-0.230212779
96829.752855,-0.232827186,-1.04741698,1.36671654,0.187346964,-0.304072076,-0.137846367
96829.762883,0.449248412,-1.09289534,1.98840526,-0.0740955705,-0.251332724,-0.0344507407
96829.772911,1.01309445,-1.03713904,1.95381267,-0.307066248,-0.228185051,0.0685006742
96829.782940,1.30247794,-1.0160199,1.65715495,-0.525886194,-0.23089827,0.14398904
96829.792968,1.24750307,-0.810138502,1.4002757,-0.735739009,-0.260827952,0.158440157
96829.802997,0.949899448,-0.509274856,1.04165632,-0.895452515,-0.293931299,0.0964771796
96829.813025,0.572414261,-0.143325392,0.662427287,-0.962744192,-0.317225182,-0.0544633355
96829.823053,0.153315135,0.386259952,-0.0559355025,-0.93867828,-0.351304853,-0.267130331
96829.833082,-0.503479671,0.83483491,-0.900982306,-0.880987541,-0.338087046,-0.491089688
96829.843110,-1.06451971,0.974372048,-0.997400945,-0.807015316,-0.251053357,-0.637641297
96829.853139,-0.86953592,0.580928611,-0.735589499,-0.784879939,-0.106893779,-0.671284483
96829.863167,-0.233770896,0.113831689,-0.291028453,-0.881766275,0.0893670757,-0.630407618
96829.873195,0.168004682,-0.222923574,0.587016949,-0.994954065,0.270900405,-0.526574181
96829.883224,0.520317871,-0.475058187,0.725650343,-1.00735964,0.351386434,-0.367240952
96829.893252,0.836549839,-0.518528057,0.138931236,-0.945059733,0.335642374,-0.180008725
96829.903281,1.01668071,-0.440296231,-0.235381385,-0.853395061,0.260033107,0.00114773384
96829.913309,0.938080561,-0.272548897,-0.363118707,-0.72924091,0.140061415,0.133172347
96829.923337,0.530436237,-0.0803249285,-0.695746733,-0.50638862,-0.0259539198,0.205482497
96829.933366,0.0132220432,0.149199574,-1.22325202,-0.291308866,-0.166075342,0.194199218
96829.943394,-0.476064864,0.404076253,-1.01360097,-0.0466218637,-0.263500684,0.115428238
96829.953423,-0.57296325,0.678793796,-1.18258099,0.28112857,-0.325568312,0.0366394136
96829.963451,-0.308012337,0.537641842,-1.48179891,0.537550255,-0.303171151,-0.00659114605
96829.973479,0.210248298,0.203719684,-0.916040174,0.76177673,-0.210014292,-0.0209269423
96829.983508,0.571383895,-0.0937994002,-0.59515753,0.94230096,-0.0951569612,-0.0388484161
96829.993536,0.494827675,-0.363812054,-0.291967195,1.03603731,0.0202319518,-0.0908628862
96830.003565,0.199417326,-0.415716282,0.20271368,1.05812631,0.132602698,-0.156991304
96830.013593,-0.139639199,-0.34447154,0.887360662,0.966682418,0.24302376,-0.247003199
96830.023621,-0.544428425,-0.230297098,1.70203279,0.864851936,0.307754016,-0.312878923
96830.033650,-0.503577725,-0.263723055,1.81078893,0.747362061,0.328469402,-0.331560181
96830.043678,-0.10403977,-0.226943184,1.80039964,0.627164288,0.318646884,-0.2806765
96830.053707,0.458667617,-0.28252391,1.87176508,0.515158935,0.282963193,-0.167099596
96830.063735,0.923876314,-0.421634128,1.94749749,0.379765405,0.209832779,-0.00241158081
96830.073763,1.11788022,-0.611260336,1.94943986,0.200732543,0.103311657,0.171191632
96830.083792,0.883105108,-0.733463112,2.10529853,-0.0297864256,0.0145852509,0.286812766
96830.093820,0.513086239,-0.768232958,2.47898513,-0.226498113,-0.0547016795,0.34898208
96830.103848,0.487956401,-0.899670012,2.30969239,-0.387002305,-0.10667833,0.36263664
96830.113877,0.395951414,-0.737402571,1.92977537,-0.647512213,-0.0656752373,0.246684997
96830.123905,-0.588921355,0.114724838,2.59114085,-0.694594459,0.0163727634,0.101032196
96830.133934,-0.659912707,0.332350521,1.63242441,-0.677502827,0.0743809406,-0.0153069321
96830.143962,-0.323712521,0.627550881,0.835381469,-0.666223005,0.11114215,-0.053523292
96830.153990,-0.00611262575,0.785351406,0.561656882,-0.589980737,0.103574513,-0.0231597956
96830.164018,0.16736916,0.776016226,-0.0861704818,-0.485150711,0.0524466139,0.0640384916
96830.174047,0.226366197,0.783590022,-0.501959022,-0.345114247,-0.0198339756,0.174529313
96830.184075,0.14021673,0.6661435,-0.671337684,-0.240174756,-0.0519266661,0.231790214
96830.194104,-0.36725911,0.829698935,-0.0815749707,-0.126034335,-0.0218148354,0.184963046
96830.204132,-1.02915613,1.02810064,0.209582397,0.056763961,0.0310212177,0.0697408457
96830.214161,-1.145486,1.08162005,-0.145312991,0.219806685,0.0874924798,-0.0500353511
96830.224189,-0.891762292,1.00785434,-0.184677033,0.315377667,0.115211456,-0.120816843
96830.234217,-0.454524867,0.671357508,-0.200867121,0.355530693,0.0975738753,-0.112093129
96830.244246,-0.144632623,0.410962213,-0.234490573,0.414085611,0.045412938,-0.0852663081
96830.254274,-0.273746531,0.671734306,-0.449513965,0.471570208,-0.00896614709,-0.0782582026
96830.264302,-0.476564375,0.838001484,-0.396608304,0.507172926,-0.0367490436,-0.0642766069
96830.274331,-0.46682266,0.836319888,-0.257745777,0.551701768,-0.0158504193,-0.0446523029
96830.284359,-0.510103364,0.879793484,-0.0730818676,0.648258134,0.0460459691,0.0189642225
96830.294388,-0.231096672,0.545880313,-0.211849118,0.745234235,0.088301285,0.142980709
96830.304416,0.0493807865,0.0698635506,-0.35072392,0.772718056,0.103006459,0.260471388
96830.314443,-0.0913891818,-0.194738439,-0.0171372776,0.765034064,0.0854279984,0.337808265
96830.324473,-0.268543702,-0.320997761,0.122955668,0.787844523,0.0240474612,0.372409119
96830.334501,-0.287698593,-0.387416509,-0.150923817,0.776642486,-0.070335501,0.372481539
96830.344530,-0.282409291,-0.412760647,-0.280441008,0.694805129,-0.141729781,0.32516916
96830.354558,-0.174732687,-0.429227871,-0.173944042,0.612581118,-0.177769804,0.315805479
96830.364586,0.347919569,-0.525766264,-0.322940426,0.462202265,-0.19873687,0.38788475
96830.374615,0.808491474,-0.6011408,-0.221506588,0.256500228,-0.208277115,0.536172523
96830.384643,0.984543622,-0.632921109,-0.00101265672,-0.0020769839,-0.214837277,0.70467843
96830.394671,0.729141677,-0.373955773,0.355337022,-0.230769292,-0.212394902,0.834383978
96830.404700,0.61239154,-0.403594175,-0.0407607297,-0.233637498,-0.252448046,0.959890499
96830.414727,0.850611609,-0.548592648,-1.17483666,-0.287677036,-0.273307526,1.00563635
96830.424757,0.381019583,-0.425013907,-0.75565029,-0.371738122,-0.230666571,0.937475457
96830.434785,-0.540420432,-0.167864023,-0.271755013,-0.207932399,-0.165452951,0.82032217
96830.444813,-0.588871597,0.115592196,-0.820559692,-0.206146494,-0.0518361192,0.654095902
96830.454842,-0.900311217,0.376321253,0.362565804,-0.0948567251,0.0720251043,0.43223302
96830.464870,-1.04979385,0.547066746,0.0205182071,-0.127333985,0.164582482,0.241497963
96830.474898,-0.981665704,0.668428031,1.13317433,-0.003735068,0.237953893,0.0787577842
96830.484927,-0.775429357,0.402847222,1.05961108,-0.0513153719,0.295055545,-0.0561547588
96830.494955,-0.438167899,0.355184248,1.56040138,0.103179663,0.298420972,-0.096885414
96830.504983,0.109248541,0.0697852977,1.81981219,-0.0730457017,0.360004163,-0.163678826
96830.515011,-0.202160829,0.182366479,3.08447791,0.149757816,0.349121964,-0.160282762
96830.525040,0.130143153,-0.157279098,1.29423583,0.374853774,0.265062488,-0.117198141
96830.535069,0.410078467,-0.223865567,0.668616789,0.574360474,0.128857768,-0.0689006533
96830.545097,0.139450714,-0.391658676,0.390866016,0.687346443,0.0570371029,-0.0952955048
96830.555125,-0.503219121,-0.399500038,0.8354294,0.793254479,0.0320571874,-0.161300884
96830.565154,-0.672646955,-0.536024806,0.580813418,0.789525791,0.000922169179,-0.215539099
96830.575182,-0.599460175,-0.579481049,0.424817385,0.734438582,-0.00326858101,-0.265249924
96830.585210,-0.544870653,-0.640080041,0.624187865,0.64442186,0.0187267315,-0.3173102
96830.595239,-0.381353321,-0.578383354,0.862252525,0.496793523,0.0346891869,-0.386784093
96830.605267,-0.129465815,-0.447924827,0.706905896,0.293897404,0.0256778494,-0.442055867
96830.615295,0.118199142,-0.4462642,0.54017278,0.00674047602,0.0164822199,-0.469635026
96830.625324,0.00882110481,-0.64190185,0.713876319,-0.308456109,0.0393723537,-0.471326665
96830.635352,-0.0898186446,-0.796984056,0.702513214,-0.458591805,0.0592962642,-0.425640659
96830.645381,0.441469448,-0.937796986,-0.320889338,-0.570759908,0.0364071903,-0.348326163
96830.655409,0.817166509,-0.752704404,-0.861048939,-0.607972221,-0.00274953119,-0.266351686
96830.665436,0.80578806,-0.525140132,-1.21212038,-0.617397682,-0.0229583971,-0.231227772
96830.675466,0.362159436,-0.0730878808,-1.33250851,-0.576383428,-0.00706678129,-0.241019146
96830.685494,-0.0487478716,0.285494735,-1.7627137,-0.563350157,0.00569987983,-0.250100539
96830.695522,-0.22393131,0.353933261,-2.01189889,-0.646647708,0.00657126621,-0.204862476
96830.705551,-0.127855457,0.00486480778,-1.51892131,-0.792960183,0.0148177453,-0.119819761
96830.715579,0.21344187,-0.188813214,-0.555882335,-0.90022035,0.0458105457,-0.0508076671
96830.725607,0.408974013,-0.154617113,0.322214504,-0.95208569,0.103603004,-0.0111316267
96830.735636,0.556022733,-0.111276787,0.924951265,-0.912436263,0.146843425,0.0084247634
96830.745664,0.669671324,0.0466135714,0.837068399,-0.822553233,0.156039319,-0.00732597073
96830.755693,0.463626518,0.275234622,0.3779323,-0.683670715,0.135134569,-0.103398704
96830.765720,-0.235831007,0.594843228,-0.223448955,-0.515359477,0.12389177,-0.287710504
96830.775749,-0.865055852,0.811086662,-0.839329859,-0.368601725,0.138350612,-0.500491248
96830.785778,-1.29099936,0.802068805,-1.10389616,-0.249047891,0.170204676,-0.685244546
96830.795806,-1.48833205,0.507776792,-1.16621788,-0.171493457,0.176226354,-0.780742274
96830.805834,-1.35880463,-0.0507789544,-1.26325378,-0.154423104,0.158635369,-0.780935631
96830.815863,-0.939775431,-0.659735247,-0.898901408,-0.166408137,0.140119216,-0.706968532
96830.825891,-0.428812918,-1.07843178,-0.254252674,-0.183295236,0.097013547,-0.599009023
96830.835919,0.0364266489,-1.20481009,0.171093968,-0.1886362,0.0216010817,-0.495318786
96830.845948,0.385589156,-1.05629799,0.436797161,-0.172522501,-0.0552454974,-0.417006151
96830.855976,0.64436065,-0.763009598,0.616993569,-0.135092572,-0.130036646,-0.367469506
96830.866004,0.662459858,-0.571261649,0.493532609,-0.0891708741,-0.16425293,-0.345117585
96830.876033,0.487744329,-0.377793817,0.490214863,-0.0314183617,-0.140728959,-0.349336044
96830.886061,0.385108825,-0.198386075,0.571333642,0.0166671435,-0.0995445188,-0.360062705
96830.896089,0.3072858,-0.244727336,0.443241515,0.0334067075,-0.0694071214,-0.373652295
96830.906118,0.195224587,-0.25478988,0.422356548,0.0723831346,-0.0496334183,-0.387761996
96830.916145,0.234108006,-0.17371969,0.360940833,0.0852507269,-0.0400489654,-0.379325644
96830.926175,0.485136448,-0.166857622,0.354861805,0.0571019156,-0.0231192514,-0.343130873
96830.936203,0.606584534,-0.07266455,0.419460242,0.00800494479,0.00438055011,-0.287343786
96830.946231,0.497996478,0.0319804312,0.454979299,-0.0985015267,0.0494138029,-0.231897564
96830.956260,0.381683965,0.300748126,0.409808032,-0.215972499,0.0963272516,-0.185386778
96830.966288,0.221354469,0.636756589,0.0049214095,-0.384614513,0.12928494,-0.137077303
96830.976316,-0.0657674685,0.785777522,-0.317382207,-0.579670028,0.134047202,-0.0675485667
96830.986345,-0.610435487,0.701407632,-0.660237613,-0.765888349,0.11061751,0.0204310928
96830.996373,-1.11411953,0.528837408,-0.897900706,-0.895556585,0.0778696824,0.0869850878
96831.006401,-1.43899987,0.394149463,-0.89232086,-0.931712226,0.0556730319,0.112873941
96831.016429,-1.45656154,0.252518348,-0.8739394,-0.863727049,0.047156508,0.0916948829
96831.026458,-1.28799682,0.1877032,-0.854518661,-0.768556074,0.0721675892,0.0223749344
96831.036486,-1.14574085,0.0571943674,-0.506233046,-0.637798862,0.132421872,-0.0722389232
96831.046515,-0.907398691,-0.197279429,-0.368993736,-0.488889263,0.192094794,-0.144971983
96831.056543,-0.611398085,-0.435430452,-0.522738191,-0.331799225,0.23514559,-0.159159706
96831.066570,-0.407607195,-0.504498728,-0.814477742,-0.172821299,0.252075321,-0.120577694
96831.076600,-0.540664981,-0.435140529,-0.9885922,0.0606138287,0.238231397,-0.0716847192
96831.086628,-0.917780238,-0.142852989,-1.19462623,0.355891808,0.220725647,-0.0440482992
96831.096656,-1.21951577,0.219512881,-1.09935091,0.678266629,0.227120957,-0.0280015778
96831.106685,-1.17400577,0.311669479,-0.660723935,0.948217436,0.228119111,0.00877614396
96831.116713,-0.805239462,0.0746480449,-0.162422531,1.11831187,0.213664806,0.072553261
96831.126741,-0.355362409,-0.255913185,0.322174172,1.21724723,0.205705411,0.155148535
96831.136770,0.192664692,-0.444758691,0.607268294,1.22564553,0.189279831,0.248767971
96831.146798,0.632681975,-0.480764143,0.713719083,1.14755069,0.152359373,0.356596156
96831.156826,0.94197713,-0.542130101,0.634431611,0.98401378,0.0871348221,0.48979096
96831.166854,1.15714578,-0.660332336,0.299882261,0.752499028,-0.0179122343,0.623515739
96831.176883,1.07825008,-0.594380074,-0.288930019,0.489992037,-0.13965092,0.732281877
96831.186911,0.673167496,-0.527089549,-0.698723703,0.206873505,-0.223789238,0.809654965
96831.196940,0.397008814,-0.458119546,-0.780650291,-0.00680787906,-0.254305327,0.861920609
96831.206968,0.447784586,-0.323055973,-1.01938306,-0.153236733,-0.239464858,0.884487702
96831.216995,0.569718227,-0.221789747,-1.04970806,-0.23301758,-0.20601263,0.884901537
96831.227025,0.677108854,-0.0930026238,-1.0274442,-0.253638701,-0.169012004,0.862435116
96831.237053,0.738859061,0.0992888574,-0.991748618,-0.209709869,-0.134713152,0.81334479
96831.247081,0.726666592,0.301782291,-0.946103304,-0.0836616466,-0.0974422108,0.715122594
96831.257110,0.331919525,0.616465204,-0.862260068,0.116262122,-0.0566282059,0.547412171
96831.267138,-0.317916329,0.893102463,-0.739198921,0.340201481,-0.00926175353,0.324792935
96831.277166,-0.786847554,1.00803035,-0.397715973,0.567246362,0.0263284639,0.111294268
96831.287195,-0.783031357,0.864103163,-0.0514206554,0.744720205,0.0413851765,-0.054804166
96831.297223,-0.483160448,0.662799231,0.37435561,0.864704414,0.064588501,-0.159184099
96831.307251,-0.0595949539,0.448403433,0.81319068,1.03626655,0.114032484,-0.206726046
96831.317279,0.296648415,0.143591525,0.996292162,1.17901729,0.163809634,-0.212032125
96831.327308,0.525231289,-0.157374576,1.12720402,1.25042091,0.199242717,-0.191280783
96831.337336,0.707060413,-0.449321323,1.14733846,1.28328691,0.201265654,-0.14948167
96831.347365,0.628770428,-0.631873135,0.815797063,1.25310777,0.149250931,-0.0960171085
96831.357393,0.358624723,-0.768921817,0.49951636,1.13880275,0.0834761698,-0.0393189464
96831.367420,-0.0124625062,-0.89174426,0.541770863,0.963004633,0.0438821566,0.00740594726
96831.377450,-0.401934556,-0.866175081,0.860313081,0.740854903,0.0211406265,0.0552472387
96831.387478,-0.467476119,-0.847058804,1.17866416,0.404461964,-0.0014653497,0.14155656
96831.397506,-0.18305595,-0.874301835,1.66228588,0.00426368045,-0.0183354105,0.237307324
96831.407535,-0.0653823416,-0.661223513,1.96499925,-0.35223584,-0.0584154512,0.304869576
96831.417563,-0.231947334,-0.360435271,1.77151899,-0.63042535,-0.117638827,0.297917141
96831.427591,-0.542812661,0.0225687337,1.34228002,-0.799221055,-0.159696796,0.194609403
96831.437620,-0.796091768,0.406852805,0.767015789,-0.845556335,-0.160433957,0.00230546139
96831.447648,-1.03149057,0.736315718,0.123017043,-0.845853523,-0.134401822,-0.231554971
96831.457676,-1.12732681,0.800452163,-0.420352168,-0.840331213,-0.113592954,-0.432818041
96831.467704,-0.940725499,0.573908174,-0.762186998,-0.818725781,-0.0735131811,-0.528247343
96831.477733,-0.443843497,0.0379178767,-0.717908881,-0.817724423,-0.0309627886,-0.534752117
96831.487761,-0.137731356,-0.24213774,-0.669304717,-0.862675087,-4.50857995e-05,-0.484544085
96831.497790,0.0803185072,-0.480327359,-0.655100835,-0.857018546,-0.0010107481,-0.386591152
96831.507818,0.273394983,-0.703333201,-0.844537365,-0.758699195,-0.045267691,-0.278904394
96831.517845,0.159619112,-0.75978574,-0.915749667,-0.541856901,-0.0903230544,-0.201523827
96831.527875,-0.265577582,-0.833115107,-0.649121176,-0.255197988,-0.119200238,-0.171589093
96831.537903,-0.476578549,-0.934802262,-0.25498508,-0.0151022943,-0.152965658,-0.120523782
96831.547931,-0.0210920404,-1.22793385,0.120290833,0.0741628697,-0.204198488,-0.0126319427
96831.557960,0.712790335,-1.42638386,0.532771564,0.0944761327,-0.233671689,0.11993116
96831.567988,1.16765343,-1.22921585,0.903237446,0.0791672161,-0.250759327,0.237729966
96831.578016,1.15188683,-0.692883118,1.03383834,0.0253252899,-0.263789916,0.305098071
96831.588045,0.934792333,-0.133262117,0.842696176,-0.0706446478,-0.26389324,0.334377392
96831.598073,0.618877249,0.246603206,0.74136463,-0.186713726,-0.236505293,0.347110762
96831.608101,0.456627562,0.138372767,0.653902035,-0.323839889,-0.21084387,0.367208852
96831.618129,0.661733444,-0.336426947,0.485949607,-0.428815321,-0.193539449,0.379938229
96831.628158,0.793878134,-0.552179347,-0.157834035,-0.514905945,-0.187516176,0.337183579
96831.638186,0.809118519,-0.608187139,-0.162386291,-0.606066779,-0.155014702,0.20479226
96831.648215,0.404587542,0.00127111241,-0.396892966,-0.686598615,-0.055022319,-0.00599108467
96831.658243,-0.259526027,0.481250605,-0.290510567,-0.724278347,0.0886104767,-0.236452253
96831.668271,-0.808891701,0.787437564,-0.217174112,-0.718002872,0.211364365,-0.409951077
96831.678300,-0.93796904,0.963879807,-0.333900796,-0.613467948,0.279909349,-0.478455321
96831.688328,-0.750858395,1.06754016,-0.434558972,-0.35134928,0.297671026,-0.468465523
96831.698356,-0.528992262,1.17036896,-0.607939855,0.0215190994,0.250998056,-0.421661006
96831.708385,-0.384206701,1.26317116,-1.05931876,0.38661985,0.141052908,-0.348163084
96831.718413,-0.234722827,0.938077477,-1.39865184,0.655996724,-0.0143997894,-0.246864946
96831.728441,-0.267233898,0.445516589,-1.78962509,0.760463222,-0.189159089,-0.173811243
96831.738470,-0.6737376,0.0090354628,-2.1920953,0.710659488,-0.329403007,-0.132632644
96831.748498,-1.02344952,-0.295914795,-2.23419841,0.599671944,-0.396670186,-0.114190252
96831.758526,-1.23411939,-0.481278376,-2.07883249,0.52664034,-0.405955845,-0.126592324
96831.768554,-1.136385,-0.303344141,-1.85389327,0.531569882,-0.376532429,-0.127788351
96831.778583,-0.324958941,-0.072324066,-1.59076957,0.572900816,-0.348050737,-0.0897349875
96831.788611,0.720798504,0.0973537977,-1.42758334,0.641902252,-0.324721449,-0.0313097585
96831.798639,1.55883433,0.473547592,-1.31153528,0.736997827,-0.275167995,0.0314939719
96831.808668,2.1773412,0.783762894,-1.23595485,0.808229669,-0.23281815,0.101899161
96831.818696,2.48128966,1.00086368,-1.53474549,0.823685332,-0.204236576,0.16356413
96831.828724,2.21404932,1.08934319,-1.7963354,0.82675223,-0.18777717,0.207239701
96831.838752,1.59885625,1.13334074,-2.50410899,0.763093396,-0.195452669,0.246131181
96831.848781,0.957649258,1.03241873,-3.02828601,0.614997908,-0.196370655,0.297618314
96831.858809,0.325293239,0.616922373,-3.00358295,0.399425908,-0.170021081,0.338028057
96831.868838,-0.339437695,0.438580214,-2.57972216,0.184413477,-0.119128333,0.355951144
96831.878866,-0.588933776,0.236762524,-2.02409085,0.00839850495,-0.0603398505,0.346483602
96831.888893,-0.645477574,0.0960977972,-1.38860742,-0.169830085,0.0173498829,0.30049692
96831.898923,-0.634170363,-0.0486786577,-0.582551731,-0.307738171,0.0865491916,0.21924284
96831.908951,-0.507785917,-0.0591522853,-0.199223445,-0.344788329,0.125440664,0.107710182
96831.918979,-0.465090758,0.220760799,-0.068351332,-0.27730088,0.153211317,-0.0225237209
96831.929008,-0.508225478,0.613381778,-0.0520384951,-0.167621271,0.184850997,-0.133287252
96831.939036,-0.449374864,0.853807321,-0.169368405,-0.0781824598,0.215873099,-0.190038682
96831.949064,-0.473095054,0.8106802,-0.334660674,-0.0287896106,0.23268669,-0.177857907
96831.959092,-0.597143386,0.59605158,-0.464335686,-0.0149427708,0.221160001,-0.121518747
96831.969121,-0.656805243,0.433341766,-0.47955196,-0.0138655221,0.199216879,-0.0606777642
96831.979149,-0.634385102,0.44097237,-0.472814176,-0.0539815137,0.181847743,-0.0270971704
96831.989177,-0.532021437,0.326909317,-0.320791723,-0.118892075,0.186016134,-0.0194275316
96831.999206,-0.423421836,0.189500057,-0.0319876407,-0.168058828,0.223911053,-0.0242326718
96832.009234,-0.274911227,0.172113709,0.290120161,-0.22833708,0.267186082,-0.0147566136
96832.019262,-0.0434824984,0.00228043558,0.432989586,-0.27345796,0.306608057,0.0193257246
96832.029291,0.14031756,-0.186860655,0.519744909,-0.255831019,0.331477976,0.075461163
96832.039318,0.195121017,-0.286101951,0.416107424,-0.185483084,0.308770812,0.126904382
96832.049347,0.0461605093,-0.258387814,0.24055212,-0.0635955268,0.255572564,0.159329965
96832.059376,-0.185930373,-0.129911546,0.187294577,0.083654373,0.200034744,0.184279262
96832.069404,-0.224806815,-0.102245267,0.319602276,0.182546868,0.141145057,0.23912759
96832.079432,0.0533255786,-0.304575436,0.516448206,0.219071849,0.0955703844,0.306216075
96832.089460,0.222033063,-0.418402891,0.789328743,0.242208599,0.0773969729,0.348851426
96832.099488,0.301591899,-0.44397039,1.07550949,0.264166608,0.086702152,0.36126758
96832.109516,0.259142677,-0.540622765,1.18432818,0.22822751,0.0900822346,0.348861768
96832.119544,0.126609791,-0.746097553,1.10216194,0.14067769,0.066418982,0.323547079
96832.129573,-0.00663179079,-0.842311171,0.861708919,0.0361241056,0.0374957238,0.298230543
96832.139601,-0.148864269,-0.812446998,0.603973344,-0.0848049754,0.0316143994,0.286686822
96832.149629,-0.249864647,-0.659107763,0.343819602,-0.214420483,0.0437304516,0.290566488
96832.159658,-0.387606244,-0.42085876,-0.0376089877,-0.347004102,0.0497659732,0.284789844
96832.169686,-0.564945107,-0.137461523,-0.382342463,-0.501059429,0.0319025506,0.255185081
96832.179714,-0.781317758,0.0584474545,-0.697679747,-0.626446144,-0.0133557405,0.213832064
96832.189743,-0.885861251,0.103912353,-1.06060822,-0.715958194,-0.0890904452,0.151254966
96832.199771,-0.962483011,0.0986888822,-1.45330815,-0.769944445,-0.163146564,0.0562064711
96832.209799,-0.938568467,0.155060283,-1.60775812,-0.748677508,-0.204323032,-0.0505926769
96832.219828,-0.705080321,0.264663727,-1.55651367,-0.654800014,-0.204220229,-0.157819526
96832.229856,-0.476006266,0.226550598,-1.47854196,-0.531128124,-0.171738186,-0.252948717
96832.239884,-0.240670373,0.15754282,-1.3515271,-0.387105987,-0.124925682,-0.314489857
96832.249912,0.0110044037,0.138365023,-1.31655399,-0.245630608,-0.0697604279,-0.349425988
96832.259941,0.153242362,0.0896131205,-1.2145859,-0.0961071709,-0.0345390561,-0.34712048
96832.269969,0.171801845,0.0921053026,-1.12871203,0.0387904635,-0.0284255046,-0.310308681
96832.279997,0.194466718,-0.0789528365,-0.900539823,0.11873456,-0.0358834203,-0.238653393
96832.290026,0.371557562,-0.455080324,-0.372223804,0.180026962,-0.0569655347,-0.133487285
96832.300054,0.624385052,-0.781901491,0.0674693433,0.200250997,-0.0875878941,-0.0267379463
96832.310082,0.70366909,-0.948970268,0.348501038,0.227212577,-0.109267087,0.0540213499
96832.320111,0.624521392,-0.990312406,0.45205669,0.279069646,-0.107164526,0.0890914489
96832.330139,0.388055546,-0.89996673,0.480235321,0.352977439,-0.101441921,0.0938766141
96832.340167,0.211214732,-0.845167218,0.533074931,0.459209873,-0.0874211799,0.0889492396
96832.350196,0.114292125,-0.90494503,0.68238754,0.643038257,-0.0494663391,0.0641954232
96832.360224,0.043123918,-0.965895611,0.922317409,0.860941335,0.000683912475,0.0220445086
96832.370252,0.034854833,-1.00313959,1.21598238,1.06607877,0.0534957301,-0.0162506841
96832.380280,0.177897276,-1.11690392,1.6221228,1.21510444,0.119196444,-0.00905482208
96832.390309,0.410944912,-1.41409414,2.1701372,1.29168735,0.166970095,0.036788835
96832.400337,0.425182111,-1.52794804,2.46633841,1.28852676,0.173136911,0.0814143557
96832.410365,0.105122365,-1.53337766,2.82813992,1.16798304,0.1598014,0.129827692
96832.420394,-0.069312265,-1.54037366,3.21250106,0.931295379,0.0943400998,0.199564977
96832.430422,-0.0497038206,-1.47080226,3.26263843,0.634657844,-3.30105039e-05,0.269430323
96832.440450,-0.230828121,-1.3065215,3.34859471,0.369770273,-0.11199496,0.306491419
96832.450479,-0.396471103,-0.83855328,3.09260568,0.136027812,-0.208282345,0.292960419
96832.460507,-0.554121808,-0.371713913,2.95971872,-0.122533717,-0.260244631,0.25227265
96832.470535,-0.722899836,-0.200853671,3.04091057,-0.39435269,-0.259106928,0.207193061
96832.480563,-0.750635327,-0.261104543,3.13293711,-0.671721474,-0.204844483,0.149215787
96832.490592,-0.649732893,-0.231757709,3.15268226,-0.924414412,-0.127200821,0.0576879893
96832.500620,-0.687305814,-0.0604646648,2.92370049,-1.11099316,-0.0540834601,-0.0564162146
96832.510648,-0.713147746,0.0520494514,2.68619638,-1.2236184,0.00436253694,-0.170486317
96832.520677,-0.606968797,0.154853618,2.39984495,-1.22703554,0.0406406511,-0.285305069
96832.530705,-0.674023943,0.415948805,1.9903108,-1.13902415,0.0606561702,-0.389988319
96832.540733,-0.711019648,0.51479511,1.48765588,-1.00649788,0.0592396361,-0.459104822
96832.550762,-0.661900666,0.409648134,0.930193842,-0.857357637,0.0246174735,-0.474518136
96832.560790,-0.578365985,0.185367304,0.377479295,-0.707651512,-0.0222030293,-0.441787617
96832.570818,-0.328347451,-0.15967615,-0.100125942,-0.53868349,-0.0663020472,-0.374814973
96832.580846,-0.110475867,-0.523374145,-0.457950369,-0.329826699,-0.0960841711,-0.291457758
96832.590875,0.0490905348,-0.865519467,-0.832993642,-0.152436749,-0.115637639,-0.208423318
96832.600903,0.0515174697,-1.02727436,-0.973635454,-0.0238923589,-0.164223009,-0.137408258
96832.610931,-0.164380768,-0.985522541,-1.08212213,0.0801735884,-0.222197631,-0.114690439
96832.620960,-0.646797497,-0.778670474,-0.817334301,0.230473354,-0.26467719,-0.127511681
96832.630988,-0.858903102,-0.405003202,-0.318108768,0.366620257,-0.276581788,-0.173758806
96832.641016,-0.753497804,0.0412666209,0.227419667,0.436037435,-0.265664959,-0.2481654
96832.651045,-0.36093261,0.376184074,0.887594471,0.406543448,-0.228160986,-0.319622026
96832.661073,0.25859951,0.562227235,1.47074916,0.320722028,-0.158115053,-0.370829539
96832.671101,0.627031183,0.669194339,1.87771435,0.222281202,-0.0702235486,-0.399995969
96832.681129,0.64502905,0.647621828,2.06319717,0.112500369,-0.00686028985,-0.427808956
96832.691158,0.526198454,0.570370173,1.98463626,-0.0310938125,-0.00250735333,-0.466186152
96832.701186,0.448746381,0.367056801,1.67253898,-0.182721944,-0.0325113247,-0.508572743
96832.711214,0.378562691,0.227018398,1.3386706,-0.294987247,-0.0390869352,-0.52785723
96832.721243,0.402448155,0.119449492,1.13590054,-0.398671285,-0.0182144094,-0.505039022
96832.731271,0.543370392,0.02169628,0.929602306,-0.528807477,0.0250883204,-0.443339185
96832.741299,0.671331074,-0.0416080252,0.749974637,-0.679644362,0.0733445351,-0.355305449
96832.751328,0.627725157,-0.0318084426,0.547265369,-0.801496224,0.118892579,-0.256423072
96832.761356,0.366159064,0.142060516,0.274100754,-0.864753739,0.144466377,-0.180894748
96832.771384,0.0208573604,0.577538384,-0.144450237,-0.865096525,0.147734082,-0.145321579
96832.781413,-0.386198861,1.01472707,-0.451662083,-0.812021331,0.125068716,-0.112192393
96832.791441,-0.478951452,1.20325065,-0.682915309,-0.763740615,0.0661438767,-0.0384100463
96832.801469,-0.306287778,1.09433165,-0.682661626,-0.685629026,0.0170104214,0.0506471236
96832.811497,-0.0482077003,1.13951256,-0.609910863,-0.54405965,-0.000163505328,0.0935655598
96832.821526,0.110846624,1.42926598,-0.54134703,-0.32702987,0.0325089534,0.0755111937
96832.831554,0.0150571497,1.64411007,-0.442728834,-0.0544492053,0.104577555,0.0188148923
96832.841582,-0.0964588132,1.65117621,-0.292472807,0.212836831,0.192052013,-0.0274372913
96832.851611,-0.100163367,1.41970583,-0.168447783,0.417734846,0.253603763,-0.0365383785
96832.861639,-0.134889812,1.04703024,-0.0940510059,0.524319871,0.256049878,-0.00119823048
96832.871667,-0.239728782,0.6900937,-0.155899267,0.566300913,0.209982536,0.0607226629
96832.881696,-0.360303373,0.476555432,-0.184664174,0.611726149,0.150845191,0.139538913
96832.891724,-0.374121251,0.352902603,-0.143841165,0.663213058,0.0981207181,0.228363602
96832.901752,-0.286552711,0.225130502,0.0349266717,0.690711244,0.071457683,0.329273685
96832.911780,-0.100971688,0.0282133337,0.459007824,0.705201014,0.070020913,0.43305309
96832.921809,0.10497375,-0.165348387,0.705456866,0.685730859,0.0671281879,0.522601082
96832.931837,0.277170026,-0.299270791,0.707005264,0.602767273,0.0464202416,0.580205514
96832.941865,0.24395278,-0.350000569,0.559677691,0.527776404,0.00947500753,0.613806858
96832.951894,0.0120972039,-0.378508395,0.222473443,0.5077257,-0.0343046981,0.623585715
96832.961922,-0.19480137,-0.226728007,-0.343810195,0.480992659,-0.0777546997,0.61711879
96832.971950,-0.335886432,-0.0522592561,-0.89307957,0.393713131,-0.0983526568,0.609665646
96832.981978,-0.37104999,-0.021827293,-1.26318714,0.22140476,-0.0977939229,0.628256096
96832.992007,-0.195847079,-0.067743314,-1.48972152,-0.0167279215,-0.0836871575,0.65547414
96833.002035,0.0512665637,-0.0469194295,-1.76737409,-0.233711363,-0.0833689134,0.674895777
96833.012063,0.331622405,0.0754615533,-2.28831345,-0.386169598,-0.0998405601,0.658375158
96833.022092,0.504231208,0.251623628,-2.68016114,-0.378793196,-0.0818501125,0.567223682
96833.032120,0.524436047,0.577310603,-2.77993318,-0.207560987,-0.0061063493,0.375715478
96833.042148,0.377254166,1.07039453,-2.98219997,0.0436608521,0.113730839,0.12008532
96833.052177,0.143332926,1.2614157,-3.13026053,0.263700022,0.245399914,-0.0902138587
96833.062205,-0.0601487518,0.819973002,-3.04942174,0.376641735,0.317583031,-0.210816429
96833.072233,-0.304035359,0.335033732,-3.14694863,0.389732256,0.325770116,-0.279540912
96833.082262,-0.572148682,0.242190029,-3.2872561,0.329455598,0.28735376,-0.279139565
96833.092291,-0.545972915,-0.0584778384,-3.28383898,0.203574895,0.22195319,-0.210284592
96833.102319,-0.128535256,-0.372226502,-3.11160785,0.0720804772,0.150655917,-0.102796496
96833.112347,0.391088593,-0.490885724,-2.92716139,-0.0757784853,0.0989788611,0.0166332338
96833.122376,0.90170306,-0.701358101,-2.61639097,-0.243035928,0.0844100405,0.155460088
96833.132404,1.38073256,-1.0129467,-2.29483963,-0.425088272,0.0827370424,0.295686706
96833.142432,1.5700139,-1.30637947,-2.19420776,-0.53009756,0.0696436082,0.385207279
96833.152461,1.23343874,-1.2888818,-2.41753136,-0.536285655,0.0501151819,0.387536748
96833.162489,0.752330026,-0.943731783,-2.68681124,-0.468276755,0.0472341765,0.326914682
96833.172517,0.238572913,-0.508400521,-2.79161485,-0.362934873,0.0772988637,0.239006116
96833.182546,-0.341254498,-0.160276271,-2.59744019,-0.227738203,0.135198927,0.149593412
96833.192574,-0.59754645,0.112307183,-2.2846029,-0.0865003774,0.211138702,0.073524474
96833.202602,-0.610109397,0.237568689,-1.71075029,0.0482854014,0.277877754,0.0309272174
96833.212630,-0.468883282,0.061253945,-1.02485302,0.158117353,0.305741615,0.0347057086
96833.222659,-0.233545874,-0.301574391,-0.550079787,0.270782395,0.307739532,0.0459921871
96833.232687,-0.18190826,-0.414429019,-0.261264014,0.373556717,0.282526052,0.0481453527
96833.242715,-0.230924549,-0.596118917,-0.0909875267,0.426552816,0.220184929,0.0389270883
96833.252744,-0.340642906,-0.750835541,-0.156528797,0.455623879,0.163168511,0.0307804782
96833.262772,-0.475833028,-0.752310436,-0.232497938,0.460650339,0.113537564,0.0191094399
96833.272800,-0.672741648,-0.714484417,-0.226017344,0.441136017,0.121566466,-0.0077418817
96833.282829,-0.7438784,-0.5736233,-0.120150493,0.401180073,0.162162638,-0.0288516927
96833.292857,-0.636280122,-0.489709082,-0.15167142,0.337842389,0.183608807,-0.0281936276
96833.302885,-0.756069481,-0.457019257,-0.273807269,0.253836437,0.158824629,-0.0288205344
96833.312913,-1.00149298,-0.311060287,-0.425562011,0.134984612,0.095179594,-0.0281339708
96833.322942,-0.972632795,-0.298108944,-0.398863389,-0.035036386,0.0265134525,-0.0150621125
96833.332970,-0.861873423,-0.425437429,-0.136599523,-0.214090825,-0.028722373,0.000776239506
96833.342998,-0.899227952,-0.548836686,0.292050837,-0.381870494,-0.0789378743,-0.000208597795
96833.353027,-0.963846554,-0.693155067,0.632016367,-0.524845497,-0.123222248,-0.0377924565
96833.363055,-1.0886297,-0.673333565,0.925614697,-0.607499913,-0.137556442,-0.0988190632
96833.373083,-1.06746205,-0.636656935,1.40615014,-0.678601817,-0.116938257,-0.151096122
96833.383112,-0.853790143,-0.691455351,2.00390327,-0.734936194,-0.089065076,-0.154945181
96833.393140,-0.36923483,-0.801965424,2.31932063,-0.761106507,-0.0359041217,-0.130918414
96833.403168,-0.0650275369,-0.626574152,2.56888985,-0.736924247,0.0192329035,-0.0945319097
96833.413196,-0.104859708,-0.543757775,2.63869404,-0.690952198,0.0507823032,-0.0650555055
96833.423225,-0.24914932,-0.535117884,2.45114026,-0.607982771,0.0449806069,-0.0575134281
96833.433253,-0.608472589,-0.400864019,2.0961268,-0.462681727,0.0193151951,-0.0786376308
96833.443281,-0.993392309,-0.429730998,1.86678846,-0.290915028,0.00130902894,-0.120626629
96833.453310,-1.20613175,-0.559889118,1.72814104,-0.113648907,-0.0114208815,-0.173790769
96833.463338,-1.32454303,-0.663307918,1.71171481,0.0595902568,-0.0250623907,-0.230627687
96833.473366,-1.15967812,-0.783540637,1.78215846,0.221316292,-0.0368450146,-0.287987636
96833.483395,-0.882769861,-0.828762173,2.0219235,0.331458523,-0.0261329814,-0.354605274
96833.493423,-0.582498848,-0.673482179,2.43009688,0.446805104,-0.0186596188,-0.408898608
96833.503451,-0.235679196,-0.489096576,2.43133315,0.535250231,-0.0358063813,-0.422969953
96833.513480,-0.0402484301,-0.360024206,2.27558028,0.566716,-0.0960614692,-0.401942716
96833.523508,0.0942019432,-0.208302781,1.96730226,0.571470841,-0.177432754,-0.350597487
96833.533536,0.148462836,-0.100608642,1.67339998,0.546257599,-0.259287947,-0.290370093
96833.543564,0.0807208774,-0.087734328,1.37094264,0.452945544,-0.336595797,-0.230076687
96833.553593,0.0379082657,-0.147707297,1.03030608,0.304687901,-0.380596542,-0.164899544
96833.563621,0.0805354744,-0.197496287,0.823867557,0.152319922,-0.328991139,-0.108952121
96833.573649,0.160355555,-0.111846952,0.880004454,0.0451993337,-0.179354214,-0.0873610761
96833.583678,0.198741436,0.156068145,0.998277783,-0.014194753,0.0165428434,-0.100129874
96833.593706,0.259996116,0.33246527,1.05472331,-0.0497346381,0.164471588,-0.121802674
96833.603734,0.285644936,0.38450171,0.777800217,-0.0845075333,0.212475604,-0.134995447
96833.613763,0.23218555,0.405299255,0.114082626,-0.0545030283,0.140169985,-0.122198151
96833.623791,0.336322728,0.318964495,-1.20310881,0.0801455965,-0.0285077217,-0.0810997199
96833.633819,0.457636447,0.0993891029,-2.6464541,0.341095164,-0.215384924,-0.0355194483
96833.643848,0.473356067,-0.204124034,-3.84680253,0.636478885,-0.355534845,-0.0274042647
96833.653876,0.193293912,-0.316388879,-4.40109529,0.889245077,-0.415599519,-0.0638837155
96833.663904,-0.507357097,-0.512855856,-4.00853273,1.13039087,-0.386934334,-0.158971087
96833.673932,-1.22766291,-0.499226925,-3.11752263,1.36124884,-0.302940362,-0.319039033
96833.683961,-1.41184181,-0.108432175,-2.2029487,1.50706039,-0.197240004,-0.468983517
96833.693989,-1.00462719,0.312457634,-1.03202451,1.54945718,-0.0612731289,-0.53870164
96833.704017,-0.220739054,0.523860679,0.356955563,1.52185772,0.0884114419,-0.554701612
96833.714046,0.478199416,0.806343779,1.5670205,1.37033795,0.209552518,-0.519050406
96833.724074,1.13210939,0.844659481,2.49657807,1.18077741,0.223310671,-0.403277205
96833.734102,1.83514455,0.633581904,2.41137114,0.867389306,0.125691435,-0.200288967
96833.744131,2.17398663,0.00360642349,2.24560892,0.407388701,-0.0554775569,0.0669557888
96833.754159,1.96612012,-0.589778791,1.87732856,-0.11967937,-0.257735872,0.336151852
96833.764187,1.30756065,-0.852347266,1.40942113,-0.668711082,-0.40169596,0.551172568
96833.774216,0.494638363,-0.934238636,1.20453101,-1.18398453,-0.444933706,0.625344231
96833.784244,-0.457116893,-0.348465322,1.39324507,-1.57353868,-0.368969702,0.550476922
96833.794272,-1.19430395,0.246861985,1.08644765,-1.79952623,-0.259989166,0.397542252
96833.804300,-1.38057033,0.830971439,0.49366062,-1.9089054,-0.132420802,0.193894564
96833.814329,-1.38010067,1.47759586,0.521334809,-1.85074712,-0.000201249736,-0.0263416629
96833.824357,-1.09671415,2.01905178,0.476224916,-1.60089244,0.116698204,-0.232787521
96833.834385,-0.661174471,2.46707583,0.393320423,-1.24123074,0.218057058,-0.401413814
96833.844414,-0.3861228,2.69409945,0.274127642,-0.849012391,0.258415646,-0.537559913
96833.854442,-0.436028037,2.70704924,0.0899214137,-0.425082938,0.289671576,-0.59822862
96833.864470,-0.434881607,2.35437986,0.13222034,-0.0201921919,0.324427969,-0.593206392
96833.874499,-0.308781421,1.99095469,0.217662243,0.32078804,0.33995471,-0.536626742
96833.884527,-0.152847786,1.55475903,0.189106011,0.559291645,0.330971873,-0.417404489
96833.894555,-0.00964788721,0.848828291,0.310228883,0.694157585,0.330798781,-0.274179415
96833.904584,0.103268152,0.343553176,0.596408462,0.762798174,0.31919483,-0.14756024
96833.914612,0.0150379335,0.128181665,0.499030622,0.797692223,0.262883372,-0.0376297395
96833.924640,-0.290030544,0.00125567738,0.00591977289,0.873623773,0.18761926,0.0612779323
96833.934669,-0.525063033,-0.0862919198,-0.567233751,0.992190107,0.120374433,0.136897324
96833.944697,-0.674223995,-0.101151599,-1.10912704,1.11607502,0.0768360112,0.181700482
96833.954725,-0.76714354,-0.206396363,-1.42111151,1.19005845,0.0762913962,0.227116166
96833.964753,-0.565862514,-0.502248501,-1.24438366,1.20550559,0.112367368,0.252548023
96833.974782,-0.313726805,-0.482004535,-0.8648986,1.16066466,0.179428435,0.260162814
96833.984810,0.064308818,-0.44132678,-0.369250341,0.99922268,0.263026125,0.281347736
96833.994838,0.46344506,-0.481309356,0.276853268,0.725411638,0.339660174,0.321584089
96834.004867,0.582813125,-0.565480837,0.747106388,0.326629682,0.361614204,0.35107167
96834.014895,0.3566524,-0.516884089,1.03411073,-0.162065179,0.293858326,0.35678096
96834.024923,-0.109092907,-0.495070974,0.795120186,-0.668572859,0.152184299,0.342256888
96834.034952,-0.628945468,-0.495244066,0.35203155,-1.16971578,0.0104732326,0.32519029
96834.044980,-0.934431805,-0.434399063,-0.015465545,-1.57321991,-0.088906617,0.326699241
96834.055008,-0.754445679,-0.23962077,-0.541783083,-1.89669384,-0.092012399,0.380908145
96834.065037,-0.188180198,-0.345231126,-0.446968956,-2.02355673,-0.0190500385,0.425245507
96834.075065,0.236177945,-0.392868198,-0.544551963,-1.91355421,0.0759957795,0.375592722
96834.085093,0.293700178,-0.0226639995,-0.885910409,-1.56974711,0.162675298,0.259140684
96834.095121,0.399600511,0.268123658,-1.37638039,-1.08687474,0.242031894,0.120497844
96834.105149,0.400169543,0.517479125,-1.74974024,-0.547641949,0.319896436,-0.0384505588
96834.115177,0.0923901902,0.826870799,-1.97669489,-0.0605351487,0.374035573,-0.171531902
96834.125206,-0.0930896747,0.693288331,-1.89919021,0.284304543,0.40585742,-0.216415242
96834.135234,-0.0903882064,0.168079375,-1.29399904,0.497790202,0.412247694,-0.16074665
96834.145262,-0.169475151,-0.293616418,-0.536276887,0.629183336,0.373966074,-0.0623455059
96834.155291,-0.240333999,-0.632964729,0.0609010709,0.694292053,0.28812415,0.0485160303
96834.165319,-0.164082699,-0.759965408,0.516667986,0.715952857,0.169535718,0.153118594
96834.175347,-0.225710778,-0.825707973,0.915849675,0.690889045,0.0460569252,0.267580195
96834.185376,-0.120725705,-1.01425077,1.22444742,0.675244852,-0.0531064096,0.37538044
96834.195404,0.128985252,-1.03113615,1.3494825,0.688414439,-0.11346642,0.443582638
96834.205432,0.291441914,-0.964437229,1.54593797,0.738293632,-0.12403571,0.474437251
96834.215461,0.436297051,-0.852381387,1.57836666,0.801711722,-0.0985220905,0.46577157
96834.225489,0.409084634,-0.639169648,1.43854376,0.83051513,-0.0662642877,0.432809367
96834.235517,0.177936165,-0.531671689,1.37989342,0.80840747,-0.0338834497,0.398511036
96834.245546,0.0331891922,-0.393654015,1.55557673,0.738367363,-0.00423500699,0.349958434
96834.255574,-0.112748077,-0.233315222,1.63485778,0.588394924,0.0103929386,0.288140072
96834.265602,-0.218080557,-0.21897816,1.62040956,0.379235848,0.03554223,0.210344597
96834.275630,-0.376819294,-0.217424793,1.57739284,0.155227511,0.0662231807,0.130751773
96834.285659,-0.567240415,-0.343385863,1.34001909,-0.151514576,0.0678269406,0.0809669111
96834.295687,-0.750687788,-0.701912301,1.10424166,-0.492316113,0.0336130363,0.0562919293
96834.305715,-1.03081428,-0.993510179,0.777509126,-0.749462978,-0.0075951164,0.0191448245
96834.315744,-1.34683874,-0.993237499,0.163087772,-0.885928945,-0.0259485572,-0.0573086675
96834.325772,-1.33244547,-0.722431796,-0.395694112,-0.928514437,-0.0189614884,-0.125653909
96834.335800,-1.01069343,-0.333633408,-0.654080259,-0.868834869,0.0134025764,-0.150239662
96834.345829,-0.744344191,0.0070314021,-0.761454008,-0.782747642,0.0601642196,-0.146671311
96834.355857,-0.581091136,0.191212048,-0.511448735,-0.746684746,0.0666711245,-0.149948315
96834.365885,-0.72640273,0.176786121,-0.392675641,-0.812910632,0.00666504527,-0.178407119
96834.375914,-0.815340293,0.0611147923,-0.476735149,-0.976915554,-0.0941278796,-0.211781875
96834.385942,-0.661449489,-0.0484796645,-0.522765079,-1.18777587,-0.194966876,-0.240311251
96834.395970,-0.427822665,-0.0569646208,-0.478652965,-1.36978544,-0.275577569,-0.21845548
96834.405999,0.101835753,-0.0868066187,-0.531927459,-1.4868715,-0.29346522,-0.155247227
96834.416027,0.751675654,0.147403631,-0.437985439,-1.47590996,-0.258358115,-0.0761140521
96834.426055,1.01843427,0.357530263,-0.436736316,-1.33182575,-0.186589905,-0.0339679282
96834.436084,0.888076248,0.646435102,-0.549741348,-1.0830511,-0.0889709304,-0.0502172049
96834.446112,0.619314544,0.82611114,-0.638518533,-0.756730155,0.0265814949,-0.099425764
96834.456140,0.254271783,0.71870042,-0.66629326,-0.417355851,0.115268222,-0.162713126
96834.466169,-0.111826213,0.476057785,-0.830874166,-0.164673255,0.13491357,-0.217499391
96834.476197,-0.354378951,0.0873422529,-1.24318188,0.0279952539,0.0785331119,-0.264958815
96834.486225,-0.662999202,-0.323409901,-1.67668961,0.217246934,0.0125431743,-0.330186532
96834.496254,-0.74021184,-0.740642941,-1.85873194,0.396181538,-0.0290434166,-0.406667994
96834.506282,-0.586482218,-1.12988016,-1.85286919,0.528991266,-0.0441776301,-0.489200697
96834.516310,-0.5441792,-1.52732553,-1.44255236,0.563160404,-0.0449222523,-0.570469962
96834.526339,-0.56188371,-1.88302112,-0.521809385,0.534946068,-0.0390539739,-0.642265306
96834.536367,-0.466623593,-2.04593731,0.466160034,0.462522223,-0.0385477069,-0.688703404
96834.546395,-0.163078527,-1.83099458,1.43619048,0.388880744,-0.0271693516,-0.702975259
96834.556424,0.176830999,-1.40974164,2.39423588,0.379026785,-0.00773253584,-0.695466207
96834.566452,0.406185479,-0.777955019,3.01487479,0.413438811,-0.00496844122,-0.666499839
96834.576480,0.706214975,-0.198990398,3.48521326,0.387030377,-0.0383831236,-0.591015206
96834.586509,1.07926612,0.062212634,3.92588782,0.274042322,-0.124234119,-0.469199286
96834.596537,1.37037132,0.087788097,3.95160795,0.0957306242,-0.245007136,-0.31119235
96834.606565,1.61017917,0.0795827248,3.75642557,-0.148533166,-0.341370964,-0.152433858
96834.616594,1.63901115,0.098106735,3.66298565,-0.421498404,-0.378681862,-0.0265195977
96834.626622,1.4010745,0.0396082957,3.46788277,-0.646143214,-0.37901529,0.0390796501
96834.636650,0.843414099,0.122020695,3.09317676,-0.7711906,-0.33318814,0.00754809084
96834.646679,0.109406728,0.426632587,2.62942353,-0.80023636,-0.258104854,-0.110792131
96834.656707,-0.57684663,0.690983269,2.10636411,-0.780564682,-0.132398569,-0.249581979
96834.666735,-0.731384975,0.849412228,1.89946674,-0.720048086,0.0283828572,-0.335603939
96834.676764,-0.437795522,0.980411913,1.78582283,-0.620325462,0.154642529,-0.333751724
96834.686792,-0.117968927,0.933480943,1.43939541,-0.518296556,0.175713993,-0.255449728
96834.696821,0.0840863353,0.889269753,0.823838331,-0.4371285,0.0678530399,-0.144720809
96834.706849,-0.00797352425,0.865774165,0.0506129011,-0.372866944,-0.119449743,-0.0349796612
96834.716877,-0.200115624,0.873741491,-0.609772916,-0.23831606,-0.282691145,0.00499012491
96834.726906,-0.195459688,1.07466183,-0.983983829,0.00361427992,-0.366358065,-0.00143581645
96834.736934,0.092379678,1.0620572,-1.02339113,0.191150366,-0.335535728,0.0191794474
96834.746962,0.7407581,0.5410328,-0.357588545,0.348236128,-0.221837365,0.0501544055
96834.756991,1.15151946,0.337363746,0.139350923,0.556787713,-0.0794583868,0.0525057119
96834.767019,1.16328691,0.424774026,0.371137817,0.78146319,0.0501384836,0.0345639948
96834.777047,1.10675495,0.477774088,0.442936395,0.988529011,0.129850364,0.0491221648
96834.787076,1.12406052,0.259957997,0.404637351,1.15829645,0.161316669,0.110927745
96834.797104,1.07103503,0.0467837403,0.222669842,1.26298319,0.138462758,0.211759015
96834.807132,0.853013775,-0.101334107,-0.0871080549,1.31606768,0.0922401388,0.317840977
96834.817161,0.689455929,-0.189251752,-0.274762962,1.3508328,0.065401866,0.399735316
96834.827189,0.56732092,-0.287469476,-0.161359871,1.34978913,0.0651014586,0.451641633
96834.837217,0.562701407,-0.446649108,0.0706006271,1.28711699,0.0921152298,0.477336093
96834.847246,0.626675721,-0.54744662,0.506782552,1.19952081,0.154910168,0.487424685
96834.857274,0.609907906,-0.583242484,1.12636874,1.07665931,0.204636446,0.49362637
96834.867302,0.732460592,-0.552423385,1.45566791,0.77874647,0.171706459,0.487839057
96834.877331,0.720111618,-0.554756431,1.29734548,0.363911762,0.048296376,0.506719007
96834.887359,0.501838212,-0.501482997,0.64204384,-0.0826052958,-0.0884409632,0.562436892
96834.897387,0.196960069,-0.414272879,-0.0410939072,-0.530331151,-0.19746145,0.615052952
96834.907416,0.055170147,-0.172945527,-0.994264985,-0.988949315,-0.27709105,0.610094144
96834.917444,-0.14602426,0.232083353,-1.82229752,-1.40675677,-0.315328711,0.552815153
96834.927473,-0.247448087,0.514778086,-2.38853966,-1.7037517,-0.296907091,0.457021489
96834.937501,-0.0991032999,0.87494451,-2.66226366,-1.83543326,-0.221550548,0.344965263
96834.947529,0.305307083,1.30139831,-2.6277494,-1.76089348,-0.107935832,0.25968553
96834.957558,0.931391585,1.48449395,-2.21378632,-1.47744264,0.0400269952,0.185280545
96834.967586,1.27675357,1.60038067,-1.5515464,-1.00146093,0.19458755,0.0992782776
96834.977614,1.2943148,1.60787614,-1.05527095,-0.414331571,0.31685645,0.0188241814
96834.987643,1.13507825,1.37975449,-0.947844595,0.131489693,0.387858993,-0.00920612102
96834.997671,0.81684999,1.03973058,-0.800764859,0.590370997,0.398184604,0.0316486348
96835.007699,0.474404919,0.597369166,-0.960435781,0.922662898,0.338473058,0.13722594
96835.017728,0.133048958,0.171202293,-1.19524582,1.12323962,0.232092044,0.259094818
96835.027756,-0.0724511658,0.0665496403,-1.3149863,1.27815758,0.115084729,0.365161612
96835.037785,0.0191846414,0.176309846,-1.49154114,1.42409609,0.00859024456,0.422554864
96835.047813,0.154628848,0.399330081,-1.56359164,1.54870592,-0.0458812538,0.430968328
96835.057841,0.279813454,0.377685856,-1.36664985,1.56205903,-0.0340008932,0.399143292
96835.067870,0.421829513,0.0735200638,-0.981781935,1.41893552,-0.0103959638,0.330168738
96835.077898,0.205264043,-0.34526733,-0.573490473,1.22844003,0.0149938156,0.210781916
96835.087927,-0.270916787,-0.592066683,-0.181390267,1.01957081,0.0283093535,0.0655253742
96835.097956,-0.508241406,-0.833648337,0.118665862,0.706617995,0.0299402744,-0.0295694519
96835.107984,-0.205681185,-1.29094999,0.51995183,0.332951739,0.0244926576,-0.026185454
96835.118012,0.293148973,-1.68306904,0.701846274,-0.00248778284,-0.0105601336,0.0397400324
96835.128041,0.550049614,-1.13001591,-0.13991727,-0.270758645,-0.102945195,0.116408973
96835.138069,0.567521448,-1.16550684,-0.14028318,-0.428077714,-0.256080949,0.188696756
96835.148098,0.443666557,-0.852527664,-0.646600717,-0.483113782,-0.37870782,0.225760504
96835.158126,0.267508026,-0.456634166,-0.791518307,-0.451681838,-0.39627456,0.221400915
96835.168154,0.225703605,0.0168110561,-0.943772231,-0.397040174,-0.29429146,0.182628213
96835.178183,-0.0262036295,0.498380238,-0.931790701,-0.328233407,-0.119491414,0.153319864
96835.188211,-0.292989065,0.618070739,-0.854926657,-0.308725224,0.0660150637,0.152540891
96835.198239,-0.22753697,0.579654865,-0.807766262,-0.367384003,0.207971415,0.169319867
96835.208268,0.129618691,0.407197782,-1.03015931,-0.522194103,0.254491216,0.196252956
96835.218296,0.29983183,0.221541099,-1.49187256,-0.692919211,0.204226739,0.234580367
96835.228324,0.120264624,0.0943390165,-2.14763189,-0.837864176,0.104254066,0.252701028
96835.238353,-0.429965997,0.117077576,-2.65585497,-0.926756219,0.0150440297,0.237580149
96835.248381,-0.921492683,0.169537977,-2.97726952,-0.992651061,-0.0262000813,0.196055068
96835.258410,-1.23429197,0.390392887,-3.11046979,-1.00524677,-0.00050457009,0.118526458
96835.268438,-1.55467938,0.755775475,-3.11476427,-0.955260293,0.0612810355,0.0349985425
96835.278466,-1.66971738,1.03684589,-2.99829419,-0.827876762,0.115351192,-0.0269399259
96835.288495,-1.4794143,1.20087662,-3.03660843,-0.678730682,0.142591334,-0.0666354086
96835.298523,-1.1838747,1.28332577,-3.00484961,-0.567886726,0.147834307,-0.0933543753
96835.308551,-0.956144236,1.22914497,-2.94919377,-0.502635316,0.137654639,-0.081441791
96835.318580,-0.828941971,0.913689689,-2.94620394,-0.471323178,0.101334437,-0.0459567617
96835.328608,-0.924472502,0.509438588,-3.05950065,-0.438946323,0.0514459786,-0.0291849721
96835.338637,-1.03863562,0.253434367,-3.08187147,-0.376371638,0.00532508955,-0.0601343635
96835.348665,-0.996932174,0.0759153614,-3.1307562,-0.3047563,-0.0363888006,-0.0938768845
96835.358693,-0.801070506,-0.0871179497,-3.0753558,-0.219175608,-0.0756262179,-0.0892235424
96835.368722,-0.546222944,-0.174257742,-2.8980218,-0.0918661365,-0.118011759,-0.0324558664
96835.378750,-0.267586346,-0.250386312,-2.584071,0.0548814973,-0.139906668,0.0441259954
96835.388778,-0.0624034172,-0.285213733,-1.9936431,0.18208526,-0.124347151,0.113358325
96835.398807,0.180993452,-0.379729754,-1.3769275,0.250482424,-0.0584275249,0.186385675
96835.408835,0.467186877,-0.563313393,-0.717729432,0.297075762,0.0572479431,0.260133936
96835.418864,0.676035745,-0.712317814,-0.198244955,0.338024243,0.163136027,0.32717128
96835.428892,0.558035827,-0.699944362,-0.0619326971,0.340613647,0.205754868,0.36939518
96835.438920,0.0514148313,-0.552709509,-0.238282367,0.324554517,0.198957941,0.358642652
96835.448949,-0.712424254,-0.373837554,-0.381884197,0.312562837,0.190968728,0.291618093
96835.458977,-1.29181799,-0.296079922,-0.359644309,0.26916103,0.196241788,0.197833269
96835.469006,-1.61211976,-0.341367217,-0.129764124,0.210723831,0.209062776,0.12794046
96835.479034,-1.70768763,-0.570980128,0.167514941,0.186060025,0.222473658,0.103566415
96835.489062,-1.64195741,-0.811352773,0.514411731,0.212663679,0.228687337,0.0956994359
96835.499091,-1.5021766,-0.831353943,0.699200143,0.287695303,0.238055549,0.0917497043
96835.509119,-1.29960484,-0.80325203,0.807405082,0.399462565,0.250493026,0.095936193
96835.519147,-1.14459804,-0.894840984,0.833928932,0.523361607,0.233532972,0.104611969
96835.529176,-1.29892972,-0.865393064,0.59795803,0.59786193,0.15629623,0.0824057374
96835.539204,-1.75528159,-0.787185496,0.269077373,0.627475484,0.0303044737,0.0444647473
96835.549233,-2.06025969,-0.76787998,-0.0604748995,0.594000085,-0.109166601,0.00219239185
96835.559261,-2.14381797,-0.792094238,-0.156901722,0.489505663,-0.227633857,-0.0349440586
96835.569289,-2.01829365,-0.917814302,0.0889534454,0.350372805,-0.300073975,-0.0474958021
96835.579318,-1.58252045,-0.943968515,0.57175742,0.207365586,-0.313986057,-0.0493331153
96835.589346,-0.948291988,-0.860488925,1.08118754,0.0908991536,-0.27485519,-0.0643610742
96835.599375,-0.337270872,-0.677528824,1.49898625,0.0411052322,-0.206514456,-0.0902395408
96835.609403,0.04078278,-0.566023456,1.63090056,0.04157821,-0.14977447,-0.124239587
96835.619431,0.144902112,-0.507993913,1.54382083,0.0489916532,-0.109804967,-0.170191885
96835.629460,0.0118166699,-0.555258061,1.3279154,0.0834388426,-0.0910802792,-0.23510857
96835.639488,-0.342781927,-0.465375983,0.882894915,0.147583484,-0.0812068741,-0.348013298
96835.649517,-1.00614607,-0.317850111,0.521900626,0.221834003,-0.0701105456,-0.477503107
96835.659545,-1.48876606,-0.310588815,0.397844623,0.235047012,-0.0829661574,-0.566340015
96835.669573,-1.59359626,-0.386090667,0.451514253,0.143194317,-0.141070732,-0.616181896
96835.679602,-1.57199029,-0.506785122,0.783426825,-0.0204279003,-0.219065406,-0.622331665
96835.689630,-1.0586834,-0.62647997,1.35174109,-0.173142598,-0.308817142,-0.590073572
96835.699659,-0.256991467,-0.469637842,1.57701057,-0.276427732,-0.370595806,-0.5540583
96835.709687,0.424877721,-0.136478485,1.7868966,-0.278707133,-0.363779985,-0.508302019
96835.719715,1.01939632,0.0620820664,1.77397866,-0.194355221,-0.316301965,-0.443053768
96835.729744,1.28682152,0.029302846,1.55153301,-0.103598953,-0.260955864,-0.378075049
96835.739772,1.30523177,-0.271484447,1.35624542,-0.000480824715,-0.214997688,-0.329802321
96835.749801,1.13222125,-0.573994289,1.1221935,0.115719019,-0.187168458,-0.3182932
96835.759829,0.937734816,-0.75049155,0.728950554,0.22973135,-0.206057989,-0.333319024
96835.769857,0.81348877,-0.862019423,-0.0773231585,0.315647318,-0.24955807,-0.348484651
96835.779886,0.692393882,-1.03162006,-0.413855791,0.372608586,-0.266239309,-0.367178724
96835.789914,0.547313759,-1.12205641,-0.346387937,0.39914061,-0.246134305,-0.436748223
96835.799943,0.333898424,-0.864133127,-0.107066555,0.417666092,-0.139404663,-0.554189907
96835.809971,0.317564179,-0.491736642,0.569940142,0.456458225,0.021564246,-0.657429741
96835.819999,0.42655877,-0.305561854,1.14952341,0.512364908,0.114370613,-0.716315136
96835.830028,0.450858623,-0.0585844588,1.09434688,0.536055013,0.130616701,-0.715658651
96835.840056,0.572652125,0.241157033,1.23357999,0.485701605,0.139310322,-0.672289894
96835.850085,0.602078272,0.431571468,1.79366302,0.376191332,0.136853821,-0.587988303
96835.860113,0.628430382,0.405139242,2.14808962,0.146670549,0.0911734168,-0.464547352
96835.870141,0.789214672,0.288811769,2.37143719,-0.158446223,-0.0113987626,-0.30281891
96835.880170,0.938473652,0.0239796234,2.23734612,-0.508952037,-0.179920667,-0.127520592
96835.890198,0.976825156,-0.19055856,1.57854201,-0.809387759,-0.348581606,0.0404542934
96835.900227,0.927644873,-0.285182754,0.852719557,-1.02872516,-0.443447375,0.164075046
96835.910255,0.754547337,-0.138639609,0.388012964,-1.1522205,-0.420804941,0.162304564
96835.920283,0.218827691,0.423453007,0.0769912049,-1.19752933,-0.284587973,0.0529996481
96835.930312,-0.320911127,0.833551446,-0.069232791,-1.2480842,-0.0907002474,-0.0805206012
96835.940340,-0.496315187,1.04882596,0.0398822482,-1.26735272,0.0806866874,-0.177455128
96835.950369,-0.422454489,1.2819992,0.0728165496,-1.21917285,0.172461084,-0.233843834
96835.960397,-0.346029275,1.54458513,0.0586167593,-1.09095897,0.182307592,-0.276501821
96835.970426,-0.273738019,1.71163053,0.0278825984,-0.914133088,0.140750027,-0.296868877
96835.980454,-0.337397421,1.6804875,0.0609682909,-0.684854344,0.0907430489,-0.268997566
96835.990482,-0.338671094,1.44564662,0.114636168,-0.413018064,0.0244167586,-0.191104368
96836.000511,-0.190384467,1.08409835,0.0145116601,-0.145537348,-0.0332478668,-0.0912057321
96836.010539,0.0132037769,0.746836235,0.290760797,0.097112312,-0.0575087342,-0.0213403638
96836.020568,0.208263992,0.557092101,0.618015314,0.293333217,-0.0462872359,0.00556635049
96836.030596,0.3233196,0.413779243,0.874066881,0.452880784,0.00446408975,-0.0174233887
96836.040624,0.350986775,0.41534883,1.1238512,0.59234999,0.109674132,-0.0537145484
96836.050653,0.464064507,0.365601268,1.41487705,0.664877995,0.246756351,-0.0559268344
96836.060681,0.665202654,0.15314612,1.72524999,0.634260162,0.360420323,-0.0318507936
96836.070710,0.674809564,-0.0684339267,1.84332926,0.516382261,0.404465294,0.0322048839
96836.080738,0.590679036,-0.2306709,1.82504074,0.356609925,0.387514002,0.132509379
96836.090766,0.554781903,-0.342170569,1.82705617,0.192817538,0.326260752,0.242082222
96836.100794,0.491898563,-0.336393812,1.75257581,0.0376290074,0.225606329,0.325256749
96836.110822,0.288155896,-0.279916796,1.53841576,-0.0961181382,0.123798235,0.358284785
96836.120851,-0.0456562257,-0.300148487,1.33757579,-0.249732719,0.0660649006,0.33827485
96836.130879,-0.149300725,-0.318208752,1.32062699,-0.453365491,0.0841568176,0.292564883
96836.140908,-0.148091203,-0.253890593,1.269894,-0.61272128,0.152050382,0.238750129
96836.150936,-0.119134025,0.00117883101,0.76842624,-0.685378746,0.207893408,0.211233287
96836.160965,0.042592478,0.37868696,-0.104979227,-0.696108595,0.202838994,0.226550459
96836.170993,0.120507602,0.735054612,-1.29525927,-0.641298369,0.12228503,0.262194737
96836.181021,-0.0470601377,1.08384116,-2.53762022,-0.600753323,0.0240181115,0.279672279
96836.191050,-0.280562166,1.42289455,-3.21319366,-0.604280666,-0.0463207673,0.266827299
96836.201078,-0.446233241,1.63917042,-3.50441241,-0.587516622,-0.0778352852,0.238213508
96836.211107,-0.559324345,1.48377148,-3.41364083,-0.482967601,-0.0560844477,0.180487885
96836.221135,-0.530222936,1.09067101,-2.64894942,-0.247250915,-0.00352882769,0.111597507
96836.231163,-0.321270133,0.675836407,-1.74007926,0.0986255175,0.0596229759,0.0449766655
96836.241192,0.0524124823,0.275822067,-0.966793625,0.523791774,0.124526343,-0.0158629838
96836.251220,0.495822824,0.208643258,-0.316899976,0.977361365,0.191610298,-0.0595036719
96836.261249,0.954804755,0.157782255,0.1734455,1.34525917,0.2374228,-0.0284243163
96836.271277,1.34560966,-0.170875845,0.462144953,1.5600823,0.255962676,0.0993616123
96836.281306,1.61613165,-0.671800948,0.563546641,1.5982797,0.209334439,0.288267894
96836.291334,1.48546558,-1.13776134,0.362188787,1.52237295,0.108367613,0.465527876
96836.301362,0.978349443,-1.45058686,0.0618351369,1.3897656,0.00434880319,0.5922565
96836.311391,0.551872189,-1.60502193,-0.0783513325,1.22635351,-0.085158446,0.655972375
96836.321419,0.275571761,-1.7218775,-0.162622438,1.03209005,-0.14257034,0.670806422
96836.331448,0.248424336,-1.86373892,-0.165214792,0.84775786,-0.171566569,0.666772558
96836.341476,0.275198617,-1.85289004,-0.103319185,0.668488487,-0.170685866,0.629981532
96836.351505,0.304296993,-1.65219767,-0.0181075839,0.458539738,-0.154244297,0.579672529
96836.361533,0.42965743,-1.48653203,0.179608699,0.238296076,-0.140635022,0.50605215
96836.371561,0.398483088,-1.2484437,0.312142608,0.0572213559,-0.128558376,0.382908626
96836.381590,0.257963623,-0.854881753,0.366490868,-0.0935292775,-0.106848025,0.221430003
96836.391618,0.298991507,-0.518384958,0.539457325,-0.266843543,-0.0777069192,0.0663338889
96836.401647,0.453929921,-0.446078395,0.786613054,-0.469120757,-0.0607186157,-0.0532670814
96836.411675,0.499228906,-0.517004866,0.770510645,-0.651354686,-0.0727680858,-0.140174286
96836.421704,0.435407701,-0.489701556,0.550053538,-0.738260047,-0.100230069,-0.20835893
96836.431732,0.378861601,-0.305770711,0.285476134,-0.731317953,-0.112186597,-0.249111162
96836.441760,0.626647883,-0.142391618,0.197661073,-0.635969118,-0.0725377213,-0.25013514
96836.451789,1.03906738,-0.0225756637,0.229328131,-0.460707829,0.00846844713,-0.226378412
96836.461817,1.24115341,0.0591739969,0.249438022,-0.249641643,0.094212911,-0.189774589
96836.471846,1.20591419,0.0971691984,0.261138981,-0.0654515708,0.144483811,-0.17346646
96836.481874,1.01208103,0.152126056,0.294668326,0.0648185527,0.16967251,-0.172672571
96836.491903,0.757617026,0.144911229,0.491894195,0.129744559,0.175013221,-0.161148534
96836.501931,0.598155875,0.0593047837,0.725660865,0.144639357,0.168715379,-0.109995336
96836.511959,0.61443196,-0.111753246,0.780294957,0.119129992,0.128096304,-0.0473261002
96836.521988,0.519042225,-0.0923654584,0.705387892,0.0714769876,0.0580506463,0.0145332709
96836.532016,0.560893773,-0.0777898571,0.568221063,0.0594778499,-0.039365654,0.0705984075
96836.542045,0.673055633,0.0370415505,0.17573741,0.170185729,-0.135962495,0.116773887
96836.552073,0.614965628,0.154788846,-0.379659507,0.291732117,-0.242635691,0.12145014
96836.562102,0.338190897,0.293506886,-0.754914377,0.455779119,-0.31994965,0.0683267255
96836.572130,0.0680979446,0.478007312,-0.951962551,0.573561951,-0.367965096,-0.0171567473
96836.582158,0.167761411,0.456855583,-0.786989431,0.636556133,-0.400721454,-0.110136227
96836.592187,0.496876205,0.23786464,-0.623678107,0.641320213,-0.382940584,-0.249179856
96836.602215,0.309267767,0.247968302,-0.373054994,0.609717055,-0.309382492,-0.457654224
96836.612244,-0.328661303,0.412207829,-0.231708834,0.558138295,-0.182738,-0.68725364
96836.622272,-0.652533849,0.532638079,0.198698599,0.398715301,-0.0315495442,-0.852179752
96836.632301,-0.43873167,0.420117725,0.808381818,0.181033312,0.0625106458,-0.898191438
96836.642329,0.0746711855,0.284633113,1.13143187,-0.0863675037,0.0779910673,-0.814163135
96836.652358,0.792805244,-0.0783531353,1.45597888,-0.388771311,0.022226869,-0.628797815
96836.662386,1.53124344,-0.273862026,1.42158094,-0.659628347,-0.10092915,-0.385638104
96836.672414,1.93910323,-0.261427108,0.952026904,-0.893456832,-0.250055784,-0.112950386
96836.682443,2.12287867,-0.254836788,0.47612204,-1.0435089,-0.380106741,0.115004747
96836.692471,1.93404566,0.0722597615,-0.0666375138,-1.09840573,-0.44142043,0.235358595
96836.702500,1.52502149,0.501952105,-0.433257242,-1.07616307,-0.410110706,0.258385612
96836.712528,1.35658158,0.894233001,-0.698123399,-1.04305305,-0.322243952,0.218882157
96836.722557,1.41333704,1.09869058,-0.835626329,-0.983639435,-0.191008442,0.147643118
96836.732585,1.38155776,1.19145873,-0.706445822,-0.849257664,-0.0364375088,0.0281316385
96836.742613,1.30832739,1.29296892,-0.425107838,-0.653429286,0.115801028,-0.134060995
96836.752642,1.33316344,1.26341491,-0.139197723,-0.434226946,0.246521762,-0.278419779
96836.762670,1.47766149,1.0078314,0.156786626,-0.215669022,0.323424793,-0.335648433
96836.772699,1.58643195,0.615043208,0.261694861,-0.0337990979,0.338060981,-0.288977073
96836.782727,1.40672332,0.274094293,0.145929717,0.126303493,0.318044937,-0.170823799
96836.792756,1.17093085,-0.0421514113,-0.0364644939,0.238403126,0.266780144,-0.0068340685
96836.802784,1.23861424,-0.453350505,-0.0871957332,0.293535872,0.202125258,0.153119652
96836.812812,1.27824395,-0.591738912,-0.0617246073,0.348686471,0.152172348,0.258167221
96836.822841,1.07427855,-0.536925079,-0.134867585,0.397802903,0.131454817,0.311349763
96836.832869,0.706286433,-0.415990788,-0.276525296,0.444109126,0.135454631,0.322582974
96836.842898,0.215224881,-0.32127435,-0.411413659,0.514063998,0.155152163,0.314060076
96836.852926,-0.142846142,-0.255782033,-0.48456482,0.584816738,0.171144447,0.285735472
96836.862955,-0.449904952,-0.277269862,-0.441894137,0.597362622,0.166262871,0.246431752
96836.872983,-0.635672731,-0.412875396,-0.411115553,0.554461225,0.156108773,0.217294647
96836.883012,-0.561352855,-0.633362277,-0.267879048,0.494153663,0.157976708,0.20888251
96836.893040,-0.345134153,-0.848348552,0.0783911349,0.417630657,0.157880566,0.221924021
96836.903068,-0.13581427,-0.992517076,0.252791424,0.31791444,0.147807157,0.227373375
96836.913097,-0.101356595,-0.956392016,0.370030733,0.242043137,0.142088554,0.228699102
96836.923125,-0.20985595,-0.781641014,0.296369869,0.183759599,0.122586495,0.219089343
96836.933154,-0.525677255,-0.571530785,0.0542690855,0.122564136,0.0889233415,0.207102983
96836.943182,-0.908478522,-0.42920449,-0.0482139684,0.0482720686,0.0586197626,0.179728894
96836.953211,-1.13010555,-0.356959046,-0.00920356196,-0.0133446911,0.0519762438,0.153326317
96836.963239,-1.14083175,-0.313681557,0.173356653,-0.08576803,0.0676497434,0.14495626
96836.973268,-1.05998638,-0.392772227,0.31765991,-0.157975108,0.0902895395,0.151291921
96836.983296,-1.02426434,-0.373500869,0.384666577,-0.214409352,0.115029513,0.17781861
96836.993324,-0.875197672,-0.338319629,0.54446434,-0.236246468,0.157873384,0.208850025
96837.003353,-0.658072925,-0.285996481,0.732481651,-0.201757745,0.195107839,0.230641602
96837.013381,-0.709427557,-0.117320999,0.69740683,-0.174772725,0.209140024,0.241605311
96837.023410,-0.845468889,0.0746664574,0.666703064,-0.162717656,0.209503016,0.235855548
96837.033438,-0.906075772,0.321410975,0.730684246,-0.157780156,0.194752565,0.213722541
96837.043467,-0.892724123,0.53538146,0.788970431,-0.173647002,0.143977544,0.179912387
96837.053495,-0.824340907,0.645761295,0.697129767,-0.207694725,0.0661607747,0.142134382
96837.063523,-0.667369453,0.57362501,0.763588152,-0.258796797,-0.0260157614,0.10558915
96837.073552,-0.437994771,0.491782155,0.878375976,-0.263407008,-0.108563365,0.0830651958
96837.083580,-0.146793454,0.465015582,0.760119015,-0.21745734,-0.166465544,0.091480254
96837.093609,0.136856204,0.341788285,0.805620537,-0.151504428,-0.180528903,0.0858977277
96837.103637,0.361256021,0.329770442,0.958115284,-0.0795671204,-0.148744607,0.0586924765
96837.113666,0.383666663,0.431845134,1.11044695,-0.00898492335,-0.0873732577,0.0238457609
96837.123694,0.283413232,0.409787251,1.36762021,0.0216510156,0.000498277476,0.0215711545
96837.133723,0.234768297,0.207639853,1.74224263,0.00869740082,0.0746297602,0.0577334192
96837.143751,0.113783573,0.102364173,1.90274007,-0.00675798858,0.0906449471,0.12423016
96837.153779,0.00347802675,0.0762942778,1.64284994,-0.0328931855,0.0309147731,0.204714074
96837.163808,-0.238199234,0.0578002244,1.39685566,-0.0833435738,-0.0799137364,0.286650224
96837.173836,-0.492561095,-0.049851099,1.24656047,-0.132663459,-0.185511538,0.350895001
96837.183865,-0.721273039,-0.111788281,1.38278563,-0.154693381,-0.23029659,0.369927539
96837.193893,-0.859509762,-0.0364149135,1.61252086,-0.145873264,-0.207852804,0.341217055
96837.203922,-0.904426105,0.0380611393,1.71029033,-0.101960138,-0.115668007,0.272336258
96837.213950,-0.948411085,0.195872551,1.68250391,0.00482196828,0.0158471399,0.185734524
96837.223979,-0.985587846,0.308724366,1.45301594,0.155546232,0.115160412,0.117406874
96837.234007,-0.92925959,0.365029679,0.946075302,0.312128379,0.146373994,0.0922445271
96837.244035,-0.785417594,0.376444368,0.543650685,0.448297664,0.127309746,0.0964184989
96837.254064,-0.656187549,0.376415508,0.202356537,0.552541538,0.0784074579,0.113811872
96837.264092,-0.521716097,0.247417956,-0.081288555,0.585984989,0.0319808338,0.132732033
96837.274121,-0.435731465,0.0871263452,-0.0477545342,0.518786772,0.012101936,0.159016906
96837.284149,-0.502489491,-0.0743607229,0.178753543,0.392840012,0.010498979,0.181263878
96837.294178,-0.642066085,-0.146174132,0.220760793,0.21028006,0.0047103333,0.201630144
96837.304206,-0.868018501,-0.235994981,0.142701402,0.0194818704,-0.011595403,0.200453817
96837.314235,-1.25517592,-0.133579695,0.112762191,-0.124871843,-0.0431024629,0.182429551
96837.324263,-1.3999142,0.0220299324,-0.0953498135,-0.229451508,-0.108212487,0.181214078
96837.334292,-1.16171788,0.0362310013,-0.608827744,-0.31361805,-0.198113882,0.214302524
96837.344320,-0.815523248,0.0136424086,-1.09332975,-0.414274619,-0.260994339,0.240600704
96837.354348,-0.700254435,-0.0121594105,-1.31317428,-0.533590392,-0.274177515,0.261429026
96837.364377,-0.658067226,-0.0987901211,-1.54987525,-0.648807243,-0.239690893,0.298079713
96837.374405,-0.493328535,-0.248306144,-1.59401425,-0.727747337,-0.168611386,0.347960993
96837.384434,-0.202200065,-0.254645577,-1.48843499,-0.721654014,-0.086993755,0.387379511
96837.394462,0.0502945403,-0.067928096,-1.54324677,-0.665334002,-0.0270633093,0.397186859
96837.404491,0.15366267,0.166368663,-1.64132312,-0.562360481,0.0228616398,0.373421087
96837.414519,0.0469233834,0.410496276,-1.57065208,-0.432766543,0.096995524,0.33677037
96837.424548,-0.0948084888,0.478842813,-1.35879154,-0.316801325,0.183279282,0.298946305
96837.434576,-0.26307897,0.457217695,-1.25383011,-0.231675253,0.259266174,0.274260416
96837.444604,-0.444645351,0.478195309,-1.32852967,-0.143494264,0.319979853,0.247606947
96837.454633,-0.856411139,0.583344805,-1.47420656,-0.0414957302,0.343854016,0.226759194
96837.464661,-1.27614433,0.533829591,-1.67235772,0.0880444264,0.334699399,0.195014044
96837.474690,-1.49311359,0.463199838,-1.9940172,0.260531499,0.297249234,0.147171422
96837.484718,-1.59245615,0.475570732,-2.45561764,0.406453027,0.244380182,0.104425563
96837.494747,-1.6723904,0.472731563,-2.63436619,0.475566312,0.181933842,0.100052385
96837.504775,-1.60675429,0.191733625,-2.54086899,0.492360218,0.130824319,0.123361169
96837.514804,-1.41533667,0.0367877584,-2.31707192,0.469820811,0.0808170874,0.145292028
96837.524832,-1.22729298,0.175865024,-2.02387457,0.409994229,0.0317890894,0.132128551
96837.534860,-1.08444767,0.353737081,-1.78263421,0.334882184,-0.0150460611,0.0947460372
96837.544889,-0.968821493,0.461465561,-1.66817898,0.249751552,-0.0437320332,0.050788692
96837.554917,-0.840911956,0.632580691,-1.45886695,0.196494474,-0.0220488432,0.00325126883
96837.564946,-0.566955095,0.844337848,-1.31023823,0.187265812,0.0436097969,-0.0391960565
96837.574974,-0.294373468,1.11107806,-1.36619626,0.214189573,0.124741665,-0.0813320588
96837.585003,-0.229651496,1.22993218,-1.53238987,0.235902323,0.188074297,-0.130894275
96837.595031,-0.333351141,1.22326264,-1.76609224,0.215830608,0.22816979,-0.157941611
96837.605060,-0.218763151,0.904649401,-1.78171592,0.141264766,0.26993028,-0.132867159
96837.615088,0.0529709291,0.414938057,-1.6329551,0.0302647436,0.320705301,-0.0786931302
96837.625117,0.0235340756,0.0894730544,-1.42572631,-0.0754574174,0.356269962,-0.0198111731
96837.635145,-0.303889813,-0.122682015,-1.37842037,-0.146916152,0.369961536,0.0273563404
96837.645173,-0.725681284,-0.233268369,-1.39422233,-0.152606265,0.358346677,0.0623332288
96837.655202,-1.1318057,-0.166671671,-1.56556733,-0.0811784202,0.337065375,0.0508997467
96837.665230,-1.6292464,0.0749363603,-1.89010089,0.0514110429,0.302179552,-0.0034905236
96837.675259,-2.06550592,0.314676479,-2.21548494,0.157706319,0.239905006,-0.0783194911
96837.685287,-2.39750822,0.368320464,-2.31105661,0.203429609,0.166334382,-0.144840197
96837.695316,-2.57151308,0.264159832,-2.02317023,0.210367142,0.0983249758,-0.182152138
96837.705344,-2.34082055,0.00473341822,-1.51626583,0.216602131,0.0565785904,-0.189694212
96837.715373,-1.7500209,-0.198985247,-0.830340497,0.21313843,0.0280566689,-0.153533281
96837.725401,-0.939213487,-0.390662249,-0.344781086,0.214812218,0.00101173494,-0.081766152
96837.735430,-0.282522269,-0.468278536,-0.0460144125,0.245677992,-0.0328250575,0.0135156241
96837.745458,-0.0214557043,-0.555620574,0.177094086,0.276647612,-0.0738529201,0.113668329
96837.755486,-0.0554537807,-0.719156135,0.193266053,0.295847698,-0.144569704,0.178042262
96837.765515,-0.346048929,-0.720659672,-0.0760407174,0.327516927,-0.228576982,0.167732089
96837.775543,-0.757554532,-0.407017026,-0.503963932,0.355122729,-0.312315309,0.112922645
96837.785572,-1.06457297,-0.437815922,-0.809974001,0.340120598,-0.393939071,0.0460783605
96837.795600,-1.25025556,-0.562211533,-0.795507084,0.25826089,-0.429268026,-0.0220194656
96837.805629,-1.27674068,-0.751686605,-0.312263549,0.111763067,-0.423515343,-0.055731361
96837.815657,-0.848257131,-0.98253125,0.110494831,-0.0901583368,-0.373913431,-0.0698226701
96837.825686,-0.421589981,-1.18196208,0.641850947,-0.342451022,-0.299039715,-0.093148769
96837.835714,-0.166004753,-1.25048982,1.09018684,-0.554554478,-0.236730524,-0.127520592
96837.845743,0.169537079,-1.12055915,1.07035927,-0.735545591,-0.190801912,-0.145901189
96837.855771,0.39434164,-0.802829859,0.952555896,-0.829594568,-0.179155373,-0.126898737
96837.865799,0.292732392,-0.691634287,0.45282709,-0.88247563,-0.199869433,-0.100663678
96837.875828,-0.0194652155,-0.521866553,-0.066736298,-0.872947411,-0.219717705,-0.0699542325
96837.885856,-0.0819967736,-0.649620681,-0.527449437,-0.779506401,-0.238659718,-0.0426887918
96837.895885,-0.0787386303,-0.688236608,-0.800296657,-0.580226556,-0.231437751,-0.059192938
96837.905913,-0.150459137,-0.661475515,-0.8489809,-0.357527719,-0.229317614,-0.0728669327
96837.915942,0.106654707,-0.868143385,-0.746784847,-0.160524637,-0.228329846,-0.0261300552
96837.925970,0.552251982,-1.1980737,-0.401513027,-0.0127841895,-0.234992811,0.0734926749
96837.935999,0.837527818,-1.37713789,-0.0308396397,0.12413372,-0.25963878,0.214624761
96837.946027,0.973624606,-1.40196808,-0.0104240437,0.255466714,-0.310888642,0.352792485
96837.956056,0.765442971,-1.37699702,-0.142921712,0.31789039,-0.380542033,0.458508803
96837.966084,0.520660766,-1.39437836,-0.231658565,0.303160979,-0.457421892,0.512103035
96837.976112,0.334563829,-1.37412672,-0.406676109,0.212738155,-0.506574505,0.504762008
96837.986141,0.232642281,-1.18248355,-0.280049963,0.146445422,-0.495217734,0.400925412
96837.996169,0.223423713,-0.661095064,0.0626067057,0.163541584,-0.398401731,0.228711291
96838.006198,0.404948776,-0.0975429706,0.565801727,0.237016588,-0.24513013,0.0396558818
96838.016226,0.863749031,0.0530669122,1.1876582,0.315739377,-0.0691503073,-0.112047621
96838.026255,1.33947203,0.0486228654,1.70834854,0.4053566,0.117507188,-0.231430204
96838.036283,1.47172245,0.1265324,2.04075387,0.489426478,0.302675701,-0.343884037
96838.046312,1.32263795,0.0644607782,2.26189954,0.526578113,0.440549678,-0.482511715
96838.056340,1.05578405,-0.0979989708,2.13128813,0.496819927,0.482093937,-0.628013239
96838.066369,0.750059597,-0.237931392,1.68137637,0.330066635,0.419493652,-0.770111785
96838.076397,0.474230329,-0.626292047,1.43361215,0.0418697326,0.335203028,-0.860895501
96838.086425,0.11423981,-1.09655671,1.53916979,-0.32598658,0.273047245,-0.913032458
96838.096454,-0.395983246,-1.15395019,1.50302997,-0.680157975,0.25468207,-0.948190437
96838.106482,-0.862698695,-0.875347837,1.49075969,-0.927163498,0.305989212,-0.958154426
96838.116511,-0.978791829,-0.38608979,1.78415402,-1.00982167,0.398681468,-0.929644511
96838.126539,-0.771737444,0.0533922717,1.93074685,-0.917060391,0.470296807,-0.858978854
96838.136568,-0.519484392,0.384875585,1.85159031,-0.696323172,0.49808929,-0.750479506
96838.146596,-0.155506959,0.550571978,1.92609815,-0.418110178,0.477671093,-0.592213438
96838.156625,0.222569983,0.48382535,2.14128345,-0.135016979,0.382157094,-0.402821974
96838.166653,0.375504692,0.233160298,2.25579129,0.0686440012,0.221059269,-0.226351873
96838.176682,0.499590213,-0.115358979,2.36688961,0.153881668,-0.00273520326,-0.0875870596
96838.186710,0.666492767,-0.372473353,2.4166219,0.151407062,-0.240070799,0.013220514
96838.196738,0.769937725,-0.420369661,2.49994199,0.139059036,-0.412022048,0.0699186761
96838.206767,0.843215946,-0.0167777545,2.65618177,0.176543041,-0.516573482,0.0848089446
96838.216795,0.823626426,0.466546956,2.65828722,0.249255597,-0.559498304,0.103524311
96838.226824,0.977513723,0.6320696,2.62024069,0.319078906,-0.573565119,0.129726617
96838.236852,1.12885543,0.791084396,2.35892901,0.381093784,-0.560670608,0.163262202
96838.246881,1.19756583,1.01842176,2.13654415,0.465563132,-0.482226693,0.19393064
96838.256909,1.10390562,1.17019112,2.07060014,0.58320479,-0.340954506,0.213426574
96838.266938,0.954619316,1.20309517,2.09174347,0.673137053,-0.177808219,0.215016215
96838.276966,0.778901222,1.13475433,2.05937732,0.672555431,-0.0652747463,0.189396872
96838.286995,0.50543978,0.962436696,1.84459884,0.563851579,-0.0253736704,0.124483927
96838.297023,0.232690029,0.729183674,1.77723386,0.351755067,-0.0565723378,0.032995018
96838.307051,0.141664006,0.281633566,1.95043705,0.130905776,-0.114836441,-0.0484407183
96838.317080,0.165820214,-0.145199807,2.27905467,0.0328604346,-0.156756991,-0.118357496
96838.327108,0.44126271,0.0168616629,2.26231397,0.0667744568,-0.158687794,-0.194512175
96838.337137,0.924517388,0.483254053,2.01237591,0.180935918,-0.084140041,-0.255115585
96838.347165,1.33337401,0.737904595,1.87585148,0.306614234,0.0341591638,-0.292939679
96838.357194,1.45312574,0.867430554,1.66300251,0.39958839,0.155412084,-0.264451043
96838.367222,1.35899214,0.722916138,1.34660724,0.409060969,0.245546765,-0.1585169
96838.377251,1.01322976,0.389905506,1.07630912,0.297154143,0.247041604,0.0110654839
96838.387279,0.537328262,0.0489880819,0.663128713,0.0432659378,0.13491427,0.184660702
96838.397308,0.0320411273,-0.232153211,0.29176559,-0.174553202,-0.0124027442,0.319890453
96838.407336,-0.343502935,-0.388640607,0.316808846,-0.298155026,-0.124321283,0.408650144
96838.417364,-0.380077602,-0.431266026,0.711472765,-0.334445135,-0.179944881,0.473023279
96838.427393,-0.0374116175,-0.540407076,1.01730163,-0.317819015,-0.230493271,0.529748334
96838.437421,0.562591079,-0.661056559,0.914326995,-0.269804344,-0.297268027,0.575894012
96838.447450,1.1488121,-0.559049598,0.38342739,-0.206637369,-0.367088908,0.609761967
96838.457478,1.53422596,-0.278372854,-0.313921253,-0.141225607,-0.428447896,0.614270939
96838.467507,1.58105522,0.314957196,-1.14292878,-0.0641374821,-0.470957005,0.611277832
96838.477535,1.36442001,0.682520415,-1.95416683,-0.0186983617,-0.475201004,0.612705543
96838.487564,1.04912123,0.761575247,-2.24525172,0.0210045753,-0.42280572,0.613298609
96838.497592,0.848009464,0.853083099,-2.23807437,0.0506266495,-0.30476188,0.580917491
96838.507621,0.716318217,0.796387763,-1.83352268,0.076731219,-0.124241398,0.515406444
96838.517649,0.877708291,0.481701125,-1.21718994,0.0912134862,0.0796582092,0.437956645
96838.527677,1.179809,0.16559355,-0.60718173,0.0910278699,0.254492349,0.346209391
96838.537706,1.53817207,-0.119053961,-0.21629616,0.0781187257,0.393105096,0.260472669
96838.547734,1.79784928,-0.31756618,0.0214399981,0.105545028,0.487980462,0.197752266
96838.557763,1.72358212,-0.270407721,-0.343650036,0.155201792,0.508239931,0.15939556
96838.567791,1.25887962,-0.114343372,-1.1311945,0.205978422,0.442856676,0.136875077
96838.577820,0.596010643,0.218450367,-1.9877669,0.297268941,0.350596226,0.108925997
96838.587848,0.010703448,0.393923363,-2.39343737,0.370581224,0.282383091,0.0847418297
96838.597877,-0.336984712,0.250014037,-2.36923992,0.417625978,0.257279611,0.0901983816
96838.607905,-0.474838866,0.112978397,-2.12737996,0.399511411,0.256118483,0.103584229
96838.617934,-0.503464474,-0.0588411005,-1.59889618,0.316989644,0.261649585,0.105824216
96838.627962,-0.378622727,-0.158966029,-1.16822864,0.206691354,0.295595563,0.101465954
96838.637990,-0.0266818415,-0.223454557,-0.571834522,0.108860663,0.369480974,0.106773897
96838.648019,0.382246129,-0.232468798,-0.19843434,-0.00109593231,0.417806691,0.132245972
96838.658047,0.597757888,-0.313702234,-0.252274652,-0.152190373,0.381039894,0.199211418
96838.668076,0.616831641,-0.458590013,-0.670296066,-0.257957266,0.276627726,0.250234409
96838.678104,0.447362196,-0.214781257,-1.23895462,-0.264620767,0.161902747,0.238623275
96838.688133,0.170429498,0.13016619,-1.58587946,-0.192048312,0.0750983421,0.170126243
96838.698161,-0.0559646711,0.441922912,-2.00675159,-0.0877687791,0.0330691327,0.0919957597
96838.708190,-0.332431323,0.484196595,-2.1876617,0.040484271,0.0641269226,0.0281568531
96838.718218,-0.515342105,0.457397764,-2.02585493,0.151568173,0.118843964,-0.00698888411
96838.728247,-0.455202255,0.389692301,-1.96363901,0.225334271,0.154473594,-0.0130278684
96838.738275,-0.289304165,0.290933035,-1.80431471,0.27290447,0.156678147,-0.00330919416
96838.748303,-0.138604723,0.155580306,-1.55728699,0.302531346,0.145063034,-0.0115665916
96838.758332,-0.158735273,0.0639285162,-1.36553458,0.33202879,0.131221793,-0.0259620409
96838.768360,-0.294432249,-0.0926109941,-1.39517043,0.350837096,0.122742294,-0.0482140865
96838.778389,-0.530606309,-0.26415657,-1.52668552,0.346179738,0.101648993,-0.0546179238
96838.788417,-0.747569144,-0.386982903,-1.905724,0.343008473,0.0625324835,-0.0618345562
96838.798446,-1.02648421,-0.466936072,-2.28416685,0.349751576,0.00443402665,-0.0662223857
96838.808474,-1.08069584,-0.558886261,-2.61251676,0.309013202,-0.081252643,-0.0675872575
96838.818503,-1.1173252,-0.681655695,-2.82630272,0.226251735,-0.15265254,-0.0731772195
96838.828531,-1.10703162,-0.680240714,-2.7072964,0.121041692,-0.167271161,-0.0778561394
96838.838560,-0.712996793,-0.62586403,-2.33201815,-0.0260659968,-0.124528752,-0.0811893504
96838.848588,-0.179259225,-0.597151658,-1.84060124,-0.175036312,-0.0581744957,-0.083270074
96838.858616,-0.0510264749,-0.5182191,-1.58305388,-0.300016032,0.012576376,-0.110107542
96838.868645,-0.265484223,-0.390530001,-1.37704616,-0.415922419,0.0792443518,-0.15304649
96838.878673,-0.544240977,-0.379308058,-1.19260729,-0.501078085,0.159421212,-0.201330931
96838.888702,-0.820599748,-0.373367818,-1.02503305,-0.542287544,0.23889207,-0.249948801
96838.898730,-1.0869674,-0.368073949,-0.87062633,-0.541194574,0.28862474,-0.287290023
96838.908759,-1.26392241,-0.540188867,-0.73466537,-0.542020694,0.296204365,-0.304092185
96838.918787,-1.32270456,-0.757276607,-0.504924302,-0.520625428,0.272213823,-0.300680951
96838.928816,-1.27124983,-0.916810386,-0.144435624,-0.449824707,0.262222445,-0.275032566
96838.938844,-1.14208891,-0.981879947,0.333958718,-0.327113436,0.263371593,-0.23223959
96838.948873,-0.989120623,-0.916839831,0.718397011,-0.155923338,0.262887693,-0.171135486
96838.958901,-0.961466235,-0.798828588,1.06774646,0.0165001052,0.26405204,-0.100414441
96838.968929,-0.953862263,-0.657841469,1.49716488,0.12310218,0.233715943,-0.0298004571
96838.978958,-0.952696653,-0.715463784,1.7653558,0.124017506,0.171123139,0.0308455795
96838.988986,-0.906482453,-0.761563637,1.99604963,0.0665084114,0.08034557,0.0668443281
96838.999015,-0.838057809,-0.730449756,2.04993963,-0.0386172095,-0.0129747904,0.0788703699
96839.009043,-0.77765624,-0.73417126,2.1388758,-0.188079939,-0.0923148851,0.0553538528
96839.019072,-0.784220567,-0.654272087,2.1427202,-0.364306078,-0.143417218,0.0108681431
96839.029100,-0.843367752,-0.510606251,2.04102684,-0.537331955,-0.136350521,-0.0326527033
96839.039129,-0.890628685,-0.412349363,2.10809196,-0.645117001,-0.0794720586,-0.0869889121
96839.049157,-1.05584986,-0.11593634,1.93774767,-0.6693355,-0.0160336989,-0.168378846
96839.059186,-1.35942583,0.345707431,1.48675513,-0.617819325,0.00933610729,-0.243299158
96839.069214,-1.60132087,0.628029312,0.923133987,-0.509678201,-0.0170164044,-0.286052988
96839.079242,-1.65577303,0.620896099,0.519063357,-0.356953905,-0.0749177869,-0.305123882
96839.089271,-1.65595335,0.569619354,0.245165751,-0.195582599,-0.156565779,-0.314018862
96839.099300,-1.53059167,0.514987454,-0.0227679769,-0.032256783,-0.233763361,-0.31799017
96839.109329,-1.32592031,0.42525728,-0.140404176,0.148393958,-0.265856826,-0.335459427
96839.119357,-1.20998054,0.369191475,-0.0308460695,0.324766411,-0.250067839,-0.378711776
96839.129386,-1.13281064,0.448359631,0.0554480662,0.466591193,-0.194568374,-0.424386845
96839.139414,-1.0179076,0.513238492,0.160156979,0.583802505,-0.121076592,-0.461697743
96839.149443,-1.0634268,0.609389712,0.204605193,0.638353392,-0.0461719866,-0.480491654
96839.159471,-1.06513733,0.600958532,0.421026761,0.554512008,0.00404883816,-0.423019574
96839.169500,-0.688667823,0.216845306,0.711812957,0.32990153,0.0405964617,-0.282369242
96839.179528,-0.120517853,-0.0820903673,1.07692345,0.0361412754,0.0420268465,-0.097565056
96839.189556,0.0955652584,-0.284713492,0.998062094,-0.252604769,-0.0247372697,0.110676034
96839.199585,0.283905984,-0.465036778,0.382718365,-0.473321722,-0.13649548,0.32229267
96839.209613,0.441217666,-0.631379287,-0.0656461647,-0.560414747,-0.260314905,0.491491034
96839.219642,0.49121628,-0.446406385,-0.568965689,-0.490698294,-0.346787744,0.571969106
96839.229670,0.523219146,0.00710383715,-0.843039235,-0.329084651,-0.366463983,0.547078683
96839.239699,0.573677048,0.357048105,-0.721771401,-0.108242796,-0.314329946,0.439304515
96839.249727,0.749168055,0.739656772,-0.525026009,0.153331011,-0.211239227,0.297257914
96839.259756,0.925844472,0.953836114,-0.426245317,0.371594622,-0.085993969,0.148451372
96839.269784,0.8071017,0.884776095,-0.300972339,0.488147094,0.0360059728,0.0263345193
96839.279813,0.426963076,0.79704462,-0.26784573,0.527833565,0.096693552,-0.0813219037
96839.289841,-0.127712541,0.727805006,-0.631085168,0.465851887,0.0664016966,-0.167192877
96839.299869,-0.706659626,0.444979889,-1.0297554,0.29583384,-0.0257114536,-0.223707558
96839.309898,-1.24920064,0.152251801,-1.17736296,0.0736385873,-0.121616409,-0.264298634
96839.319926,-1.61736453,-0.0602963956,-1.184801,-0.0971099892,-0.163041347,-0.297714667
96839.329955,-1.61047477,-0.116393619,-1.0260583,-0.172041223,-0.129287907,-0.329700277
96839.339983,-1.166082,-0.0993043908,-0.648472356,-0.224643991,-0.0430941741,-0.357766018
96839.350012,-0.518647978,-0.11693927,-0.146536395,-0.290922866,0.0488195036,-0.363473163
96839.360040,0.149203608,-0.309508728,0.213498109,-0.38515164,0.114552981,-0.351171748
96839.370069,0.666372356,-0.27366738,0.446836325,-0.492523626,0.126518032,-0.338423477
96839.380097,0.955547317,-0.195192978,0.475402494,-0.595075265,0.0824360539,-0.341736184
96839.390126,1.05041953,-0.0155560307,0.364359117,-0.684771315,-0.00726879773,-0.361591892
96839.400154,1.03909625,0.20374533,0.0771513639,-0.741970734,-0.114719355,-0.387189941
96839.410182,0.918387069,0.35631022,-0.219128169,-0.734515742,-0.195182496,-0.414621816
96839.420211,0.47287285,0.428446504,-0.277155995,-0.65419908,-0.204957896,-0.441562907
96839.430239,0.138240389,0.41117644,-0.102824679,-0.51930757,-0.150379338,-0.439936237
96839.440268,0.220292028,0.375225567,0.0293485793,-0.374043868,-0.0562741581,-0.424032376
96839.450296,0.362068652,0.474441801,0.252560538,-0.212869347,0.0634546418,-0.396687315
96839.460325,0.395511013,0.466968031,0.447726552,-0.0609352076,0.152562148,-0.345396147
96839.470353,0.351959419,0.275880519,0.476296812,0.0496421671,0.164058751,-0.2859789
96839.480382,0.241582964,0.169225952,0.349535057,0.171478852,0.115158311,-0.240658046
96839.490410,0.0389705978,0.203879186,0.186967245,0.327436759,0.0498988841,-0.222046004
96839.500439,-0.136807756,0.229220475,0.0447267657,0.493619873,-0.0134899422,-0.223183707
96839.510467,-0.201250034,0.138371818,-0.266165814,0.631902142,-0.0738744523,-0.237528295
96839.520495,-0.282872087,0.0902658853,-0.599367841,0.752208575,-0.0943517695,-0.24734524
96839.530524,-0.175111969,0.0469914648,-0.684506962,0.828665539,-0.0657901625,-0.236482741
96839.540552,0.0614470353,-0.0934730178,-0.650044136,0.793779477,-0.0187105361,-0.200332449
96839.550581,0.326444016,-0.135362414,-0.61718816,0.718058868,0.0408843522,-0.146463097
96839.560609,0.518573146,-0.154406612,-0.580966508,0.595507368,0.108805074,-0.0966007273
96839.570638,0.571894548,-0.123529937,-0.447328437,0.443042441,0.154430098,-0.049526957
96839.580666,0.468583519,-0.179414285,-0.440005547,0.311963542,0.180943734,-0.0030020654
96839.590695,0.268289842,-0.254384113,-0.325304817,0.221075176,0.196768231,0.0326470088
96839.600723,0.100023014,-0.257587073,-0.267015709,0.168941124,0.17759586,0.03798212
96839.610752,0.0144377026,-0.321355014,-0.27292581,0.146941288,0.156126789,0.014698102
96839.620780,-0.0560783423,-0.425430123,-0.0146717642,0.157600596,0.166677973,-0.0388170529
96839.630808,-0.0806351481,-0.381745441,0.186253544,0.200768306,0.206592626,-0.105413922
96839.640837,0.0159986683,-0.302843863,0.205536336,0.222420334,0.2509417,-0.160439105
96839.650865,-0.0602267855,-0.403218949,0.156921066,0.158432289,0.279325134,-0.176161871
96839.660894,-0.257745573,-0.582503977,-0.00709168438,-0.0507600689,0.227039314,-0.136594222
96839.670922,-0.457121204,-0.701892647,-0.603667584,-0.332696692,0.0965079282,-0.0220231611
96839.680951,-0.646569753,-0.792929374,-1.26831106,-0.55326362,-0.0645091842,0.138651206
96839.690979,-0.697156396,-0.692142675,-1.84646166,-0.661417798,-0.200737857,0.275983496
96839.701008,-0.616709233,-0.319367457,-2.13635821,-0.672379629,-0.28060075,0.348826035
96839.711036,-0.380575724,0.131214785,-2.14568718,-0.625882999,-0.270486587,0.372643216
96839.721065,-0.0848699179,0.468409755,-1.79914052,-0.508954481,-0.16885049,0.371993645
96839.731093,0.287909301,0.648889364,-1.25594082,-0.356211857,-0.00952023373,0.363074465
96839.741122,0.706380103,0.614794056,-0.617742287,-0.196698637,0.152215413,0.366890772
96839.751150,1.05573313,0.411992944,-0.196151782,-0.0240030205,0.246622345,0.362083777
96839.761179,1.05569601,0.236671448,-0.120898096,0.202227443,0.275682724,0.35314913
96839.771207,0.880704185,0.12941497,-0.17232667,0.440226956,0.240795872,0.365881963
96839.781235,0.626216359,0.0452343189,-0.347531261,0.646761521,0.15829674,0.412939771
96839.791264,0.126480594,0.0187373571,-0.630242872,0.824704333,0.06060985,0.465846105
96839.801292,-0.533330474,0.0481370911,-0.78256577,0.948744818,-0.0422257158,0.498161717
96839.811321,-1.10358418,0.101597865,-0.882424905,0.9747117,-0.154214033,0.51939459
96839.821349,-1.47155861,-0.00210179809,-0.795547416,0.924681052,-0.238160321,0.522966935
96839.831378,-1.54673514,-0.203235817,-0.367713049,0.87533532,-0.249658533,0.474454774
96839.841406,-1.34037758,-0.214774023,0.176610102,0.907739027,-0.176400551,0.355088188
96839.851435,-1.05300616,0.026208789,0.666881344,0.977103218,-0.0590891178,0.212546467
96839.861463,-0.759815536,0.0730604469,1.11002375,1.01542209,0.0376302329,0.0976513092
96839.871492,-0.548327223,0.0299237179,1.31146929,1.03529487,0.074799708,0.00925699698
96839.881520,-0.595600577,0.178128001,1.50076904,1.05408905,0.067103437,-0.0570349406
96839.891549,-0.631180461,0.230619199,1.67423351,0.957091673,-0.00480350958,-0.0713070866
96839.901577,-0.388450147,0.04549655,1.72486889,0.712811395,-0.12425694,-0.0106290934
96839.911605,-0.0707464351,-0.333162027,1.86737357,0.357017293,-0.273939365,0.0931260649
96839.921634,0.199877747,-0.691278971,1.89395879,-0.00597422009,-0.411867165,0.194413259
96839.931662,0.428168068,-0.800641482,1.65726718,-0.335577414,-0.496457392,0.245206668
96839.941691,0.428584577,-0.704858803,1.32599056,-0.585463659,-0.517937654,0.23747152
96839.951719,0.197871887,-0.4882861,0.759598206,-0.720973269,-0.482101911,0.178315787
96839.961748,-0.0887022808,-0.304738847,0.121589641,-0.755054013,-0.399723404,0.0743747492
96839.971776,-0.321553151,-0.249194362,-0.261611804,-0.741501466,-0.295263046,-0.0520319242
96839.981805,-0.361226917,-0.18286954,-0.375716322,-0.679325954,-0.184171134,-0.172941045
96839.991833,-0.238525763,-0.149283113,-0.378335565,-0.577297584,-0.0889878954,-0.270245479
96840.001862,-0.025064652,-0.0824514557,-0.238066094,-0.45894383,-0.0067191209,-0.335138724
96840.011890,0.218762736,-0.0117636378,-0.0137721851,-0.321490631,0.0508051579,-0.355421082
96840.021919,0.308846948,0.004384945,0.182928783,-0.174453513,0.0715413307,-0.344604389
96840.031947,0.270506879,-0.00374779347,0.29929657,-0.0345765734,0.0537972179,-0.317664937
96840.041976,0.299992245,-0.0131284085,0.373655938,0.0733850515,0.0018085871,-0.277066634
96840.052004,0.397659825,-0.141220255,0.432012265,0.125370218,-0.0887253071,-0.224588529
96840.062033,0.428985778,-0.247749168,0.433539036,0.128784656,-0.175335028,-0.151066111
96840.072061,0.473958381,-0.438989314,0.586753914,0.0852385154,-0.21914775,-0.0675576191
96840.082090,0.565501413,-0.533257278,0.843954651,0.00115399646,-0.225380086,-0.00276531109
96840.092118,0.682394685,-0.486297154,1.07374248,-0.117391021,-0.214919188,0.0353756834
96840.102146,0.711391282,-0.41059061,1.18405813,-0.281336294,-0.223955565,0.0418476973
96840.112175,0.602065778,-0.335511878,1.12700119,-0.418560729,-0.231516534,0.0189154845
96840.122203,0.423101944,-0.123014772,1.06681648,-0.539432243,-0.221389928,-0.0104522586
96840.132232,0.355665763,0.0212295941,1.09994251,-0.663466827,-0.194993743,-0.0372330036
96840.142260,0.325414527,0.0679231023,1.1795877,-0.74940385,-0.163780698,-0.0611921336
96840.152289,0.321335222,0.0673226522,1.10404468,-0.729232565,-0.143997931,-0.0842785474
96840.162317,0.43353471,0.157485574,0.669996261,-0.629477696,-0.14821186,-0.121682638
96840.172346,0.358435337,0.202120834,0.136846246,-0.469461725,-0.185078793,-0.202907444
96840.182374,0.0595792321,0.165480043,-0.441068792,-0.321575836,-0.237903931,-0.316686765
96840.192403,-0.249788696,-0.00655278615,-0.784701028,-0.234134928,-0.302667731,-0.441365854
96840.202431,-0.526835851,-0.135083816,-0.92687078,-0.159237252,-0.32757681,-0.577533529
96840.212460,-0.861145035,-0.170351931,-0.734373109,-0.0537720853,-0.285524958,-0.711939261
96840.222488,-1.16054219,0.00306859028,-0.399103628,0.0797247281,-0.193910905,-0.806129442
96840.232517,-1.01199523,0.224976517,0.0810115465,0.182161092,-0.0974112611,-0.807218121
96840.242545,-0.432029834,0.213095196,0.687056117,0.240479781,-0.0401085551,-0.730268763
96840.252574,0.143057507,0.138462126,1.19580293,0.26143299,-0.0197585441,-0.624881313
96840.262602,0.755903647,0.00683689331,1.7468323,0.225518419,-0.0326929811,-0.508339272
96840.272631,1.3047415,-0.155691099,2.06692467,0.099315471,-0.0855487372,-0.392766879
96840.282659,1.51571065,-0.288805839,2.14359874,-0.0679406309,-0.163748198,-0.280459241
96840.292688,1.61105318,-0.383891586,1.94439017,-0.303778217,-0.271056556,-0.164099873
96840.302716,1.64355377,-0.386034626,1.49228646,-0.506278829,-0.357587719,-0.05243113
96840.312745,1.43971871,-0.30762306,1.21095373,-0.616730229,-0.361914032,0.0256144002
96840.322773,1.22806962,0.112672838,1.12064043,-0.60711302,-0.290364736,0.0473170344
96840.332802,1.19436214,0.657814721,0.955228914,-0.468856112,-0.177049899,0.0413731251
96840.342830,1.01409719,1.06341724,0.681505497,-0.269369111,-0.0592420372,0.00524601138
96840.352858,0.583463406,1.30586756,0.447789095,-0.0535931224,0.0231939823,-0.004242032
96840.362887,0.388647667,1.31784617,0.118176033,0.125094607,0.0360895422,0.00959442074
96840.372915,0.278123564,1.17075664,-0.329926047,0.181317656,-0.0272156607,0.0244822901
96840.382944,0.0783255798,0.873882872,-0.635012571,0.0802600226,-0.106949107,0.0206745032
96840.392972,-0.0325068578,0.570689066,-0.626071139,-0.0957719991,-0.149482721,0.00684683753
96840.403001,0.0776365746,0.250571233,-0.450792898,-0.301940636,-0.135886216,-0.0121524196
96840.413029,0.342205576,0.0424278101,-0.199985662,-0.467938379,-0.0879690211,-0.0394013535
96840.423058,0.566717949,0.114721843,-0.284066213,-0.571569399,-0.0375242244,-0.061510117
96840.433086,0.738739673,0.111694385,-0.368782139,-0.597895042,0.021829645,-0.0767892014
96840.443115,0.980962402,0.141136095,-0.213798498,-0.55298932,0.0913290967,-0.0989387121
96840.453143,1.14604775,0.323907249,-0.107821173,-0.456382648,0.167000151,-0.157277377
96840.463172,1.04968128,0.53175293,-0.135718649,-0.356256322,0.227635807,-0.21075073
96840.473200,1.10692154,0.561472215,-0.246955503,-0.295637176,0.258793718,-0.225274549
96840.483229,1.23111015,0.571771126,-0.512577447,-0.279934661,0.244569517,-0.214094595
96840.493257,1.11908032,0.537795645,-0.778312204,-0.322009132,0.195617414,-0.163189606
96840.503286,1.12889094,0.40218189,-0.973886214,-0.387977765,0.12152668,-0.0581337597
96840.513314,1.14059854,0.268646403,-1.1102201,-0.449329273,0.0483190444,0.0938134257
96840.523343,1.2537332,0.24809454,-1.17341919,-0.507468716,-0.0204746678,0.269472047
96840.533371,1.37999548,0.276328701,-1.31044515,-0.498367921,-0.0557498309,0.408895745
96840.543400,1.28104367,0.361580123,-1.30942574,-0.388958887,-0.0388566043,0.467673822
96840.553428,1.19206161,0.420333414,-1.18782298,-0.245606766,0.0110153471,0.455390527
96840.563457,1.24616714,0.438034928,-1.1152353,-0.10494046,0.0864770849,0.389052792
96840.573485,1.28740662,0.474613724,-0.980290236,0.0673111966,0.190414674,0.315385504
96840.583514,1.51436931,0.498252374,-0.682621294,0.241072073,0.302587545,0.279870643
96840.593542,1.78283101,0.404462183,-0.424564817,0.400388463,0.392439402,0.296974524
96840.603571,1.91936568,0.269345418,-0.405381977,0.498494013,0.429984636,0.342140152
96840.613599,1.81997972,0.11120251,-0.523995497,0.570869192,0.40918324,0.385340615
96840.623628,1.53302301,-0.0623176357,-0.721476218,0.656136378,0.364672488,0.390877588
96840.633656,1.02619307,-0.0962319611,-0.824361423,0.757845982,0.327781833,0.349373563
96840.643685,0.592770821,-0.0883164387,-0.769650174,0.812075897,0.311794347,0.285460337
96840.653713,0.411801528,-0.201343902,-0.673064946,0.758466466,0.299013859,0.232679172
96840.663742,0.296305848,-0.437278929,-0.544532674,0.618308826,0.291795886,0.191554113
96840.673770,0.147630842,-0.60712667,-0.369443818,0.440189167,0.287981695,0.16026835
96840.683799,0.085130949,-0.697173217,-0.110927906,0.249813377,0.286600864,0.142501085
96840.693827,0.104624023,-0.849865751,0.213958128,0.0691977805,0.273145235,0.119472182
96840.703856,0.154335491,-0.876670537,0.409366133,-0.0442030812,0.249862022,0.0783316706
96840.713884,0.12908294,-0.813813318,0.474767703,-0.0863204384,0.235235131,0.0271579687
96840.723913,-0.0314795971,-0.802506984,0.505284422,-0.0666711042,0.233525387,-0.0231075987
96840.733941,-0.218033704,-0.668059497,0.415655005,-0.0189262209,0.210257611,-0.0558000367
96840.743970,-0.352434283,-0.379183445,0.0718368909,0.0327169998,0.173923573,-0.0641378548
96840.753998,-0.423868484,-0.176365528,-0.176528798,0.095433115,0.149136743,-0.0312353011
96840.764026,-0.535100844,-0.148750157,-0.123655286,0.154566213,0.122372231,0.0272604998
96840.774055,-0.533665551,-0.264411111,-0.0991953831,0.148601799,0.056300274,0.0941516448
96840.784083,-0.350566443,-0.371831475,-0.146214324,0.0901217079,-0.047550493,0.138780906
96840.794112,-0.197866785,-0.452509524,-0.223750568,0.00497112146,-0.148337552,0.147012471
96840.804140,-0.0210721118,-0.526154825,-0.153737121,-0.0335533665,-0.200075858,0.14039798
96840.814169,0.249431175,-0.50670559,0.0296268117,-0.0381041774,-0.184210339,0.117138988
96840.824197,0.447950043,-0.404536132,0.226111507,-0.0453338595,-0.115308234,0.0934981097
96840.834226,0.536203715,-0.307761665,0.311622383,-0.0228727599,-0.0205915804,0.0710106407
96840.844254,0.50050225,-0.174336361,0.233932994,0.0311705014,0.0641462122,0.0518135119
96840.854283,0.343448708,-0.0436606469,0.0588838858,0.0870124689,0.107140816,0.03286299
96840.864311,0.233483226,0.053136105,-0.140410606,0.134427919,0.117717824,0.022049493
96840.874340,0.403802054,0.125024333,-0.18307369,0.168284684,0.113932407,0.026561952
96840.884368,0.613121169,0.0988277427,-0.179673526,0.152470036,0.0858459164,0.0367096614
96840.894397,0.60944007,-0.0596226245,-0.132849815,0.0948874345,0.0402936105,0.0609191273
96840.904425,0.657049012,-0.196918852,-0.109333331,0.0337071633,-0.00289354346,0.0784075696
96840.914454,0.673882658,-0.171562439,-0.0407391024,0.00701270068,-0.0294079754,0.0865805436
96840.924482,0.620131925,-0.174374428,-0.0637377007,-0.00106147081,-0.0353577408,0.0905004505
96840.934511,0.530824433,-0.18004049,0.00186611358,0.00882551448,-0.0256103083,0.0911574576
96840.944539,0.460809305,-0.146814805,-0.00717527101,0.0398279047,-0.00713702443,0.0958733846
96840.954568,0.420086578,-0.0691932206,-0.087737585,0.0868465519,0.00906058761,0.100542701
96840.964596,0.341927161,0.029540235,-0.113887341,0.142451494,0.0310745452,0.102417565
96840.974625,0.289020587,0.085386808,-0.139527393,0.194445713,0.0375023511,0.104786984
96840.984653,0.206934534,0.123503809,-0.233615544,0.240775122,0.0204836846,0.10111688
96840.994682,0.150099096,0.15666443,-0.309923123,0.278882816,-0.00262376539,0.0791900072
96841.004710,0.0966212245,0.200674983,-0.271785408,0.281536653,-0.0142284903,0.0429502491
96841.014739,0.156149738,0.185458855,-0.152237822,0.254563912,-0.00323096582,0.016485351
96841.024767,0.325578047,0.158785916,-0.0617474037,0.213728591,0.0195539751,-0.00236476974
96841.034796,0.351518178,0.186508693,-0.0369104841,0.190240844,0.0484447469,-0.0297673672
96841.044824,0.310080107,0.309262637,-0.0557712519,0.186128928,0.0727412988,-0.0701326366
96841.054853,0.291295838,0.40474659,-0.168308667,0.182234063,0.0776066248,-0.109644094
96841.064881,0.213534297,0.381412074,-0.174048672,0.185663401,0.0751330842,-0.145109133
96841.074910,0.109149136,0.329135614,-0.0767117486,0.194857179,0.0683295046,-0.152313785
96841.084938,0.176645961,0.19697653,-0.0342386345,0.162234782,0.0637840171,-0.127060891
96841.094967,0.33418199,0.0372776973,0.0657917655,0.105260714,0.0630372678,-0.0735915463
96841.104995,0.375194968,-0.0831975979,0.155580173,0.059099338,0.0536594827,-0.026900205
96841.115024,0.287989399,-0.13336934,0.123999624,0.0390318847,0.0362546582,-0.00175064539
96841.125052,0.129605338,-0.141611464,0.0444602237,0.0402529566,0.023575601,-0.00283434072
96841.135081,-0.0870636833,-0.124299424,-0.00577241847,0.0430988101,0.0187116031,-0.015279025
96841.145109,-0.268943734,-0.132216444,-0.083826549,0.0433579376,0.0327326123,-0.0237936836
96841.155138,-0.381268784,-0.119476862,-0.0892187634,0.0543208374,0.0647219707,-0.0227523904
96841.165166,-0.317191376,-0.168179043,0.0415189095,0.0504832221,0.100914328,-0.00281676387
96841.175195,-0.123558782,-0.259126941,0.223011203,0.0254684175,0.127272433,0.0412521612
96841.185223,0.107768751,-0.34370914,0.307931712,-0.00385697976,0.127470053,0.0927078936
96841.195252,0.25981011,-0.31396052,0.365799963,-0.0250514811,0.118552177,0.134810342
96841.205280,0.291389161,-0.24320557,0.357592107,-0.0261569591,0.0988136296,0.167799457
96841.215309,0.232334494,-0.153672525,0.278558902,-0.0230101691,0.0786771987,0.188263713
96841.225337,0.0527510484,-0.103413287,0.13075962,-0.0339445742,0.0459546734,0.197524591
96841.235366,-0.211141551,-0.0500738749,-0.0431531778,-0.0312065789,0.0237489723,0.195399656
96841.245394,-0.381515416,0.0117465484,-0.0970776603,-0.0298044244,0.0159760032,0.184519573
96841.255423,-0.445120275,0.0246983479,-0.0817281154,-0.0245763743,0.00592044077,0.176836355
96841.265451,-0.465444869,-0.0143947684,-0.206905816,-0.024810466,-0.00358118548,0.160728766
96841.275480,-0.437839105,0.0400022635,-0.191871913,-0.00604423413,-0.022088823,0.135000228
96841.285508,-0.445526737,0.0848307816,-0.183078366,0.0240771817,-0.0415770385,0.100217475
96841.295537,-0.428123255,0.0879003617,-0.152852154,0.0345367482,-0.0508530933,0.0656893242
96841.305565,-0.279078704,0.0699706277,0.031825783,0.040391176,-0.0405405361,0.0339420501
96841.315594,-0.149151617,0.0884437844,0.156700701,0.0448825946,-0.0153068175,0.0100479022
96841.325622,-0.0421629585,0.0427562018,0.215802294,0.0484024948,0.0121972448,-0.00312595645
96841.335651,0.0353885563,0.0147899347,0.230537507,0.0602090871,0.0316276689,-0.00652574764
96841.345679,0.0165051382,-0.00570227027,0.186651019,0.0540883457,0.0390482981,0.00256282214
96841.355708,0.0199003336,-0.018607235,0.136309071,0.0477204612,0.0360929881,0.0220651504
96841.365736,0.00908441366,0.0209040702,0.0591206172,0.0183476573,0.02850964,0.0399022054
96841.375765,-0.0020222877,-0.0136821083,0.0262547049,-0.018178395,0.0286422641,0.0531969693
96841.385793,0.0927504293,-0.0486996274,0.0385039456,-0.0427806759,0.049305464,0.056726991
96841.395822,0.151152368,-0.0121969295,0.108672876,-0.0526034804,0.084826975,0.0420889247
96841.405850,0.0484391217,-0.0526117959,0.151347065,-0.0479309643,0.111020758,0.0237770293
96841.415879,-0.0571825772,-0.0671408912,0.0791451681,-0.0342822643,0.114702581,-0.00449215823
96841.425907,-0.077225705,-0.0166403188,-0.0259676498,-0.0310992533,0.102597712,-0.0189746927
96841.435936,-0.105503285,-0.012645477,-0.0374511668,-0.0354252914,0.0860637416,-0.0255865242
96841.445964,-0.164716667,0.0351223825,-0.0663294708,-0.0376506308,0.0750068341,-0.0167568151
96841.455993,-0.125796743,0.0413308452,-0.0718952882,-0.0436347546,0.0729048018,0.00741057407
96841.466021,-0.0681879097,0.00689461485,0.00557548949,-0.0424248772,0.0849414904,0.0349521887
96841.476050,-0.0809879893,-0.0424969003,0.0494093705,-0.0329916971,0.103070422,0.0604700621
96841.486078,-0.146754593,-0.0678012913,0.0247594979,-0.0168044707,0.118239521,0.0722633366
96841.496107,-0.254918387,-0.0113555833,-0.0523138049,0.0283646053,0.134081072,0.0787473385
96841.506135,-0.36745361,0.0105757145,-0.0978048055,0.0685112318,0.150248325,0.0912615273
96841.516164,-0.42403573,-0.0296183852,-0.0973295892,0.0600610143,0.136591113,0.0736820016
96841.526192,-0.416938794,0.0319067449,-0.252137289,0.035737033,0.0874019851,0.0239021991
96841.536221,-0.457369516,0.101418088,-0.413911321,0.0305467984,0.0271815219,-0.0318585347
96841.546249,-0.4045226,0.100951932,-0.427597901,0.0188099826,-0.030830118,-0.0554541435
96841.556278,-0.317990271,-0.00530578176,-0.305043534,-0.00313499661,-0.0672573681,-0.0408624161
96841.566306,-0.247481149,-0.17742417,-0.0820192073,-0.0241886182,-0.0719373386,-9.66109119e-05
96841.576335,-0.144416021,-0.277407078,0.0311138354,-0.0416642809,-0.0540126684,0.0441028055
96841.586363,0.0046502169,-0.255444033,0.0403522038,-0.0556309605,-0.0288939989,0.065554573
96841.596392,0.0345316655,-0.0921269735,0.00365650413,-0.0475320229,-0.0130125043,0.0666235674
96841.606420,0.0113395037,-0.0268597707,-0.0769893965,-0.0341246063,-0.0103173853,0.0550417405
96841.616449,0.0225070455,2.34139013e-05,-0.0981987732,-0.0272091748,-0.0151709971,0.0506216947
96841.626477,0.0134051721,0.0483676485,-0.160372613,-0.00564955359,-0.0223974838,0.0328709249
96841.636506,-0.0678746243,0.166109098,-0.236519449,0.0266979998,-0.0193103469,0.00889794978
96841.646534,-0.185726887,0.198303139,-0.192870277,0.0400987594,-0.0144077354,-0.00628153624
96841.656563,-0.173595738,0.102576355,-0.122412008,0.0431470154,-0.00709096588,0.00250742801
96841.666591,-0.0883840269,0.0116995674,-0.0372781483,0.0448676823,-0.000771817061,0.00783002174
96841.676620,-0.0734265867,-0.0353884565,0.0366369827,0.0416101022,0.0144092663,0.00394899708
96841.686648,-0.00943933162,-0.0320051343,0.0948284749,0.0259603029,0.0286654354,-0.00481226964
96841.696676,0.00380994842,-0.0698211067,0.144433341,0.00531654481,0.0339478132,-0.00783202814
96841.706705,-0.0136859425,-0.155232432,0.144881084,-0.0197565844,0.0279831317,-0.00906400585
96841.716734,-0.0699654408,-0.194847891,0.148839467,-0.0423122281,0.00690288084,-0.0123980177
96841.726762,-0.120727486,-0.160810962,0.0611401403,-0.0574269974,-0.0117411112,-0.0169613447
96841.736790,-0.179204609,-0.135206675,-0.034840692,-0.0634422758,-0.0281957175,-0.0224029843
96841.746819,-0.214120202,-0.11781861,-0.0750218958,-0.0612068223,-0.0282748129,-0.0267724294
96841.756847,-0.185281043,-0.12182664,-0.0384349171,-0.0613668794,-0.0187825087,-0.0201249134
96841.766876,-0.135822225,-0.132665539,-0.00873828254,-0.0634033913,-0.0158711412,-0.0105918629
96841.776904,-0.161977251,-0.102602884,0.00285687819,-0.0608691322,-0.0145185219,0.000111915006
96841.786933,-0.209863421,-0.133889528,0.0026435277,-0.0510468641,-0.0163944523,0.00699778397
96841.796961,-0.165248126,-0.114832763,0.00113020052,-0.0323815653,-0.0150245224,0.00207013713
96841.806990,-0.148841975,-0.0712733148,-0.0106257037,-0.0058362414,-0.0129624374,-0.016536304
96841.817018,-0.159791723,-0.0655792313,-0.052944504,0.0259387316,-0.00770881924,-0.0371081579
96841.827047,-0.160881327,-0.102092889,-0.0962242583,0.0410582973,-0.00432926755,-0.0437476869
96841.837075,-0.0711030117,-0.165716891,-0.0781409046,0.0304581179,-0.00496230101,-0.0271519322
96841.847104,0.00439710522,-0.276456244,0.0417819444,0.00678048424,-0.0145725851,0.0164237756
96841.857132,0.071917238,-0.374572371,0.134364951,-0.0154585084,-0.0358104977,0.0643529508
96841.867161,0.0999542962,-0.355947458,0.174031775,-0.0450446317,-0.0490509319,0.0924804572
96841.877189,0.108949531,-0.255106801,0.251762665,-0.045851835,-0.0654983531,0.117374628
96841.887218,0.132508695,-0.160879717,0.120463851,-0.0364732453,-0.0638538461,0.0949324358
96841.897246,0.0834107284,0.0484048752,0.0955714022,-0.0434994632,-0.049054661,0.043782695
96841.907275,0.094229708,0.101016668,0.0853171347,-0.0534772621,-0.0281997129,-0.0163032759
96841.917303,0.188385298,0.134804261,0.157959177,-0.0554293589,0.00347991974,-0.064855897
96841.927332,0.218852405,0.0167845426,0.223893831,-0.0656431103,0.0410637808,-0.0841696795
96841.937360,0.249747145,-0.0332601027,0.308982682,-0.0740874642,0.0715585713,-0.0661464717
96841.947389,0.204812244,-0.123725131,0.282254834,-0.0890131527,0.0851606642,-0.032201552
96841.957417,0.0838638425,-0.157987977,0.199643771,-0.104640313,0.0778249864,0.00316229958
96841.967446,0.0232556811,-0.13098829,0.0256310201,-0.134567053,0.0513728772,0.0368041497
96841.977474,-0.01138589,-0.119314292,-0.0777896069,-0.162753419,0.0148375024,0.057440183
96841.987503,-0.0296737624,-0.0996530216,-0.138546566,-0.171283261,-0.0164141591,0.0565150034
96841.997531,-0.0145597251,-0.0714267518,-0.139202984,-0.166550548,-0.0294913455,0.0288572747
96842.007560,-0.0461213316,-0.00299304784,-0.0947705524,-0.137608916,-0.0216424774,-0.0243484203
96842.017588,-0.107774582,0.0799935341,-0.0626002211,-0.102519372,0.00316939491,-0.0687963154
96842.027617,-0.0693565242,0.0960985004,0.000460338438,-0.0568355108,0.0377545346,-0.0908131983
96842.037645,-0.0132347236,0.0660666425,0.0497010469,-0.016481162,0.0728557993,-0.0792742532
96842.047674,0.0336935387,-0.0321807831,0.0915370322,0.0253981101,0.0867833336,-0.0505848203
96842.057702,0.0620897765,-0.117834502,0.0477919985,0.0435214555,0.075611635,-0.0203472871
96842.067731,-0.003646295,-0.146538801,-0.0192976705,0.0351719102,0.0428113443,0.00473409735
96842.077759,-0.0731805897,-0.180253622,-0.100407097,0.0157856969,0.00666585925,0.027546468
96842.087788,-0.140399342,-0.185147422,-0.194658329,-0.00642480001,-0.0250795531,0.0494059611
96842.097816,-0.181338406,-0.184951972,-0.178132726,-0.0174745219,-0.0398577015,0.0615097609
96842.107845,-0.187026114,-0.189752797,-0.145598822,-0.00605195712,-0.0455451469,0.0632610608
96842.117873,-0.156701247,-0.155923994,-0.125125943,0.00878930746,-0.041359191,0.0572204728
96842.127902,-0.0633229203,-0.103117812,-0.0708823118,0.0297661321,-0.0308366093,0.051180872
96842.137930,-0.0612214043,-0.100240795,-0.0707525479,0.0265365178,-0.0172180022,0.0536797185
96842.147959,-0.00352294719,-0.153653382,-0.00541702916,0.0108212047,-0.0036486626,0.0603802305
96842.157987,0.0256903152,-0.161000274,0.0625383167,-0.00143998953,0.0108080412,0.0711583112
96842.168016,0.0153153348,-0.157954221,0.0967895459,-0.00858924536,0.0104133607,0.0830274884
96842.178044,0.00330546493,-0.0966365598,0.0241381511,-0.0253383992,0.00293307366,0.0844264467
96842.188073,-0.0793989345,-0.0750583498,-0.060728582,-0.0403812649,-0.00847431098,0.0686996792
96842.198101,-0.188754363,-0.0377665839,-0.15504645,-0.0326013723,-0.0104266742,0.0471086342
96842.208130,-0.193776977,0.0179163231,-0.104586428,-0.0130718779,0.000166581819,0.0263943028
96842.218158,-0.0300848274,0.0081005931,-0.0618526176,-0.0143547226,0.00480714009,0.0257724513
96842.228187,0.0969696544,0.0163681438,-0.103081869,-0.0156807108,0.00408995046,0.0217875641
96842.238215,-0.00171185178,0.0843086574,-0.0944233463,0.00785710571,0.00177379965,0.00216832368
96842.248244,-0.0269906425,0.102351643,-0.0971922265,0.0144489622,-0.0013958948,-0.0123709367
