t,ax,ay,az,gx,gy,gz
101948.982712,-0.104867757,0.154537943,0.222523392,0.0253475048,-0.0159515217,-0.0114352405
101948.992741,-0.133089935,0.130349624,0.369579162,-0.00351610174,0.00285225967,-0.0187493451
101949.002770,-0.155545841,0.10084263,0.503162288,-0.00457923533,0.0180338752,-0.0251491889
101949.012799,-0.120671,0.103800091,0.363605933,-0.0184037033,0.0357228592,-0.0233534165
101949.022828,-0.0352385962,0.111983398,0.334168242,-0.0215963013,0.0431642607,-0.0206646901
101949.032857,0.00857179432,0.0718215928,0.140242583,-0.0184865277,0.0477153398,-0.0081137456
101949.042886,0.0813432717,0.00701557785,-0.0318581966,-0.00504395692,0.0328357257,0.0043644961
101949.052915,0.116295818,-0.0400785106,-0.229948573,3.7982536e-06,0.00848111697,0.0124964584
101949.062944,0.117290309,-0.026351562,-0.324018604,0.00626302604,-0.0223079547,0.0119920559
101949.072972,0.117590935,-0.00359210621,-0.298737447,0.013666613,-0.0345672853,0.00864366349
101949.083001,0.0850198048,0.0051367053,-0.143010879,0.0265757553,-0.0292987525,0.0113963066
101949.093030,0.0249086697,-0.00688899233,0.01348492,0.0447129458,-0.0187276006,0.0219538771
101949.103059,7.70838242e-06,0.022867227,0.077919106,0.0250705369,-0.0248824321,0.0156978443
101949.113088,-0.056071614,0.0520358922,0.124948568,0.0207468942,-0.0319786929,0.00568782073
101949.123117,-0.0628084479,0.0982343104,0.175432555,0.0174696073,-0.0256848428,0.00543428771
101949.133146,-0.0610882731,0.100467367,0.175408005,0.0238412209,-0.00789466035,0.00597570837
101949.143175,-0.052397419,0.0708847138,0.20820319,0.0198776387,0.00284187333,0.00977311004
101949.153204,-0.0337860593,0.052991074,0.21321605,-0.00107904302,0.000895368925,0.0137537364
101949.163233,-0.0270421746,0.0294980798,0.183064073,-0.0230791494,-0.00447436282,0.0124264173
101949.173262,-0.0150326244,0.0653741337,0.148200849,-0.0252341796,0.00086820469,0.012045851
101949.183291,-0.00392882735,0.0813124747,0.120430214,-0.00916626491,0.0106380107,0.00640927115
101949.193320,0.00979629461,0.0940231955,0.0232300689,0.0175204743,0.0143619087,0.00325449044
101949.203349,0.0350501975,0.0775776721,-0.127040572,0.0361815095,0.000887912116,0.000287196599
101949.213377,0.0688874756,0.0510972596,-0.245840554,0.0440676622,-0.026715219,-0.00763357803
101949.223406,0.0768949871,0.0459720256,-0.202477798,0.0437621996,-0.0420022979,-0.00747511908
101949.233435,0.0732591513,0.000583352846,-0.0350327349,0.0411264673,-0.0380879827,-0.000989789143
101949.243464,0.0456831622,-0.00879172068,0.182075646,0.0232958049,-0.0197278839,0.0110626128
101949.253493,0.0148988784,-0.0290075564,0.363446359,-0.00172326178,-0.00567012234,0.0244995914
101949.263522,-0.0248480255,-0.0244550442,0.398578462,-0.0295911115,-0.00112730183,0.0287923403
101949.273551,-0.0593028144,0.0636365693,0.358087462,-0.0451293252,0.00624912139,0.0251904149
101949.283580,-0.0799987253,0.135622522,0.278477919,-0.0304537099,0.021636866,0.020230012
101949.293609,-0.0439385835,0.182488318,0.15168343,-0.00644211657,0.0316090733,0.0107552838
101949.303638,0.0119893477,0.20646,-0.0473299065,0.00629338576,0.0142633719,-0.00438105874
101949.313667,0.0141158018,0.194138972,-0.178042445,0.0122122606,-0.00447915634,-0.016582597
101949.323696,0.0262699116,0.134368248,-0.202302441,0.0169399045,-0.0172620639,-0.0230660625
101949.333724,0.0322744492,0.104363899,-0.0806587601,0.0187963955,-0.0197052471,-0.0273063481
101949.343753,0.00339369756,0.089071601,0.0861883372,0.0103824027,-0.0121509247,-0.0297159776
101949.353782,-0.0124293465,0.0596356266,0.271447874,-0.000493946543,0.00657908712,-0.0226290375
101949.363811,-0.00302932123,0.0213914919,0.352222369,-0.018065216,0.0247277301,-0.0108501427
101949.373840,0.00580872281,-0.00416607017,0.325585707,-0.0310899373,0.02795415,-7.6324679e-05
101949.383869,0.0334841173,0.0116069973,0.175269473,-0.036617063,0.0209260676,0.00781488791
101949.393898,0.052599627,0.0425725193,0.0131651865,-0.0298510361,0.0144684352,0.00745296385
101949.403927,0.0545219368,0.0712020727,-0.0996019455,-0.0150840748,0.00991789252,0.00405663438
101949.413956,0.0360084116,0.0904075258,-0.140462948,0.00207307446,0.00569331972,7.73388892e-05
101949.423985,0.017504677,0.068481306,-0.150365334,0.0072137746,-0.00430791546,-0.00944718905
101949.434013,-0.0276982273,0.0761544344,-0.0910685104,0.00518178241,-0.0198818147,-0.0216825511
101949.444042,-0.0850812527,0.0741478438,0.038585459,0.00570136542,-0.0137972906,-0.0349874385
101949.454071,-0.106995672,0.0835731132,0.174877259,0.0135856532,0.00475189229,-0.0371310152
101949.464100,-0.0525359507,0.0659588383,0.217338098,0.023811128,0.0223854799,-0.034142416
101949.474129,0.0191099203,0.0388558004,0.119382751,0.0197021365,0.0163678024,-0.0252136365
101949.484158,0.0872736482,-0.0133421871,0.014672084,0.00912565738,-0.00266181538,-0.0127734784
101949.494187,0.104711361,-0.0464844686,-0.0331862303,-0.000791155326,-0.0107682114,0.00162037462
101949.504216,0.0625406639,-0.0638450245,0.0477291349,-0.0138161434,-0.0111786043,0.0124589074
101949.514245,-0.0213301901,-0.0567553219,0.174023857,-0.0274169073,0.0013302631,0.0193852559
101949.524274,-0.0796430072,-0.0592450929,0.273387902,-0.0399665199,0.0128732016,0.0233251378
101949.534303,-0.0970184318,-0.0340011269,0.257214181,-0.0393364169,0.0192096606,0.0186507571
101949.544331,-0.131397489,0.0347851899,0.126811439,-0.0234626457,0.0160056129,0.0051977993
101949.554360,-0.103251664,0.107255419,-0.043190907,-0.000851609046,0.0136899939,-0.00900830142
101949.564389,-0.0560905744,0.120220005,-0.124257663,0.014024009,0.00941508729,-0.0182159133
101949.574418,0.00795245684,0.0969729122,-0.111982704,0.0207056142,0.00340246875,-0.0232080109
101949.584447,0.0385042835,0.0650642641,-0.0884422536,0.014926821,-0.00564615382,-0.0213914681
101949.594476,0.0623189839,-0.0269067116,0.01747662,0.00731177861,-0.00648185331,-0.00864611194
101949.604505,0.0372802947,-0.0808646944,0.087078564,0.000691959111,-0.00739345327,0.00891424064
101949.614534,0.0270511981,-0.0794263687,0.155538352,-0.0181807969,-0.00216913037,0.0238846689
101949.624562,0.00570847731,-0.0758044154,0.251013573,-0.0401705168,0.00345147098,0.0331588611
101949.634591,-0.0233942465,-0.036672465,0.296435016,-0.0583700277,0.0141541827,0.043443989
101949.644620,-0.0374744655,0.0112114952,0.276309342,-0.0580315404,0.0189430788,0.0425947048
101949.654649,-0.025935565,0.0807385839,0.100197573,-0.0435554273,0.0198958404,0.0328107923
101949.664678,-0.00608143881,0.150234766,-0.0695610275,-0.0247367304,0.0136968,0.0181482285
101949.674707,0.0333003217,0.198649435,-0.141364865,-0.00975937862,0.00537016103,-0.000919471495
101949.684736,0.0532446104,0.232429759,-0.158735102,0.00694343401,-0.000994261471,-0.0177109689
101949.694765,0.0493117645,0.208633873,-0.127989251,0.0243434645,-0.00439165626,-0.0285787955
101949.704794,0.0241064499,0.177575887,-0.0556780481,0.0297898948,-0.0106133334,-0.0383962728
101949.714822,-0.0033132162,0.161923012,0.0522808069,0.0219524782,-0.00998349581,-0.0446262062
101949.724851,-0.0190976818,0.116013457,0.184668001,0.00970220286,-0.00184301089,-0.0421987362
101949.734880,-0.0145992014,0.0586788739,0.297586524,0.000289526302,0.0172337443,-0.0317546166
101949.744909,0.0141055726,-0.00589917757,0.287149301,-0.0104408823,0.0327242874,-0.0142078456
101949.754938,0.0504909278,-0.0710309174,0.231091898,-0.0219217688,0.0306012146,0.00345370499
101949.764967,0.067431395,-0.077729319,0.0985305169,-0.0352735296,0.0173557177,0.0159692299
101949.774996,0.090564068,-0.0582243716,0.0246259072,-0.0522623658,0.00732145878,0.0239001252
101949.785025,0.0739592624,-0.0308323241,0.0712234077,-0.0354855172,0.00596564356,0.0196097717
101949.795053,0.0538037056,0.013188677,-0.0454062449,-0.014482229,0.0126967831,0.0183679387
101949.805082,0.0611691563,0.0443684994,-0.073726915,0.00705448817,0.00694542052,0.0105643449
101949.815111,0.0638351972,0.0287413066,-0.162095519,0.0233008359,-0.00421562139,0.00247659115
101949.825140,0.0523963961,0.0464843225,-0.166527364,0.0352594927,-0.0154301915,-0.00157753844
101949.835169,0.0581076864,0.0246815829,-0.0753635763,0.037681371,-0.0153172743,0.00111385155
101949.845198,0.0498710788,-0.0120161626,0.0724959119,0.0321225561,-0.00589740742,0.00780317979
101949.855227,-0.0131992349,-0.0371244831,0.23651743,0.0135478079,0.00583754573,0.0169069301
101949.865256,-0.0502829841,-0.046010056,0.362872358,-0.00866641756,0.0175788905,0.0266319942
101949.875284,-0.0699325642,-0.0525164788,0.368690689,-0.0286294725,0.021345133,0.030573206
101949.885313,-0.0776921654,0.00810319042,0.315891996,-0.0361076295,0.02840757,0.025502814
101949.895342,-0.0522252042,0.0409209893,0.177902744,-0.0273663364,0.0353989005,0.0185948424
101949.905371,-0.0194912112,0.0905719591,0.00616495237,-0.0092499163,0.0303588677,0.00875818916
101949.915400,0.0218235631,0.139196837,-0.177582426,0.00849312823,0.0150787141,-0.00310512818
101949.925429,0.0209719878,0.137785911,-0.262258605,0.0292127877,-0.00249415403,-0.0134962499
101949.935458,0.0128430419,0.137368964,-0.262096108,0.0443203673,-0.0142091326,-0.0194739811
101949.945486,0.042921077,0.115140766,-0.108444008,0.0494663902,-0.00776907708,-0.017142117
101949.955515,0.0313299714,0.072410316,0.0650596244,0.0424146093,-0.00082195492,-0.00892919488
101949.965544,0.0170867804,0.00152037797,0.179071788,0.0207596477,-0.0017295602,0.00411709864
101949.975573,0.0064493588,-0.0384396573,0.20690672,-0.0111285103,-0.00578022841,0.0183213353
101949.985602,-0.022518377,-0.0428442124,0.262874691,-0.0341502093,-0.00173462031,0.0297135394
101949.995631,-0.0409544531,0.0113646764,0.304798939,-0.0431687348,0.0163021702,0.0347322673
101950.005660,-0.061762994,0.0754682422,0.303841493,-0.0424819067,0.0337903537,0.0371589363
101950.015688,-0.0781756746,0.0969006872,0.183246443,-0.0424456894,0.0375283659,0.0325002708
101950.025717,-0.0487133967,0.132780102,0.00533902294,-0.0357283987,0.0256823562,0.0172454175
101950.035746,-0.0399481987,0.163361849,-0.190037419,-0.0170862675,0.0052367365,0.00227632141
101950.045775,-0.0231381529,0.180208391,-0.340849327,0.0150988325,-0.011162743,-0.0170619562
101950.055804,0.0279954567,0.160656353,-0.401969274,0.0465725996,-0.0191932395,-0.0271835662
101950.065833,0.00976546108,0.108702769,-0.355140303,0.0656911731,-0.0260154586,-0.0291263424
101950.075862,0.0245682953,0.0386215167,-0.250240251,0.0647385567,-0.0410109162,-0.0218668319
101950.085890,0.0162609971,-0.00623118601,-0.137569565,0.0473835319,-0.0561728254,-0.010754792
101950.095919,-0.0191828759,-0.0643706923,0.0288280351,0.026548028,-0.0580823123,0.003445982
101950.105948,-0.0609370646,-0.0531079419,0.219233118,0.00503501296,-0.0471585579,0.0185708739
101950.115977,-0.0817062233,-0.0641915729,0.374485639,-0.00794390216,-0.0297510754,0.0331974849
101950.126006,-0.10877145,-0.0407297775,0.375872125,-0.0138952676,-0.0167244896,0.042181395
101950.136035,-0.129478065,-0.00709280781,0.263684839,-0.0199744664,-0.0174651146,0.0413651355
101950.146064,-0.100551903,0.0504919507,0.139705992,-0.0181741696,-0.0247619096,0.0317018554
101950.156092,-0.0676891692,0.0798204096,0.0762076259,-0.0143823605,-0.0297678541,0.018556226
101950.166121,-0.0565995834,0.103382268,0.0961649568,-0.0109753786,-0.0201320034,0.00779705448
101950.176150,-0.0406915279,0.0802531019,0.194001062,-0.00745787565,-0.00572004076,-0.00173253473
101950.186179,-0.0239168822,0.0805894942,0.215554722,-0.000669211615,0.00718883332,-0.00913266093
101950.196208,0.0118477472,0.0654499024,0.152484225,0.00780683057,0.00940431748,-0.0140216909
101950.206237,0.0486813941,0.0420880603,0.0242827929,0.018102346,0.00325907301,-0.0171269365
101950.216265,0.10997772,0.0188609139,-0.0874503199,0.0286122449,-0.00856403075,-0.015326906
101950.226294,0.154733575,-0.0245828353,-0.126577631,0.031934537,-0.0197383873,-0.00186968781
101950.236323,0.196602257,-0.0866090103,-0.0600210457,0.026716074,-0.0230383109,0.0202364139
101950.246352,0.211856854,-0.127718581,0.0699158323,0.00748272473,-0.0284855403,0.0412599407
101950.256381,0.175170579,-0.122819739,0.157513452,-0.0184695143,-0.0303825084,0.0539512336
101950.266410,0.127745615,-0.0351569458,0.279016263,-0.0364168249,-0.0192353167,0.0595752969
101950.276438,0.0747611534,0.0782871356,0.345255453,-0.0393593498,0.00391900446,0.0577310584
101950.286467,0.0508422985,0.177599925,0.320969737,-0.0285535734,0.0181802325,0.0450043455
101950.296496,0.032652781,0.300931998,0.161028766,-0.0202141497,0.013874433,0.0246756375
101950.306525,-0.00946428618,0.368700736,0.034752749,-0.00928107556,0.00126756122,-0.00190510787
101950.316554,-0.00833517255,0.413194797,-0.0430897847,0.0129749617,0.000156224123,-0.0292283408
101950.326583,0.0286618117,0.422858333,-0.0110889648,0.0335289724,0.00902002305,-0.0464603268
101950.336612,0.057076882,0.333282435,0.0940934112,0.0389453061,0.0211805496,-0.0543864258
101950.346640,0.0594387889,0.195996985,0.178005036,0.025348274,0.0275343191,-0.0512513518
101950.356669,0.0256624472,0.0881399461,0.205322082,0.0029550842,0.0220426135,-0.0454557799
101950.366698,0.0221176142,0.00108648006,0.19374621,-0.0208746139,0.0196827874,-0.0339442678
101950.376727,-0.0118324035,-0.0484230355,0.2320926,-0.0343824364,0.0293726996,-0.0226689763
101950.386756,-0.0283515767,-0.0760734416,0.249430688,-0.0365028456,0.0429284573,-0.00817924924
101950.396784,0.0102076519,-0.0758400712,0.183380299,-0.0413119793,0.0463548787,0.00183956325
101950.406813,0.0394718864,-0.0560136002,0.0226221662,-0.0364786088,0.0386026837,0.00783274136
101950.416842,0.0597544307,-0.0474656251,-0.17100714,-0.0228970181,0.0140781645,0.00664257444
101950.426871,0.0517388089,0.018607816,-0.315647081,-0.00629300904,-0.00639009196,-0.00285186153
101950.436900,0.0198498519,0.071373776,-0.256327462,0.00754903676,-0.0138916839,-0.0151098594
101950.446929,-0.0448359707,0.0806653725,-0.0684118574,0.02036044,-0.000893327524,-0.0226210393
101950.456957,-0.0973859134,0.0283680894,0.14675065,0.0238417238,0.0158430412,-0.0286379196
101950.466986,-0.123443644,-0.0137362644,0.30095337,0.00857488718,0.0252386741,-0.0311237127
101950.477015,-0.153542575,-0.0309198928,0.379805373,-0.0195808504,0.0350209996,-0.0360833183
101950.487044,-0.143480469,0.0137085727,0.448078699,-0.0370410681,0.0558961853,-0.0376708284
101950.497073,-0.0948345484,0.0333089068,0.395771588,-0.0289266817,0.0781881735,-0.0346332267
101950.507102,-0.0209288428,0.0339912265,0.161396431,-0.0247780103,0.078358084,-0.0342207029
101950.517130,0.0363810808,0.0354079615,-0.0944715969,-0.0191371683,0.0556048378,-0.0341155082
101950.527159,0.0634518604,-0.00877571939,-0.313138313,0.00529626897,0.0238397159,-0.0281119458
101950.537188,0.0940179713,-0.0498271301,-0.485248446,0.0376384929,-0.00156684115,-0.0159681961
101950.547217,0.139908675,-0.0917198505,-0.517892824,0.0609403551,-0.0265054796,0.000902662985
101950.557246,0.141124262,-0.132015949,-0.370612597,0.0551799387,-0.0385379083,0.0194651634
101950.567275,0.0771667532,-0.159056809,-0.122767132,0.0353420526,-0.0533605292,0.0420735367
101950.577303,0.00132153093,-0.163217216,0.067186115,0.0116364574,-0.0587222688,0.0583590306
101950.587332,-0.103456539,-0.0649292395,0.23827801,-0.00912101939,-0.0611534677,0.0594123118
101950.597361,-0.195387548,0.122413752,0.359753349,-0.0190325063,-0.0513437167,0.0469788127
101950.607390,-0.251990127,0.272819418,0.488465654,-0.0189065374,-0.0248244926,0.0260690022
101950.617419,-0.310591076,0.347832135,0.574938653,-0.00924032927,0.00568121811,-0.00366572384
101950.627447,-0.370568356,0.366445431,0.488388497,-0.00309428619,0.0238762014,-0.0345160477
101950.637476,-0.364790503,0.321708683,0.371805022,0.0055599222,0.0326297469,-0.0694937408
101950.647505,-0.340367973,0.231207816,0.242388368,0.0238608997,0.0367049165,-0.0986423045
101950.657534,-0.255674478,0.0895586904,0.147128836,0.0393529236,0.0377120338,-0.109509259
101950.667563,-0.171828539,-0.106775198,0.0895522606,0.0404677242,0.0316344351,-0.105231419
101950.677592,-0.128114302,-0.238459979,0.0431242715,0.0366599374,0.0140847368,-0.0996259972
101950.687620,-0.108992034,-0.285894917,-0.0572165097,0.0451338477,-0.0038881381,-0.0842406526
101950.697649,-0.108762609,-0.335121999,-0.149928696,0.0638460144,-0.010396638,-0.0588615239
101950.707678,-0.0388539372,-0.419889071,-0.192698747,0.0667786896,-0.020715056,-0.0221666303
101950.717707,0.0262651989,-0.4453766,-0.153207863,0.0476124547,-0.0319874175,0.020342214
101950.727736,0.0705290688,-0.443816803,-0.0678150606,0.00951593369,-0.0532647409,0.0654708073
101950.737764,0.0859822567,-0.364970098,0.0358399597,-0.0260327384,-0.0640611947,0.0993030742
101950.747793,-0.0278220729,-0.21357491,0.140701433,-0.042194929,-0.0593711063,0.117633082
101950.757822,-0.128711428,-0.0458602723,0.235487503,-0.0422641747,-0.0393222943,0.117582485
101950.767851,-0.258848212,0.113588641,0.270424376,-0.0335705504,-0.017341895,0.0977664366
101950.777880,-0.301743315,0.233805322,0.176827809,-0.0228188355,-0.00898702629,0.0698029771
101950.787909,-0.27448494,0.302720562,0.0324169995,-0.0121520767,-0.00746529596,0.0343317986
101950.797937,-0.25739984,0.334486002,-0.0770341398,0.000570642238,-0.00836224854,0.00312354555
101950.807966,-0.213228252,0.299637465,-0.0722433984,0.0111841382,-0.00285935868,-0.0195242427
101950.817995,-0.169572175,0.223526285,-0.000479892471,0.00924003031,0.00347177405,-0.0329979733
101950.828024,-0.167330022,0.135354775,0.0732417618,-0.00612214766,0.010969637,-0.043475382
101950.838053,-0.184433352,0.0770474012,0.125288175,-0.0127680665,0.0207785927,-0.0444863141
101950.848081,-0.178633689,0.0119152961,0.0451344422,0.000212713436,0.0224436,-0.0428154469
101950.858110,-0.156523856,-0.035950142,-0.122601128,0.0101548266,0.0145318815,-0.0390697122
101950.868139,-0.0945707098,-0.110258876,-0.258152339,0.0197462011,-0.00091312069,-0.0304706339
101950.878168,-0.0506506118,-0.172371852,-0.328697701,0.0209097359,-0.0149280056,-0.0137337316
101950.888197,0.00246836287,-0.235865323,-0.308653861,0.0201209076,-0.0234053805,0.0061278576
101950.898225,0.0179889169,-0.270781738,-0.244234873,0.0108230133,-0.03222657,0.022526538
101950.908254,-0.0260112241,-0.243378402,-0.150073073,-0.00361584686,-0.0395907424,0.0330889001
101950.918283,-0.0898937675,-0.168834764,-0.0390688586,-0.0137534356,-0.0397145785,0.0334492251
101950.928312,-0.158137685,-0.0428860788,-0.00500350738,-0.00294712721,-0.0311503857,0.0278746989
101950.938341,-0.191318435,0.0334830578,-0.00968961937,0.0162875541,-0.0197480619,0.0136291832
101950.948369,-0.209284665,0.0823319905,-0.0266255566,0.0293788537,-0.0198298208,0.0013978174
101950.958398,-0.193422896,0.0902200769,-0.0657183806,0.0337815918,-0.0341685452,-0.0125044156
101950.968427,-0.216173767,0.102336741,-0.0815472334,0.0400429517,-0.0538801998,-0.0277158599
101950.978456,-0.247539833,0.147159048,-0.0183820444,0.0614659525,-0.0606512874,-0.0471265763
101950.988485,-0.310003084,0.174938378,0.143745039,0.0741111711,-0.0550911389,-0.0604277328
101950.998513,-0.393247184,0.147789784,0.456494645,0.062097121,-0.0380074941,-0.0653620362
101951.008542,-0.47704501,0.0599039952,0.778079299,0.0279231705,-0.00820139423,-0.0687016398
101951.018571,-0.562932647,-0.0363010013,1.03713589,-0.00807317998,0.0291081611,-0.0714825094
101951.028600,-0.667008742,-0.130772452,1.07833183,-0.0365530252,0.0617473312,-0.0800799951
101951.038628,-0.7455169,-0.198217474,0.949759808,-0.0421304815,0.0880316719,-0.0918972418
101951.048657,-0.772216033,-0.253195082,0.722432231,-0.0269067883,0.101708598,-0.105253793
101951.058686,-0.818316325,-0.341017194,0.46579205,-0.0311036631,0.117583968,-0.120062307
101951.068715,-0.880220992,-0.479184579,0.391076708,-0.0375570357,0.125109524,-0.145445958
101951.078744,-0.994929614,-0.510288486,0.149912914,-0.0407405794,0.140500203,-0.157985449
101951.088772,-1.00049017,-0.682928634,-0.0771627347,-0.0311468076,0.144774303,-0.155111894
101951.098801,-0.895598959,-0.749222769,-0.49829965,-0.0102585694,0.101735227,-0.15634574
101951.108830,-0.88133078,-0.644084086,-1.03296708,0.0248117987,0.0336480513,-0.145264328
101951.118859,-0.828916337,-0.692425946,-1.34193717,0.0775035024,-0.0360324942,-0.105491079
101951.128888,-0.707430111,-0.688621147,-1.34246032,0.101916969,-0.101916164,-0.055097416
101951.138916,-0.690431776,-0.655616703,-0.956454337,0.0875974149,-0.149323896,-0.0110918749
101951.148945,-0.762991912,-0.584478087,-0.377236984,0.0482830368,-0.164398447,0.0292773861
101951.158974,-0.883046863,-0.515669339,0.228066997,-0.00432557939,-0.139131173,0.0597655177
101951.169003,-1.01649986,-0.44108325,0.743170483,-0.0454740822,-0.0859350637,0.0790971443
101951.179032,-1.10548762,-0.385061247,0.89614746,-0.0750570074,-0.0294853766,0.0757732466
101951.189060,-1.14147261,-0.310603278,0.783670251,-0.111778542,-0.0166785028,0.037134245
101951.199089,-1.21231564,-0.229056081,0.537504702,-0.125271976,-0.00731589226,-0.00838210993
101951.209118,-1.16012777,-0.210646966,0.317528073,-0.0924562439,0.0123443613,-0.0595267862
101951.219147,-1.06867494,-0.215909673,0.0554115061,-0.0242417622,0.027850084,-0.104776017
101951.229175,-0.917579394,-0.264652076,-0.258712896,0.0300907176,0.0246090163,-0.140750006
101951.239204,-0.736014766,-0.422439815,-0.475686836,0.0503238179,0.00197134889,-0.154113472
101951.249233,-0.572529839,-0.637900794,-0.468719336,0.0528982952,-0.0260000993,-0.155064225
101951.259262,-0.496117886,-0.682899116,-0.469332499,0.0687180012,-0.0218117442,-0.115749307
101951.269291,-0.308608999,-0.945336146,-0.335934667,0.0676122531,-0.0312875398,-0.0566660166
101951.279319,-0.278498121,-1.02221758,-0.247471955,0.0394346826,-0.0385885946,0.0130941551
101951.289348,-0.246971056,-1.10116384,-0.094328389,-0.00745479343,-0.0663741454,0.0808417797
101951.299377,-0.307378179,-1.03119978,-0.0704360568,-0.0401938297,-0.0831049234,0.142528847
101951.309406,-0.376582283,-0.888154635,0.00149754508,-0.0424830839,-0.0890174061,0.185103476
101951.319434,-0.495129277,-0.670918901,0.0165367088,-0.0384364128,-0.0852535665,0.202923745
101951.329463,-0.591537212,-0.477440293,0.112983405,-0.0477737188,-0.0860485211,0.199122876
101951.339492,-0.663016311,-0.236002284,0.198985864,-0.0471851602,-0.0870551914,0.175007686
101951.349521,-0.703866135,-0.0563405306,0.250329098,-0.0274063982,-0.0746933296,0.137609452
101951.359549,-0.770713008,0.0801931519,0.332580096,0.00217066938,-0.0595729724,0.0857973918
101951.369578,-0.874575826,0.187890251,0.367150474,0.0340638869,-0.0433026552,0.025256278
101951.379607,-0.924522564,0.197196387,0.397867099,0.0614995062,-0.02267088,-0.0253256727
101951.389636,-0.961540993,0.0963564242,0.479591443,0.0638113916,-0.00640535774,-0.0734375417
101951.399665,-0.967185721,0.0415418246,0.561564792,0.0557566658,0.00632721512,-0.112323955
101951.409693,-0.96174163,-0.0415745213,0.626591684,0.0478111245,0.0300844759,-0.138514012
101951.419722,-0.960730188,-0.166603717,0.709628863,0.0399646536,0.0565712117,-0.151652709
101951.429751,-0.992392058,-0.2478413,0.679583269,0.039023757,0.0824470222,-0.159041658
101951.439780,-1.02452819,-0.351764798,0.535860442,0.0388671644,0.0957569629,-0.159255505
101951.449808,-1.06368656,-0.492724736,0.335836467,0.0386538468,0.0939561352,-0.151557371
101951.459837,-1.08820353,-0.648752078,0.168316585,0.0380596928,0.0800496414,-0.132780224
101951.469866,-1.14736993,-0.797087878,0.110895493,0.0195414033,0.0691834092,-0.105859131
101951.479895,-1.19521209,-0.946221551,0.197167417,-0.00462491857,0.055603683,-0.0701570585
101951.489923,-1.22613432,-1.02186745,0.244558698,-0.0207322501,0.0463286936,-0.0380795524
101951.499952,-1.29605936,-0.970465984,0.210631878,-0.0226100441,0.0419576466,-0.012451686
101951.509981,-1.37088416,-0.913095672,0.184636436,-0.0194496717,0.0399887711,0.00649430882
101951.520010,-1.45795439,-0.824630622,0.219385094,-0.0153710395,0.0346882828,0.00908396672
101951.530038,-1.55512516,-0.715705553,0.22492227,-0.0479835793,0.0260242205,-0.00691737048
101951.540067,-1.71971951,-0.698646574,0.422184379,-0.0794925019,0.0408047661,-0.0311942156
101951.550096,-1.83159671,-0.696007604,0.540650015,-0.0765947178,0.0799995735,-0.0541136414
101951.560125,-1.8956739,-0.731682436,0.499932804,-0.0599547513,0.106337972,-0.0921113566
101951.570154,-1.98998519,-0.781181795,0.393734529,-0.0485479012,0.131762907,-0.131839067
101951.580182,-2.03406633,-0.845132509,0.184494398,-0.0160623956,0.141229913,-0.154825076
101951.590211,-2.03189658,-1.03854649,-0.0844762725,0.0126211802,0.125710607,-0.175678954
101951.600240,-2.07050571,-1.13973739,-0.274127322,0.0278922785,0.0989503637,-0.192431033
101951.610269,-2.1170018,-1.22855366,-0.282535085,0.0388312116,0.0912980363,-0.19633843
101951.620297,-2.15885123,-1.37181311,-0.0713175158,0.040963605,0.0936301649,-0.19721061
101951.630326,-2.31069029,-1.38664813,0.0424544094,0.0262776036,0.111007825,-0.18239145
101951.640355,-2.3938736,-1.5429031,0.233287362,-0.00117905461,0.124460779,-0.172583833
101951.650384,-2.56387843,-1.61994835,0.194566879,-0.0145068439,0.144828111,-0.157412603
101951.660412,-2.59879864,-1.74041612,0.0782733262,-0.0225491151,0.147935078,-0.138254315
101951.670441,-2.6302883,-1.85956477,-0.155751703,-0.0210726578,0.134365484,-0.115309864
101951.680470,-2.58556887,-1.96704066,-0.361218746,-0.0217171423,0.103776142,-0.0915858895
101951.690499,-2.56111013,-1.94874557,-0.501330396,-0.018218549,0.0645022392,-0.0693940371
101951.700527,-2.6000048,-1.88446847,-0.448223075,-0.0141641507,0.0473413579,-0.0544153526
101951.710556,-2.6651071,-1.86613728,-0.272857741,-0.00604523858,0.0514780469,-0.0278583076
101951.720585,-2.71014013,-1.91192712,-0.140499189,0.00228353124,0.0480814502,-0.0110806599
101951.730614,-2.6844349,-1.89457646,-0.0335375279,-0.0180552974,0.048192773,0.00833964348
101951.740642,-2.68749779,-1.88461387,0.122653151,-0.0446450934,0.0449477099,0.0209425204
101951.750671,-2.7172029,-1.83763511,0.212308872,-0.0543592386,0.0599346496,0.0324297994
101951.760700,-2.68267783,-1.75915384,0.270408009,-0.0523818433,0.0793610811,0.0363481082
101951.770729,-2.7616669,-1.68917386,0.213600665,-0.0442139283,0.085243471,0.0247886572
101951.780757,-2.80917888,-1.61265352,0.0685562344,-0.0401392914,0.0917700827,0.0125237349
101951.790786,-2.83999839,-1.60392587,0.00263853181,-0.0398934819,0.0915660784,-0.00132416934
101951.800815,-2.89041632,-1.60892149,-0.0900853446,-0.0314083844,0.0897990763,-0.0112343244
101951.810843,-2.86158653,-1.61360307,-0.179703072,-0.0204039384,0.0852506608,-0.0143398363
101951.820872,-2.87656023,-1.67465244,-0.243604174,-0.00913663581,0.0792960972,-0.0118031763
101951.830902,-2.90998553,-1.67749994,-0.272324072,-0.00650649844,0.0720837265,-0.0054110568
101951.840931,-2.94447817,-1.7103318,-0.246344997,-0.0200555976,0.0646982491,-0.00208743103
101951.850959,-2.95687266,-1.71342173,-0.241070271,-0.022756042,0.060369011,0.0140800867
101951.860988,-2.94814546,-1.71766156,-0.292895151,-0.0255643465,0.0514727198,0.0212586373
101951.871017,-2.93244315,-1.62533706,-0.420181222,-0.0198047273,0.027679773,0.0210434534
101951.881046,-2.91883373,-1.49524148,-0.561003067,-0.0219464414,0.000347218825,0.0104267625
101951.891074,-2.87979936,-1.39611724,-0.534648144,-0.0181274675,-0.0153941941,0.00391613273
101951.901103,-2.82779824,-1.32765175,-0.466346177,0.00167286838,-0.0234433319,-0.00552690402
101951.911132,-2.76907162,-1.27902976,-0.438636332,0.0197520033,-0.0282181129,-0.0112926476
101951.921161,-2.70680484,-1.29500737,-0.361864642,0.0205901004,-0.0328605361,-0.00716155209
101951.931189,-2.60057384,-1.38529218,-0.264186358,0.00840374175,-0.0468711592,-0.00767287984
101951.941218,-2.56580267,-1.38583623,-0.242908593,-0.0066689509,-0.0670810863,-0.00628590491
101951.951247,-2.55704157,-1.35112396,-0.263026667,-0.00612193765,-0.0841420963,-0.0177918263
101951.961276,-2.58743349,-1.30177745,-0.256918998,0.0116639836,-0.0894348621,-0.0284596514
101951.971304,-2.61309225,-1.2761279,-0.1732254,0.0160328988,-0.0846611485,-0.0400843471
101951.981333,-2.60488264,-1.24246177,-0.0359516033,0.00369527284,-0.0893293992,-0.0575634763
101951.991362,-2.58968098,-1.19737592,0.0355541285,-0.00581700588,-0.0872803628,-0.0747400671
101952.001390,-2.52454595,-1.19777515,0.0267781168,0.0022742101,-0.0727597475,-0.0870521218
101952.011419,-2.45152923,-1.22694009,-0.0219832837,0.0174076222,-0.0606615394,-0.0973428488
101952.021448,-2.3735923,-1.25343939,-0.0972878233,0.0175426453,-0.0672501996,-0.111891165
101952.031477,-2.34849351,-1.30219173,-0.187779995,0.0235579275,-0.083501339,-0.132617474
101952.041505,-2.37775468,-1.36081021,-0.244870248,0.0433089957,-0.0932399854,-0.152023926
101952.051534,-2.35327431,-1.40907009,-0.248421219,0.0682023615,-0.10539332,-0.165457174
101952.061563,-2.39622805,-1.4526351,-0.189784905,0.0889726207,-0.107359797,-0.178941026
101952.071592,-2.40683405,-1.48575162,-0.0661398209,0.0995136797,-0.109826952,-0.175730854
101952.081620,-2.39849994,-1.60914302,0.0999298623,0.0969192311,-0.101588726,-0.15945068
101952.091649,-2.33394023,-1.75136392,0.28977322,0.0833075419,-0.100883521,-0.134656921
101952.101678,-2.30125903,-1.86438824,0.350281757,0.0605103523,-0.105658308,-0.100238234
101952.111706,-2.27316047,-1.996756,0.349454074,0.0392591283,-0.118824974,-0.062112689
101952.121735,-2.25750303,-2.03957574,0.334848041,0.033444114,-0.12063539,-0.0215250459
101952.131764,-2.26563841,-2.07874996,0.314758023,0.0478592739,-0.10815981,0.0193542112
101952.141793,-2.31816208,-2.09219513,0.326354938,0.032962881,-0.119873725,0.0329467207
101952.151821,-2.43136702,-2.00195985,0.434150711,0.0206188615,-0.120316081,0.0396930389
101952.161850,-2.42006822,-1.98313606,0.494995933,0.0114642465,-0.118202597,0.0370245501
101952.171879,-2.45496885,-1.89538105,0.486344424,0.0241278429,-0.107468724,0.0376163051
101952.181907,-2.36119356,-1.84832894,0.423640423,0.044388108,-0.098644875,0.0419410095
101952.191936,-2.26351762,-1.79949389,0.306847104,0.0442344435,-0.10600958,0.0448134989
101952.201965,-2.16713799,-1.71484197,0.235716635,0.047986839,-0.108478062,0.056325011
101952.211994,-2.09709854,-1.73130386,0.32176761,0.0522875786,-0.093642123,0.0815557986
101952.222022,-2.07338331,-1.78513424,0.382632121,0.0435593352,-0.0932751372,0.108423896
101952.232051,-2.06289977,-1.74996238,0.391855292,0.0162885617,-0.109031469,0.125873998
101952.242080,-2.06700501,-1.71963578,0.452933737,-0.0113252215,-0.116587117,0.144010931
101952.252109,-2.09288194,-1.6213059,0.471579986,-0.0134914368,-0.105394654,0.150590003
101952.262137,-2.10331142,-1.48337846,0.421152113,-0.00715124933,-0.0978059769,0.147443473
101952.272166,-2.06461782,-1.34354607,0.242409411,-0.000966856838,-0.0951880887,0.136016384
101952.282195,-1.99986916,-1.21707526,0.114369891,-0.000436088827,-0.0955998152,0.106248096
101952.292223,-1.9902681,-1.06142599,0.0606242723,0.00364706945,-0.0707136393,0.0792407095
101952.302252,-1.93212469,-0.978415263,0.0609019202,0.00501060812,-0.0542795397,0.0418408811
101952.312281,-1.88498475,-0.847770383,-0.122772393,0.0074535259,-0.0540774092,-0.00834612548
101952.322309,-1.74331491,-0.719739704,-0.346882177,0.0147732245,-0.055156786,-0.0515295491
101952.332338,-1.60670454,-0.705541594,-0.588087473,0.0324366428,-0.0668208972,-0.0877187178
101952.342367,-1.46082454,-0.73925594,-0.827404763,0.0487548932,-0.0771638155,-0.0983311459
101952.352396,-1.22668144,-0.809807586,-0.975937621,0.0694204941,-0.101019613,-0.0958011448
101952.362424,-1.0860462,-0.82987846,-1.20406716,0.0908999518,-0.143519938,-0.0879658535
101952.372453,-0.995407095,-0.881865179,-1.29191379,0.102525182,-0.182468399,-0.0631973892
101952.382482,-0.955844535,-0.995173579,-1.03297819,0.0935018584,-0.210466206,-0.0357774869
101952.392510,-0.998168815,-1.02724301,-0.583250555,0.0681589544,-0.223640069,-0.00757966936
101952.402539,-1.03277156,-1.05388435,-0.118849667,0.0324768536,-0.216954738,0.020243708
101952.412568,-1.06039694,-1.06061862,0.356644277,-0.0197085869,-0.195031062,0.0512711331
101952.422597,-0.98377226,-1.03778289,0.589488572,-0.0657732859,-0.178145558,0.0710648075
101952.432625,-0.944428384,-0.932085693,0.618058833,-0.0958899036,-0.153373897,0.0801424608
101952.442654,-0.952551631,-0.826274152,0.681674104,-0.116545916,-0.112417944,0.0849686414
101952.452683,-0.945239992,-0.767456198,0.741502257,-0.130373582,-0.0779281408,0.0702488199
101952.462711,-0.960595236,-0.647975029,0.752632723,-0.128409237,-0.052427046,0.0413082466
101952.472740,-0.908226313,-0.55643543,0.647341042,-0.10847947,-0.0249506813,0.014459854
101952.482769,-0.814022427,-0.645992842,0.472652583,-0.0714543387,0.00426100008,0.0137530509
101952.492798,-0.712564478,-0.883462458,0.409641124,-0.0440988801,0.0211731382,0.026088547
101952.502826,-0.720255325,-1.10010088,0.408004462,-0.0412596837,0.0202644672,0.0256917346
101952.512855,-0.88458401,-1.10677247,0.529658081,-0.0386886671,0.0310814288,0.0219494626
101952.522884,-1.02977859,-1.19878922,0.744172938,-0.0301953163,0.0471014082,0.0165586919
101952.532912,-1.21580809,-1.31414301,0.89838501,-0.0121420128,0.0836495683,0.0209699497
101952.542941,-1.29391095,-1.46353862,1.00032797,-0.000621444837,0.108425491,0.0306907557
101952.552970,-1.34131962,-1.54917795,1.02211894,-0.00399780041,0.127000242,0.0495254323
101952.562998,-1.40097432,-1.64538762,1.05466629,-0.0154959979,0.137249678,0.0789427012
101952.573027,-1.43710493,-1.71884536,0.999282256,-0.0388532504,0.138981268,0.113535039
101952.583056,-1.4432316,-1.70005298,0.875202872,-0.0592562594,0.124211907,0.144490033
101952.593085,-1.47849332,-1.58649119,0.705857528,-0.0580866002,0.117085025,0.174380019
101952.603113,-1.49563852,-1.49340535,0.581069119,-0.0419158861,0.101882637,0.212909028
101952.613142,-1.45789404,-1.38502798,0.492482488,-0.0286221877,0.0726922601,0.252009302
101952.623171,-1.42117569,-1.25741808,0.424221438,-0.0311878771,0.0218855329,0.274320453
101952.633199,-1.45696728,-1.10375707,0.354784329,-0.022551246,-0.0197247602,0.283710241
101952.643228,-1.46076039,-0.948783583,0.426027026,0.00518637663,-0.031596601,0.290974289
101952.653257,-1.51535035,-0.804701495,0.62518357,0.0255206767,-0.0161715709,0.282661498
101952.663285,-1.6091534,-0.603944091,0.870673996,0.013010785,-0.00765850535,0.239296257
101952.673314,-1.74943982,-0.32764063,1.02235158,0.00149527704,0.0150742372,0.177983359
101952.683343,-1.7708909,-0.140215768,1.07549397,0.00387347979,0.0550568067,0.117178865
101952.693372,-1.68125973,-0.019547581,1.01463765,-0.00679407828,0.0795333907,0.0518203676
101952.703400,-1.61763467,0.0853443606,0.765372378,-0.0152671915,0.0924063101,-0.00937401317
101952.713429,-1.45007138,0.028261268,0.386782811,-0.0070345616,0.098675929,-0.0556245968
101952.723458,-1.26939508,0.00909636618,-0.0229191033,0.0220642015,0.112646334,-0.0840213522
101952.733486,-1.07207861,-0.0765843502,-0.463386158,0.0720386878,0.0879790708,-0.0948604196
101952.743515,-0.854187045,-0.226224365,-0.848102683,0.0883164629,0.0554413646,-0.0869321898
101952.753544,-0.678957246,-0.369172627,-0.944146644,0.0883161947,-0.0172378942,-0.0748164058
101952.763572,-0.654127487,-0.460696261,-0.992899277,0.0857670158,-0.0780197531,-0.062285699
101952.773601,-0.721900462,-0.574072757,-0.70913728,0.0878903568,-0.106724896,-0.0410376638
101952.783630,-0.841418237,-0.687209672,-0.280475815,0.0797152519,-0.11035239,-0.0249644239
101952.793658,-0.979403836,-0.684952687,0.133145319,0.0525728427,-0.0990153104,-0.0254027788
101952.803687,-1.11599593,-0.596748298,0.45365796,0.0159280114,-0.0700550377,-0.0456691682
101952.813716,-1.19560255,-0.526026227,0.647864773,-0.00387605233,-0.0140357111,-0.0718608275
101952.823744,-1.15623734,-0.492507184,0.692582451,-0.00621617213,0.0439197309,-0.0934444144
101952.833772,-0.997011462,-0.573337465,0.494555203,-0.0134378662,0.0916411877,-0.10155081
101952.843801,-0.778126207,-0.667663845,0.279048997,-0.0207972452,0.120954335,-0.0992535725
101952.853830,-0.596765468,-0.800769781,0.0035328503,-0.0460456088,0.136605725,-0.076159969
101952.863858,-0.390360231,-1.0015228,-0.307008432,-0.0746775195,0.121470451,-0.0458971336
101952.873887,-0.254693029,-0.975383348,-0.700437257,-0.0765435994,0.102388903,-0.0163171403
101952.883916,-0.232301055,-0.925962461,-0.9459119,-0.0414636396,0.0864328444,0.0184642766
101952.893944,-0.257019755,-0.944154389,-1.14443658,0.00731028896,0.0687174946,0.0658842549
101952.903973,-0.293287804,-1.00091366,-1.30402391,0.0422413759,0.0303826202,0.107309192
101952.914002,-0.449369286,-0.992637923,-1.25883277,0.047092326,-0.0162900761,0.137701988
101952.924030,-0.689164094,-0.98760687,-0.947701706,0.0367549993,-0.0323761031,0.153728887
101952.934059,-0.962729837,-0.942888169,-0.320045608,0.0169855524,-0.00139288639,0.167892113
101952.944088,-1.18281979,-0.880378521,0.328823374,-0.0237445664,0.0573252849,0.168593049
101952.954116,-1.40012983,-0.841767708,0.711471861,-0.0645375326,0.107286192,0.159759879
101952.964145,-1.56666582,-0.772774763,0.628917496,-0.0936453491,0.136101052,0.131225452
101952.974174,-1.665781,-0.650376975,0.365713135,-0.0904098749,0.147627741,0.0894929096
101952.984202,-1.69272279,-0.577475953,0.0300309811,-0.0474469624,0.153416127,0.0508864
101952.994231,-1.60473807,-0.603076222,-0.3486147,0.0137753785,0.140696868,0.0259570796
101953.004260,-1.51123093,-0.620313626,-0.721872843,0.0609191917,0.086782515,0.00356468884
101953.014288,-1.41709397,-0.676715312,-0.907540961,0.0942941904,0.0182742923,-0.00497207418
101953.024317,-1.33726626,-0.752571422,-0.863813463,0.119715661,-0.0323196426,0.00500599155
101953.034346,-1.32721789,-0.802807059,-0.514440638,0.124422796,-0.0530164018,0.0258420315
101953.044374,-1.40971365,-0.798887694,0.0587140548,0.0973842591,-0.0467150956,0.0522565916
101953.054403,-1.56351583,-0.827610296,0.621806787,0.0619596876,-0.0209253076,0.0793489292
101953.064432,-1.62974245,-0.816538501,0.948868412,0.0097974157,0.00519524142,0.10904371
101953.074461,-1.6890365,-0.761779249,1.10772217,-0.0613784902,0.0267255679,0.120341636
101953.084489,-1.73904541,-0.594568031,1.07757429,-0.119219691,0.0449841991,0.118712045
101953.094518,-1.67849318,-0.480961854,0.880558261,-0.149790913,0.073200658,0.104953893
101953.104547,-1.54024616,-0.32849732,0.454458755,-0.13329424,0.108810052,0.0984392688
101953.114575,-1.34184511,-0.308723894,-0.0488251134,-0.115428142,0.115014151,0.0821929201
101953.124604,-1.26256334,-0.234274949,-0.448096819,-0.122701772,0.0825728551,0.0496733263
101953.134633,-1.22256458,-0.144218684,-0.693766693,-0.124763325,0.0454718247,0.0111211427
101953.144661,-1.18066232,-0.091055724,-0.874220291,-0.0891078562,0.00625597872,-0.0238962304
101953.154690,-1.14389882,-0.118271173,-1.12124392,-0.0180701688,-0.0186978392,-0.046401538
101953.164719,-1.07503016,-0.249065983,-1.26372347,0.0493810438,-0.0616101585,-0.0516937748
101953.174747,-1.01983624,-0.422193366,-1.16640817,0.0628467873,-0.127034709,-0.0553668067
101953.184776,-1.06154699,-0.618910189,-0.817583627,0.0450893603,-0.209070981,-0.0693273619
101953.194805,-1.15663299,-0.680048841,-0.456868154,0.0393414609,-0.252102613,-0.0768111125
101953.204833,-1.16969172,-0.708467857,0.0202086753,0.0611956269,-0.22975868,-0.075338386
101953.214862,-1.16588722,-0.704772217,0.525385226,0.0703188181,-0.173377439,-0.0811014622
101953.224891,-1.185122,-0.64663567,1.0346733,0.0216418244,-0.117465697,-0.10513889
101953.234919,-1.12973293,-0.56361398,1.39089088,-0.0660829693,-0.0608253218,-0.124892622
101953.244948,-0.992737803,-0.644023734,1.57483232,-0.129275531,0.0274539422,-0.136370838
101953.254977,-0.843916411,-0.6884341,1.43019764,-0.139832556,0.137143955,-0.132013112
101953.265005,-0.67208283,-0.735719582,0.913151202,-0.146126404,0.203466773,-0.114055686
101953.275034,-0.400076154,-0.834313081,0.13648177,-0.154670358,0.200997233,-0.0670578182
101953.285063,-0.0946141106,-1.00248383,-0.739935739,-0.142412901,0.161638379,-3.19099054e-05
101953.295091,0.0949058601,-1.08862511,-1.27636551,-0.0801034421,0.102802761,0.0911507308
101953.305120,0.175842195,-1.17584542,-1.5772803,-0.00704894261,0.0289229415,0.193641677
101953.315149,0.114692328,-1.24364105,-1.43402509,0.00958276447,-0.0582606979,0.303037673
101953.325177,-0.084934355,-1.1777658,-0.836295341,-0.00510696555,-0.144322619,0.380174816
101953.335206,-0.575973257,-1.03087859,-0.0260685072,-0.0197104085,-0.158446163,0.44670698
101953.345235,-1.00729196,-0.928410438,0.925243206,-0.0307252444,-0.127902359,0.498550981
101953.355263,-1.37404043,-0.778824199,1.51975691,-0.0660576671,-0.102668636,0.50031215
101953.365292,-1.73047384,-0.547923513,1.88433198,-0.0968944058,-0.0798637271,0.457502902
101953.375321,-2.03518481,-0.237381281,2.12805423,-0.0959966555,-0.0328560062,0.376661301
101953.385349,-2.2401819,0.0725596978,2.20748666,-0.0819663256,0.017922489,0.264988571
101953.395378,-2.25865717,0.386161135,2.04917943,-0.0481457785,0.0471442863,0.124762483
101953.405407,-2.19237093,0.607960743,1.65205058,-0.016885329,0.0902153328,-0.0204658117
101953.415435,-1.99087177,0.71010408,1.38168758,0.0411651917,0.140094459,-0.153547168
101953.425464,-1.72821408,0.711548725,0.821164408,0.0907362103,0.180296749,-0.27821213
101953.435492,-1.44029876,0.628936493,0.257289585,0.116669007,0.195511922,-0.370884269
101953.445521,-1.09697457,0.379168244,-0.20423604,0.118086606,0.200919464,-0.417590261
101953.455550,-0.641844782,0.0716944228,-0.700657621,0.13522777,0.176718786,-0.412421614
101953.465578,-0.242175748,-0.218525591,-1.46674779,0.184848845,0.120671242,-0.35397613
101953.475607,0.0765520919,-0.520047627,-2.14850022,0.249041155,0.0228163134,-0.272767842
101953.485636,0.212641501,-0.701916974,-2.51389304,0.288080722,-0.111789167,-0.173970148
101953.495664,0.168173743,-0.880470437,-2.23724526,0.283121914,-0.232715324,-0.0799754784
101953.505693,-0.0560843273,-0.927126244,-1.38466397,0.241453812,-0.320223331,0.00313378964
101953.515722,-0.379814068,-0.808500814,-0.453396679,0.191094235,-0.349595875,0.0683189183
101953.525750,-0.622956104,-0.655563657,0.295647665,0.135338292,-0.336150378,0.102701128
101953.535779,-0.872209901,-0.433198963,0.956008347,0.0795312226,-0.265720159,0.105406627
101953.545808,-1.03485041,-0.223998871,1.64219847,0.0073196101,-0.139353156,0.0866696909
101953.555836,-1.23243459,0.0332580534,2.11530756,-0.0581922866,0.0101069091,0.0392497182
101953.565865,-1.26911305,0.165866708,1.96178172,-0.117206335,0.113103867,-0.0281173419
101953.575894,-1.19084696,0.252045474,1.31107968,-0.182098523,0.173150688,-0.106676869
101953.585922,-1.06547812,0.351605187,0.545541878,-0.182585359,0.226196855,-0.184031308
101953.595951,-0.958811641,0.326324835,0.00297170929,-0.14387551,0.275407016,-0.245581746
101953.605979,-0.733516373,0.193501843,-0.603390256,-0.0889137164,0.289687961,-0.27737537
101953.616008,-0.40778534,-0.0614229119,-1.49568046,-0.018037945,0.248388186,-0.261984706
101953.626037,0.00371781495,-0.391880061,-2.25044318,0.0598459356,0.151122883,-0.21472238
101953.636065,0.179818588,-0.769272965,-2.8161721,0.0887684003,0.00194618502,-0.145163536
101953.646094,0.132731477,-1.00557449,-2.82990311,0.138019294,-0.148071811,-0.0716744065
101953.656123,-0.196695306,-1.21482587,-2.2725989,0.142630294,-0.240011588,0.00998450536
101953.666151,-0.504799241,-1.23119088,-1.1637445,0.126416534,-0.27165404,0.0858618468
101953.676180,-0.864716549,-1.16047498,-0.152180274,0.092357114,-0.277654648,0.125813246
101953.686209,-1.2005639,-0.949873059,0.474177601,0.024643844,-0.280869097,0.137663528
101953.696237,-1.41453011,-0.731834338,0.8514631,-0.0452726558,-0.281302929,0.109387942
101953.706266,-1.43858202,-0.426247756,1.05622521,-0.0735184029,-0.237044126,0.0727750733
101953.716295,-1.37960011,-0.215995597,1.20834645,-0.0624191537,-0.156009197,0.020104669
101953.726323,-1.36917589,-0.0105695805,1.2060142,-0.0734662116,-0.0867747292,-0.0515860319
101953.736352,-1.28209426,0.0715249845,1.02511929,-0.100579582,-0.0582251139,-0.134829253
101953.746380,-1.16219947,0.106831349,0.533600096,-0.102295727,-0.0451955982,-0.212998882
101953.756409,-0.930373701,0.0597740852,0.175044432,-0.0565945543,-0.0148499412,-0.261491597
101953.766438,-0.691157241,-0.106652704,-0.0559901828,0.00770534109,-0.000135976006,-0.287292838
101953.776466,-0.517376983,-0.283370951,-0.312443901,0.03834261,-0.0237246603,-0.293994427
101953.786495,-0.307494499,-0.459026903,-0.472751952,0.0377665684,-0.0835911855,-0.270834506
101953.796524,-0.166169198,-0.728912533,-0.528297898,0.0387447476,-0.124584697,-0.211871579
101953.806552,-0.0543609559,-0.93720194,-0.366529127,0.0465699136,-0.131629825,-0.136468157
101953.816581,-0.0899148651,-1.08457708,0.0757674809,0.0236504842,-0.0984833166,-0.0504888073
101953.826610,-0.116490555,-1.13095231,0.679436554,-0.0667747483,-0.0564224198,0.0276845582
101953.836638,-0.284505728,-1.0208015,1.12857324,-0.180546328,-0.00688202865,0.079834044
101953.846667,-0.513238094,-0.886607625,1.27639765,-0.255562246,0.0711688325,0.117161445
101953.856695,-0.623870588,-0.723111153,1.12835287,-0.275153786,0.148723543,0.134866133
101953.866724,-0.638819224,-0.556035727,0.591726122,-0.254136652,0.182420775,0.141256124
101953.876753,-0.449269187,-0.415150681,-0.0821329243,-0.250218064,0.147238553,0.141777843
101953.886781,-0.292163951,-0.427324189,-0.630103491,-0.215089396,0.0774094164,0.150872275
101953.896810,-0.135347578,-0.45075011,-1.17123106,-0.0968799219,0.0158608332,0.173859075
101953.906839,0.00665755819,-0.449005714,-1.35929455,0.0228475407,-0.0332947299,0.198833942
101953.916867,-0.172292759,-0.412454245,-0.981637294,0.0702376962,-0.0848926753,0.211893544
101953.926896,-0.536495124,-0.379235099,-0.140799633,0.0517553538,-0.102130249,0.214412093
101953.936925,-0.931185017,-0.393655217,0.828414817,0.0136524457,-0.0886762217,0.205485985
101953.946953,-1.28764444,-0.292985642,1.47819916,-0.0124398749,-0.0424618609,0.185115457
101953.956982,-1.44714117,-0.249799521,1.80351306,-0.0304236691,0.00951824896,0.156045988
101953.967010,-1.56117029,-0.203462717,1.70406952,-0.0259146728,0.0335423574,0.100677811
101953.977039,-1.52537285,-0.0570149958,1.28326462,-0.0096930908,0.038061209,0.0213563535
101953.987068,-1.37130896,0.0499406369,0.880581058,0.0195020773,0.0517469272,-0.0621617064
101953.997096,-1.17979884,0.0993426735,0.67430036,0.0637505054,0.0712684318,-0.149273708
101954.007125,-1.08240974,0.178222185,0.394724125,0.110801637,0.0790714994,-0.238454714
101954.017154,-0.860012902,0.193349722,0.0710585726,0.14832823,0.0879896283,-0.287755162
101954.027182,-0.481478718,-0.025593912,-0.265935248,0.167822301,0.0792563185,-0.296651989
101954.037211,-0.137351136,-0.222618742,-0.613616467,0.178401977,0.0642805696,-0.268144727
101954.047239,0.17773126,-0.394480489,-0.754200995,0.178675219,0.0463734679,-0.200449273
101954.057268,0.367760569,-0.504588923,-0.834648159,0.139846861,0.0124748908,-0.109498866
101954.067297,0.467023272,-0.52690396,-0.774583274,0.0764002502,-0.0417209715,-0.0154495966
101954.077325,0.510417337,-0.499652453,-0.777805158,0.0369018391,-0.0848109126,0.0864155143
101954.087354,0.464943543,-0.340337688,-0.72809917,0.0227644499,-0.106390506,0.17744422
101954.097382,0.312521898,-0.212631126,-0.514881952,0.00353136845,-0.109733038,0.258126825
101954.107411,0.109481096,-0.119458739,-0.111183078,-0.0433136374,-0.0853174478,0.303886026
101954.117440,-0.243244729,0.0490826319,0.376181922,-0.0962748528,-0.0447700247,0.319580585
101954.127468,-0.54097004,0.189104595,0.664081749,-0.147775337,-0.000986855943,0.288804829
101954.137497,-0.827261848,0.388169516,0.672088529,-0.17274034,0.0309756044,0.231967926
101954.147526,-0.979257997,0.470254838,0.47354924,-0.171779469,0.0568801723,0.159254566
101954.157554,-0.993333723,0.482833639,0.25224633,-0.144658908,0.078203842,0.0613652915
101954.167583,-1.01210067,0.53612282,-0.025473464,-0.0924604088,0.0948251635,-0.0417930558
101954.177611,-1.00243108,0.503317625,-0.39255438,-0.0277112406,0.0992555916,-0.140013099
101954.187640,-0.905099705,0.350492586,-0.7644652,0.0538890809,0.0790448636,-0.219697803
101954.197669,-0.676091774,0.155169007,-1.08624976,0.142249301,0.0241861399,-0.269570827
101954.207697,-0.378147778,-0.0940066462,-1.30629887,0.20181489,-0.0481397212,-0.285675764
101954.217726,-0.11564393,-0.375791132,-1.10391343,0.227706671,-0.121347085,-0.263141423
101954.227754,0.0449513773,-0.647133829,-0.698489045,0.218458846,-0.18757166,-0.220765203
101954.237783,0.0865216242,-0.754315854,-0.284960266,0.194653377,-0.216676801,-0.158657357
101954.247812,0.0667460979,-0.871887025,0.13512451,0.172462597,-0.227967277,-0.0924772695
101954.257840,0.00740437624,-0.891977481,0.457268552,0.140950739,-0.208889991,-0.0390515924
101954.267869,-0.103928832,-0.785763351,0.853836259,0.0938697904,-0.166014165,0.0142105604
101954.277898,-0.186113304,-0.725069447,1.25340022,0.00422059465,-0.126752779,0.0451911166
101954.287926,-0.234559172,-0.500229888,1.49688574,-0.0809105411,-0.0696607232,0.057373479
101954.297955,-0.225094302,-0.244958986,1.47065824,-0.120856896,-0.000701897778,0.0588139817
101954.307983,-0.17446013,-0.0680875574,1.08330611,-0.11570368,0.0526934154,0.0444036126
101954.318012,-0.053011788,0.0484006044,0.538256398,-0.113434665,0.0711544529,0.0269884076
101954.328041,0.120213137,-0.00381093659,0.0196399355,-0.103529565,0.0655570179,0.024768129
101954.338069,0.327762357,-0.0837541688,-0.430101728,-0.0717106536,0.0455377698,0.0343296751
101954.348098,0.414319235,-0.099035763,-0.630397506,-0.034152627,0.0253597964,0.0477357656
101954.358126,0.377719799,-0.19636348,-0.518678421,-0.0124316188,-0.000319201499,0.0713473484
101954.368155,0.293688256,-0.306597331,-0.337661345,-0.0173989478,-0.0236120075,0.0990109369
101954.378184,0.256880346,-0.353518108,-0.0869920548,-0.0227332599,-0.0288935881,0.126035362
101954.388212,0.156544004,-0.299971117,0.275955122,-0.0439203046,-0.0120751932,0.13505362
101954.398241,-0.121455849,-0.168961349,0.642402416,-0.0659832582,0.0221964922,0.122832112
101954.408269,-0.373118662,-0.0793398595,0.896539674,-0.0971315876,0.062640056,0.0968774781
101954.418298,-0.504885897,-0.0250687556,0.92258597,-0.0806125328,0.0893853903,0.0461706221
101954.428327,-0.631965193,0.149557597,0.587860679,-0.0184775274,0.118260175,-0.002735666
101954.438355,-0.6052334,0.220156224,0.39028585,0.0298082456,0.123945758,-0.0505780205
101954.448384,-0.587684409,0.137135411,0.324559871,0.0300788227,0.103812799,-0.0916034877
101954.458412,-0.508196994,0.0602265052,0.306958748,0.0235396959,0.0836220384,-0.109376892
101954.468441,-0.348511459,-0.136829304,0.28963235,0.0452665649,0.0860572383,-0.101714179
101954.478470,-0.297278408,-0.327039084,0.254907658,0.0759325996,0.10381519,-0.0874843746
101954.488498,-0.317755159,-0.404496454,0.3348118,0.0776234418,0.101871088,-0.0734180883
101954.498527,-0.371655713,-0.437096628,0.38189913,0.0358493589,0.109729804,-0.0582324788
101954.508555,-0.435611504,-0.503305825,0.542400073,0.00748882582,0.121833608,-0.0302218851
101954.518584,-0.467923253,-0.510559157,0.518659717,-0.0243543256,0.13547191,-0.0246659983
101954.528613,-0.597588986,-0.403756449,0.412999786,-0.0481480733,0.161773294,-0.0189833455
101954.538641,-0.57361062,-0.317406017,0.231295896,-0.0465171523,0.168269813,-0.0357724428
101954.548670,-0.647552639,-0.148907536,-0.159068864,-0.0312748142,0.15286316,-0.0523096099
101954.558698,-0.566879777,-0.0990741587,-0.509704257,-0.000912648567,0.13622959,-0.0585336834
101954.568727,-0.504300462,-0.0948851096,-0.779049606,0.0385388844,0.0976904556,-0.0524494275
101954.578756,-0.473680063,-0.136311637,-1.04448392,0.0626796484,0.0422018915,-0.0444322452
101954.588784,-0.49186896,-0.251723183,-1.0352438,0.08395271,-0.00328622921,-0.0340243503
101954.598813,-0.590500014,-0.347640668,-0.589140782,0.0800538436,-0.0228735134,-0.016493557
101954.608841,-0.70105305,-0.457732004,-0.00366670581,0.040525604,-0.044248309,0.00542425923
101954.618870,-0.740887633,-0.548856994,0.433521181,-0.000186138204,-0.0474960357,0.0293908454
101954.628899,-0.806973531,-0.573126964,0.701597533,-0.0204109829,-0.0256245583,0.0494417846
101954.638927,-0.924231691,-0.531294998,0.87972824,-0.0404225066,0.010326785,0.0472774357
101954.648956,-1.02306674,-0.495200552,1.09939858,-0.0639552623,0.0592298768,0.0203848332
101954.658984,-1.15320441,-0.402001532,1.20034493,-0.0948308855,0.112146094,-0.022830015
101954.669013,-1.13781277,-0.3039866,1.01313952,-0.101485111,0.148011267,-0.0746085569
101954.679042,-1.02819695,-0.212705433,0.503714661,-0.0754750818,0.16797699,-0.126235276
101954.689070,-0.867425443,-0.156892361,-0.0808545749,-0.0222009383,0.178862393,-0.16700986
101954.699099,-0.64140493,-0.176438407,-0.491601614,0.0250230338,0.182474434,-0.190092549
101954.709127,-0.476355529,-0.265259979,-0.795673408,0.0575988218,0.147740692,-0.194969594
101954.719156,-0.260836756,-0.418833571,-1.13992231,0.0788593665,0.0924374908,-0.172557771
101954.729185,-0.175918073,-0.672050974,-1.28830787,0.100612596,0.0469142124,-0.124505542
101954.739213,-0.2056778,-0.884481499,-1.11456225,0.113829866,0.00325008901,-0.0599582419
101954.749242,-0.324309257,-1.04318577,-0.88766371,0.104796156,-0.0275504347,0.0177866183
101954.759270,-0.47334294,-1.18679337,-0.464783165,0.0565415472,-0.0439547077,0.105823271
101954.769299,-0.601945757,-1.22126453,0.0991729064,-0.0304641947,-0.0906111598,0.164735317
101954.779328,-0.791991066,-1.06058684,0.233825122,-0.0769448802,-0.110738799,0.196768075
101954.789356,-0.952283847,-0.88994466,0.349000485,-0.0525271483,-0.0701285228,0.204875007
101954.799385,-1.15168348,-0.62007558,0.665483432,-0.0272289868,-0.0254252311,0.180301756
101954.809413,-1.26540981,-0.359946826,0.80123338,-0.0597424507,-0.0130556477,0.119542539
101954.819442,-1.2735674,-0.199180474,0.872781782,-0.0841748267,-1.62781216e-05,0.0450182408
101954.829471,-1.20671899,-0.0780836124,0.743365713,-0.0570641123,0.0380096659,-0.0270977672
101954.839499,-1.09237219,-0.0169277539,0.472362076,0.0141030084,0.0789983794,-0.0925886258
101954.849528,-0.915305311,-0.000797580118,0.10742694,0.0759458691,0.0974048153,-0.141819566
101954.859556,-0.762953845,-0.0876992532,-0.0995452469,0.0896214619,0.0741207972,-0.170428827
101954.869585,-0.625291853,-0.311871216,-0.15651275,0.0773639977,0.0214876812,-0.173301846
101954.879614,-0.441043247,-0.607953911,-0.267768309,0.089809753,0.00930212252,-0.130614042
101954.889642,-0.29646658,-0.941407867,-0.0922346316,0.120454215,0.0422302447,-0.0601891354
101954.899671,-0.344184463,-1.04535252,0.329435368,0.0551604293,0.0862131491,0.0113556171
101954.909699,-0.447222593,-1.04143966,0.849442992,-0.071639061,0.0911676958,0.0653360263
101954.919728,-0.503732124,-0.951164414,0.719630033,-0.151382357,0.0889657885,0.100160055
101954.929757,-0.516149341,-0.804923175,0.0314794264,-0.122761369,0.0996077806,0.140338898
101954.939785,-0.488603053,-0.760845402,-0.62494567,-0.0499281697,0.108524576,0.174913913
101954.949814,-0.619247678,-0.719116457,-0.89817692,-0.00911016855,0.036050912,0.170146331
101954.959842,-0.779267998,-0.439700381,-1.0464935,-0.00266478653,-0.0645249635,0.15457882
101954.969871,-0.834524532,-0.421840497,-0.824831698,0.0292995367,-0.129021138,0.153181985
101954.979899,-0.952318187,-0.460515936,-0.478420061,0.0524384156,-0.173578486,0.14464283
101954.989928,-1.00123646,-0.419347658,-0.141043963,0.0717441961,-0.219021589,0.125569001
101954.999957,-1.11660384,-0.478158195,0.190211022,0.103776701,-0.194034487,0.104332961
101955.009985,-1.35730951,-0.535383801,1.05312023,0.0944191515,-0.158821911,0.0736626685
101955.020014,-1.43985657,-0.542900899,1.58912914,0.0489230417,-0.15591906,0.0284576379
101955.030042,-1.39294898,-0.52206452,1.46061382,0.0264382362,-0.141114548,-0.0232641455
101955.040071,-1.25079048,-0.542458452,1.39704531,0.0328370146,-0.0774671286,-0.0639694929
101955.050100,-1.10192693,-0.536436196,1.46966046,0.0437312089,0.0154116796,-0.110550582
101955.060128,-0.932402284,-0.427342931,1.31360364,0.00808745995,0.0942282006,-0.150460988
101955.070157,-0.669367142,-0.461754794,0.963857891,-0.0727083236,0.155192479,-0.162012443
101955.080185,-0.324450163,-0.522752941,0.391976872,-0.118673153,0.222469792,-0.147904083
101955.090214,-0.06621727,-0.454301994,-0.220476396,-0.122968562,0.257685035,-0.107719906
101955.100243,0.244706655,-0.490885209,-1.05943657,-0.0936373025,0.262322426,-0.0422791168
101955.110271,0.48867937,-0.579782732,-1.81938634,-0.039316006,0.251122743,0.0282357968
101955.120300,0.550648262,-0.578257094,-2.29381178,-0.00710294489,0.180690393,0.0980359167
101955.130328,0.593794416,-0.605431334,-2.67856221,-0.0155401053,0.0587330535,0.163568586
101955.140357,0.573276638,-0.794516128,-2.74909939,-0.0153113389,-0.0455464795,0.248114899
101955.150385,0.41012003,-0.927875089,-2.33417477,0.00384397921,-0.082169205,0.320334762
101955.160414,-0.0956451341,-0.87864081,-1.47645553,0.0103721861,-0.0932391658,0.354878634
101955.170443,-0.731526222,-0.736276778,-0.766878691,-0.0105413515,-0.12823683,0.352122277
101955.180471,-1.14435767,-0.50991326,-0.497459108,-0.0242260061,-0.18857421,0.302933693
101955.190500,-1.42474785,-0.327320385,-0.50189446,0.0297639929,-0.232457235,0.240996525
101955.200528,-1.49945501,-0.160215952,-0.350946943,0.103385217,-0.269780368,0.152592093
101955.210557,-1.59503851,-0.0212328672,0.0664268211,0.15746443,-0.271330595,0.0552458465
101955.220586,-1.59550715,0.0723413059,0.871461347,0.163346022,-0.235693246,-0.0385626704
101955.230614,-1.56503982,0.10509857,1.6567969,0.146167561,-0.175098345,-0.115551196
101955.240643,-1.43052351,0.0599637626,2.03841429,0.11691194,-0.11808832,-0.168320671
101955.250671,-1.2297683,-0.110552452,2.02773858,0.102519684,-0.0655721202,-0.199308679
101955.260700,-1.00432566,-0.268667303,1.84997262,0.0786921158,-0.0216531307,-0.2108652
101955.270729,-0.841629834,-0.400688221,1.78856509,0.0321866721,0.0179009363,-0.212258846
101955.280757,-0.743358845,-0.516824976,1.71152276,0.00494253263,0.0741130784,-0.190736234
101955.290786,-0.479502632,-0.716300377,1.53222652,-0.0201756041,0.116020314,-0.150027961
101955.300814,-0.234227675,-0.816513294,1.12419283,-0.0556592941,0.136160195,-0.0951148942
101955.310843,-0.0355873001,-0.915785861,0.772584793,-0.0892979503,0.141995713,-0.0332568586
101955.320871,0.113761879,-0.918133594,0.306374226,-0.102805234,0.123504326,0.0351629481
101955.330900,0.279817168,-0.884728241,-0.324991833,-0.0760963932,0.089069657,0.116920926
101955.340929,0.427063894,-0.872529561,-0.831295341,-0.0409634374,0.0453051291,0.203384697
101955.350957,0.458355945,-0.832331333,-0.89284725,-0.0637342706,-0.0323268138,0.288154989
101955.360986,0.359731247,-0.795268773,-0.757173289,-0.116453409,-0.0878883451,0.347651869
101955.371014,0.126243138,-0.62748118,-0.207386028,-0.109961681,-0.059879344,0.378587157
101955.381043,-0.262930148,-0.291362133,0.488530536,-0.093839176,0.0236251354,0.369327098
101955.391072,-0.603544205,0.0520278185,0.891708601,-0.127275959,0.101270132,0.334886551
101955.401100,-0.659182725,0.153558211,0.814034994,-0.195825994,0.123559192,0.270826608
101955.411129,-0.661425389,0.284748743,0.429316715,-0.244011894,0.114333466,0.187103197
101955.421157,-0.615994083,0.36952988,-0.0668617054,-0.195114926,0.103900798,0.108803079
101955.431186,-0.620438349,0.447988974,-0.627612843,-0.0646956712,0.0893399641,0.0176180415
101955.441214,-0.606583682,0.590429981,-1.06678343,0.0552168898,0.0274917781,-0.0553200841
101955.451243,-0.290266958,0.50079618,-1.43649119,0.139723778,-0.0769267753,-0.0893385038
101955.461272,0.100178759,0.227685633,-1.56713709,0.222535044,-0.14357771,-0.0731616616
101955.471300,0.216535075,0.0398095574,-0.883764949,0.240409106,-0.158473298,-0.0440330729
101955.481329,-0.0365293667,-0.0849681477,0.264198049,0.187291563,-0.116641425,-0.0168643035
101955.491357,-0.382727544,-0.195299321,1.42236621,0.0784513652,-0.0387389064,0.00905704312
101955.501386,-0.54501738,-0.244104415,2.00794609,-0.0522517785,0.050984323,0.0174563862
101955.511415,-0.69091861,-0.17897958,2.01284614,-0.171088427,0.15102464,0.0140022663
101955.521443,-0.677525241,-0.090071791,1.6639041,-0.225634217,0.239312157,-0.0156834573
101955.531472,-0.68027169,0.0588550341,0.983873674,-0.230458006,0.284957945,-0.0699189976
101955.541500,-0.552390758,0.206930065,0.124641694,-0.216449514,0.268954217,-0.109364673
101955.551529,-0.162222214,0.187861755,-0.905441943,-0.13586092,0.200589254,-0.126663238
101955.561557,0.289949124,0.0809756075,-1.98537711,0.00216618762,0.0974998921,-0.0973977596
101955.571586,0.747864194,-0.114295401,-2.70278655,0.144617066,-0.00113640376,-0.0265273172
101955.581615,0.872609494,-0.37125137,-2.51297768,0.213884026,-0.105014063,0.0597055703
101955.591643,0.666025138,-0.541344829,-1.61989896,0.155243084,-0.174681827,0.136775047
101955.601672,0.306847835,-0.643168871,-0.257173265,0.0352035016,-0.183052137,0.197166219
101955.611700,-0.108148825,-0.512093709,0.790172473,-0.0794951245,-0.128047481,0.21612899
101955.621729,-0.426573371,-0.286753251,1.26086048,-0.149879277,-0.0613502115,0.181348905
101955.631758,-0.554219069,0.0175412462,0.959907692,-0.137026057,-0.0240933858,0.123144731
101955.641786,-0.432106273,0.293211049,0.187772396,-0.0507223271,-0.00378811336,0.0682620406
101955.651815,-0.298644947,0.458213431,-0.301406959,0.0702861175,-0.0182024725,0.0147428922
101955.661843,-0.250755689,0.467756957,-0.441415734,0.149386525,-0.073509939,-0.0312981009
101955.671872,-0.0167011786,0.40436574,-0.225237327,0.172963217,-0.167138323,-0.0409481898
101955.681900,0.117081305,0.138903955,0.194038471,0.163709804,-0.241175532,-0.0190799106
101955.691929,0.231008019,-0.0492411834,0.7667273,0.200443581,-0.255098283,0.0232800636
101955.701958,0.19431316,-0.0586443505,1.34131992,0.211309537,-0.211029083,0.0508419201
101955.711986,0.000643814329,-0.103004082,2.21577694,0.134029403,-0.118755348,0.0769747123
101955.722015,-0.117482689,-0.180066133,2.99141294,0.00161943794,0.00419481052,0.0858968347
101955.732043,-0.298916311,-0.127000898,3.2318981,-0.123207979,0.11882472,0.0493590683
101955.742072,-0.549562366,0.120201081,2.77856572,-0.192347378,0.218421087,-0.0229729172
101955.752101,-0.67175579,0.296902706,1.96260765,-0.208217949,0.313710064,-0.102998249
101955.762129,-0.559157512,0.302656776,1.11740595,-0.200660437,0.398773551,-0.176814139
101955.772158,-0.392692327,0.322369594,0.222944248,-0.171079904,0.453870624,-0.239552096
101955.782186,-0.0874818841,0.392948822,-0.735222154,-0.148321062,0.468428254,-0.282222867
101955.792215,0.41185953,0.321176147,-1.72593532,-0.0714302734,0.411682427,-0.280189276
101955.802243,0.909505831,0.151084076,-2.89059343,0.0366618447,0.261238337,-0.214788958
101955.812272,1.40735306,-0.107910778,-3.91278661,0.176278859,0.0387645066,-0.0882286206
101955.822301,1.65086663,-0.532950181,-4.08669298,0.226988375,-0.145881236,0.0809036791
101955.832329,1.35473557,-0.778982751,-2.65482244,0.173021272,-0.259663999,0.227376208
101955.842359,0.642241088,-0.690801267,-0.908010916,0.100992367,-0.277403325,0.320043832
101955.852387,-0.0373888696,-0.501283963,0.55101125,0.0221116636,-0.228659749,0.367717624
101955.862415,-0.651355757,-0.247079777,1.53443134,-0.0679833442,-0.163535595,0.356370687
101955.872445,-1.14826593,0.0214282802,1.91019299,-0.13443242,-0.12013007,0.28377372
101955.882473,-1.41468647,0.238530816,1.84210904,-0.148930669,-0.0690945834,0.174442694
101955.892502,-1.42133512,0.466216121,1.3810563,-0.112736434,-0.0311200358,0.0483912751
101955.902530,-1.26646473,0.652631403,0.715998398,-0.0314919092,-0.0112568503,-0.0992881954
101955.912559,-1.06843499,0.897759864,0.295056129,0.0813038796,0.0219612904,-0.223457009
101955.922587,-0.732499744,1.03006435,0.222798702,0.140606612,0.0692212135,-0.320768386
101955.932616,-0.419237621,0.866826308,0.443203201,0.118368961,0.0977641791,-0.367586762
101955.942644,0.0527137914,0.457474815,0.487286673,0.0538040809,0.13649027,-0.353931665
101955.952673,0.411709491,0.0465396694,0.38672845,-0.0227540787,0.161635831,-0.291386247
101955.962702,0.752105338,-0.260975726,-0.0638671998,-0.0543178618,0.156420559,-0.187332556
101955.972730,1.01118824,-0.502292775,-0.624502602,-0.0316349193,0.121678829,-0.0671995059
101955.982759,1.01310174,-0.485346024,-1.00775841,-0.0290945321,0.0469771624,0.0466226712
101955.992787,0.978700656,-0.528008414,-1.0628759,-0.0651611909,-0.0426714979,0.150224432
101956.002816,0.871498464,-0.550334227,-0.82021982,-0.114685863,-0.115080453,0.230727807
101956.012845,0.757163425,-0.440985489,-0.441083141,-0.129301041,-0.140312031,0.295121431
101956.022873,0.616363573,-0.250749333,-0.0815437262,-0.113692239,-0.139436916,0.324806094
101956.032902,0.35358847,-0.035601767,0.11456103,-0.0889006108,-0.131267145,0.308577597
101956.042930,0.0326277927,0.219843797,0.405029246,-0.0729352236,-0.103235245,0.253461331
101956.052959,-0.239629754,0.436430712,0.867572523,-0.0768833607,-0.0419617668,0.165155709
101956.062988,-0.485175746,0.679927991,1.23347621,-0.0883559883,0.015499929,0.0455800444
101956.073016,-0.573488893,0.857373931,1.12996732,-0.0800669044,0.0890902579,-0.0819395706
101956.083045,-0.492618682,0.894019435,0.872618701,-0.00960844941,0.167685732,-0.195633903
101956.093073,-0.35689332,0.903004194,0.451092493,0.0660988316,0.222519428,-0.286710829
101956.103102,-0.0985287633,0.849278595,0.00103401922,0.113418676,0.230887607,-0.329876125
101956.113131,0.296885098,0.608282668,-0.412491837,0.133813947,0.187785149,-0.319261312
101956.123159,0.585523797,0.289779576,-0.717315911,0.143526241,0.11770539,-0.250109136
101956.133188,0.81464129,-0.072279858,-0.880599762,0.150480554,0.0263107661,-0.144642085
101956.143216,0.76844046,-0.383972904,-0.844043763,0.127450868,-0.0495762751,-0.0259127822
101956.153245,0.537557273,-0.587922711,-0.286758256,0.0642378107,-0.0830908269,0.0747365952
101956.163274,0.128223498,-0.647808659,0.590395166,-0.000180592528,-0.0615330711,0.131772727
101956.173302,-0.417205823,-0.468644517,1.27748428,-0.0579501465,-0.0138560953,0.13319166
101956.183331,-0.841534557,-0.234967497,1.40566467,-0.0937092081,0.0264061056,0.0775667354
101956.193359,-1.08823472,-0.00628083384,1.07696463,-0.0868600905,0.0301241465,-0.0141365509
101956.203388,-1.04021311,0.139849821,0.427008438,-0.0394342542,0.0267834757,-0.123195387
101956.213416,-0.790684952,0.294672828,-0.150395144,0.0514075011,0.0539399944,-0.224713758
101956.223445,-0.529066544,0.422204691,-0.460844657,0.126582935,0.108164355,-0.300039947
101956.233474,-0.255846912,0.384199187,-0.638400195,0.153855577,0.135622874,-0.347386688
101956.243502,0.0648875558,0.233928071,-1.00131464,0.162341729,0.0990992188,-0.343136281
101956.253531,0.525166176,0.0273164615,-1.4108827,0.157132596,0.0267030485,-0.278252095
101956.263559,0.848523905,-0.224763864,-1.48123458,0.173751518,-0.0428195707,-0.16489543
101956.273588,1.00952418,-0.373901629,-1.10585872,0.15116924,-0.0663826838,-0.0120515618
101956.283617,1.01806711,-0.557996359,-0.298657952,0.0621075481,-0.0757519528,0.162731707
101956.293645,0.966667469,-0.739680887,0.224721194,-0.0680296794,-0.09103477,0.324989319
101956.303674,0.828555541,-0.779257622,0.505070752,-0.182667047,-0.104401976,0.454336137
101956.313702,0.470078276,-0.606351444,0.557940172,-0.221823514,-0.125048399,0.487826169
101956.323731,-0.114630003,-0.0947028849,0.584656914,-0.199015662,-0.115714282,0.457549483
101956.333759,-0.465065197,0.208998432,0.800741797,-0.161211029,-0.084192574,0.388147503
101956.343788,-0.672339728,0.475232809,0.860708483,-0.10689985,-0.0499464534,0.285731137
101956.353817,-0.735767513,0.726997785,0.622995705,-0.0489795581,-0.0271916073,0.157571033
101956.363845,-0.73879519,0.890555778,0.374193378,-0.00155345211,0.0110969255,0.0248193704
101956.373874,-0.765366021,0.971897698,0.395547132,0.0535902269,0.0595933534,-0.101086363
101956.383902,-0.648147974,0.987042952,0.429576243,0.0874456614,0.0849477127,-0.213200107
101956.393931,-0.423499407,1.0040369,0.259598446,0.0869993195,0.107096426,-0.283369064
101956.403960,-0.068979757,0.789162126,0.0983253497,0.111162975,0.146747425,-0.290342033
101956.413988,0.356465341,0.458882197,-0.228897018,0.123826042,0.149344012,-0.252690524
101956.424017,0.672856664,0.238072953,-0.768493725,0.108979985,0.103977062,-0.185752511
101956.434045,0.897512319,0.0451557773,-1.13314712,0.0968327746,0.0337228738,-0.10569869
101956.444074,0.91825627,-0.0781684776,-1.34133804,0.0721146464,-0.0362042785,-0.00399869494
101956.454103,0.902605112,-0.157540413,-1.15828448,0.0569777675,-0.102056526,0.10150589
101956.464131,0.729248487,-0.195578321,-0.947099649,0.0499755181,-0.16754739,0.204690874
101956.474160,0.511288421,-0.256504353,-0.596354951,0.0482250229,-0.237010881,0.281030655
101956.484188,0.1371311,-0.174378223,-0.0113484925,0.0271498319,-0.287470847,0.303634226
101956.494217,-0.233866441,0.0832779296,0.813750332,0.00180399511,-0.288536668,0.287179083
101956.504246,-0.450947715,0.275971197,1.57410751,-0.0328818113,-0.206720889,0.245003402
101956.514274,-0.557003184,0.511527308,2.04281983,-0.0592550971,-0.114162192,0.158542022
101956.524303,-0.713833475,0.767112426,1.97580381,-0.0760511234,-0.0258411188,0.0335273743
101956.534331,-0.821634509,1.00618268,1.59843824,-0.0353638791,0.0501527153,-0.121768467
101956.544360,-0.87083021,1.13011082,1.1995529,0.0192876477,0.138573125,-0.277738363
101956.554388,-0.764694625,1.11146435,0.947823871,0.0464889072,0.199411437,-0.415524721
101956.564417,-0.384482205,1.01823253,0.410917135,0.0340085365,0.216422915,-0.496730089
101956.574446,0.257723081,0.717446186,-0.375267729,0.0432853922,0.19077374,-0.501923263
101956.584473,0.852833511,0.37777584,-1.3289941,0.111978702,0.148152247,-0.443793654
101956.594503,1.2667545,0.0383349914,-1.98533795,0.18342784,0.0960280597,-0.33415556
101956.604531,1.48351071,-0.270127147,-2.08576641,0.213663518,0.00721430266,-0.194997132
101956.614560,1.50202047,-0.520007478,-1.84765674,0.158137932,-0.100134261,-0.0399244726
101956.624589,1.38382226,-0.680091219,-1.33478671,0.0836048499,-0.203713119,0.119288616
101956.634616,1.09417588,-0.794683959,-0.775884419,0.0403583124,-0.260399818,0.25762251
101956.644646,0.698336339,-0.648778162,-0.0419552277,0.0342852399,-0.262715727,0.354718179
101956.654674,0.242616551,-0.403757399,0.806974554,-0.0216517951,-0.249206305,0.3880575
101956.664703,-0.161266265,-0.170239151,1.64823249,-0.116717324,-0.228756145,0.368676335
101956.674732,-0.459295527,0.100364089,2.23578512,-0.190180525,-0.150064439,0.293021768
101956.684759,-0.771787652,0.446488214,2.5269384,-0.172272369,0.0101377452,0.196473673
101956.694789,-0.846430366,0.656895929,2.62451264,-0.141842023,0.176699296,0.0671311319
101956.704817,-0.815623432,0.894199468,2.26503518,-0.152974576,0.25651744,-0.0872115716
101956.714846,-0.533352843,1.04101361,1.38980659,-0.157665461,0.288480163,-0.222946241
101956.724875,-0.101371403,0.946634662,0.423093895,-0.11530789,0.312782556,-0.303378761
101956.734903,0.310757738,0.694097094,-0.552640897,-0.0121519426,0.319131821,-0.327133626
101956.744932,0.773427528,0.39876624,-1.58429631,0.128286928,0.299171954,-0.285566211
101956.754960,1.13479124,0.0376212901,-2.24231482,0.232139558,0.216944724,-0.197958857
101956.764988,1.31171549,-0.315305866,-2.37645967,0.223649129,0.0802071169,-0.07206963
101956.775018,1.32718238,-0.667489,-1.86425658,0.141221628,-0.0291753057,0.0687029287
101956.785046,1.01796854,-0.790226395,-0.788589003,0.0575075634,-0.0569105335,0.213327482
101956.795075,0.683998017,-0.729475646,0.0313525851,-0.0208748598,-0.0518475957,0.335941821
101956.805103,0.359512746,-0.505975592,0.307397139,-0.0878384486,-0.0567086637,0.408260226
101956.815131,0.0349744654,-0.22782179,0.294382175,-0.118120186,-0.0487609915,0.433500588
101956.825161,-0.290065956,0.03259674,0.363953724,-0.115261547,-0.0326374173,0.40924719
101956.835188,-0.593844831,0.422464146,0.573570288,-0.114095882,-4.63740434e-06,0.330682069
101956.845217,-0.835765764,0.843554519,0.779779673,-0.105378024,0.0434930362,0.213015899
101956.855245,-0.861181945,1.24231681,0.605344313,-0.0665467381,0.0907132849,0.0750404522
101956.865274,-0.741617554,1.46489983,0.223444598,0.00291888532,0.131275892,-0.0527201742
101956.875303,-0.47802149,1.53828976,-0.311899711,0.0651276633,0.114227131,-0.167237163
101956.885331,-0.227005798,1.40002286,-0.822650262,0.116186857,0.0900972933,-0.243115157
101956.895360,0.123495301,1.1422748,-0.930489875,0.174306884,0.0646667704,-0.268247932
101956.905388,0.358220222,0.81379008,-1.00529932,0.217581391,0.0276349802,-0.23314108
101956.915417,0.551168194,0.506285023,-1.03358785,0.221792638,-0.0406143814,-0.146224558
101956.925445,0.54753561,0.209837002,-0.69313424,0.1894885,-0.0974808559,-0.039248839
101956.935474,0.29601869,0.00350515858,0.0445130955,0.0983804241,-0.120665275,0.0576454848
101956.945503,-0.0722287854,-0.0406279246,0.882939019,-0.0384064503,-0.0906133652,0.134362623
101956.955531,-0.311243585,-0.0619503333,1.45216456,-0.162849307,-0.0490446202,0.149995908
101956.965560,-0.536500238,0.175269838,1.37530168,-0.220514208,0.0178169701,0.126366496
101956.975588,-0.603478957,0.434362308,0.964838135,-0.19170785,0.0705222636,0.0638993829
101956.985617,-0.713914359,0.672809976,0.369111545,-0.149227247,0.0731566623,-0.0586952418
101956.995646,-0.732454735,0.966552537,-0.186805597,-0.088960968,0.0498888865,-0.185735747
101957.005674,-0.442419504,0.963087784,-0.666620912,-0.00135389017,0.0251790136,-0.282180011
101957.015703,-0.0452031966,0.840901593,-1.10719026,0.113106377,0.0132959876,-0.330686003
101957.025731,0.362676397,0.598415829,-1.25308751,0.193956479,-0.0192414485,-0.315911055
101957.035760,0.683194372,0.201103076,-1.2099305,0.198951244,-0.10908132,-0.271719635
101957.045789,0.827454448,-0.100378848,-1.10207394,0.173448011,-0.188403308,-0.183954105
101957.055817,0.824027104,-0.273957665,-0.503573791,0.159345508,-0.17454502,-0.0725564584
101957.065846,0.547664643,-0.2494019,0.618371552,0.105000511,-0.0945503116,0.0389660709
101957.075874,0.317088366,-0.205806869,1.47236563,-0.0158036705,-0.032877367,0.137351498
101957.085903,0.184369821,-0.136870988,1.64789989,-0.165282637,0.00656058732,0.200946718
101957.095932,0.0100248061,0.0508344805,1.57468327,-0.259861082,0.0408008471,0.229648665
101957.105960,-0.163484051,0.322579072,1.21834119,-0.284998387,0.0833909214,0.219057009
101957.115989,-0.306141988,0.593626476,0.856189544,-0.276653111,0.119018957,0.169884935
101957.126018,-0.314153847,0.786964178,0.407127095,-0.226055712,0.129494503,0.103832953
101957.136046,-0.192549694,0.868643075,-0.244673849,-0.147672489,0.105168387,0.0165257435
101957.146075,-0.170670893,1.00052846,-0.968126655,-0.0188119765,0.0533784255,-0.0590097606
101957.156103,-0.0519336739,0.927957068,-1.47466163,0.118004732,-0.00317486422,-0.121579401
101957.166132,-0.0602395838,0.792232401,-1.28667823,0.192693084,-0.0418215953,-0.163344696
101957.176161,-0.0477764812,0.6094866,-0.625591567,0.187757179,-0.0614970289,-0.184079528
101957.186189,-0.0613730449,0.433935972,0.000971475381,0.149872646,-0.0625702813,-0.180859506
101957.196218,-0.0908130013,0.287383256,0.488627567,0.110300466,-0.0206579827,-0.154450268
101957.206246,-0.175178215,0.133295175,0.871224616,0.0734460503,0.0128701478,-0.122857712
101957.216275,-0.287938479,0.0967564199,0.971710358,0.0124016032,0.00862080883,-0.107128285
101957.226304,-0.331058585,0.187291335,0.806726132,-0.0251769312,-0.00892995577,-0.0980298594
101957.236332,-0.159486505,0.271270618,0.491536732,-0.00365938875,-0.029737765,-0.094060421
101957.246361,0.0168212979,0.353968336,0.114577981,0.0380907208,-0.050088577,-0.0972652659
101957.256389,0.0907978037,0.387646953,-0.0415226815,0.0719594732,-0.061321523,-0.109483853
101957.266418,0.0799724583,0.39986463,0.0632294864,0.112237923,-0.0477295518,-0.132407546
101957.276447,0.00257485546,0.507936882,0.441381831,0.13150616,-0.00200200826,-0.133364156
101957.286475,0.0153441745,0.413732777,0.916793358,0.0955548137,0.0122331204,-0.129133731
101957.296504,-0.0166906207,0.380051603,0.990678678,0.0474514663,0.0320246667,-0.107112572
101957.306532,-0.0520231058,0.274944995,1.02189858,0.0132945608,0.063144505,-0.0828668848
101957.316561,-0.148828991,0.225362926,1.04238607,-0.0285471622,0.105305545,-0.057673648
101957.326590,-0.217273216,0.191882097,0.966644307,-0.0634489506,0.106375068,-0.0425274596
101957.336618,-0.168903372,0.229063388,0.426270771,-0.0719945058,0.069024764,-0.0311632138
101957.346647,-0.0492837439,0.181395628,0.0146171389,-0.0221675597,0.0456749648,-0.0142630618
101957.356675,-0.0423925231,0.218127056,-0.0430851085,0.0176142082,0.0246921871,-0.000230865553
101957.366704,-0.0710137105,0.220626107,-0.0613064094,0.0224981792,-0.038468942,-0.000325141475
101957.376733,-0.0399053094,0.223481277,-0.13641981,0.0297920443,-0.107326567,-0.0234152805
101957.386761,-0.0963565338,0.27210568,-0.133986446,0.0644269884,-0.146883026,-0.0504690036
101957.396790,-0.121563565,0.277785406,0.102578331,0.0810834616,-0.114987679,-0.0840594545
101957.406819,-0.114428964,0.338251492,0.662972326,0.0712817013,-0.013331362,-0.119236074
101957.416847,-0.138457088,0.496740146,1.10783089,0.0389389396,0.126596183,-0.168826282
101957.426876,-0.175713198,0.709768199,1.25961895,-0.0518431626,0.242357671,-0.229718655
101957.436904,-0.0704722971,0.823165591,0.820499806,-0.142493173,0.282485396,-0.293326139
101957.446933,0.143416026,0.921029096,-0.301333894,-0.182680801,0.292397141,-0.312051624
101957.456962,0.677270243,0.738205262,-1.38059511,-0.135487452,0.275901258,-0.265927792
101957.466990,1.12932859,0.602670491,-2.41224176,-0.00924430322,0.234129563,-0.166768983
101957.477019,1.47185403,0.419730264,-3.23707696,0.0724420398,0.132637039,-0.0438260138
101957.487047,1.51673055,0.175808622,-3.37516792,0.0587952025,-0.0381389745,0.0715727508
101957.497076,1.23745622,-0.0469688181,-2.93519011,-0.00441412861,-0.209820718,0.173093781
101957.507105,0.709858215,-0.126226406,-2.00157831,-0.0287106801,-0.308653027,0.253785163
101957.517133,0.116115712,-0.0833798556,-0.867593566,-0.00898890663,-0.32331425,0.30319798
101957.527162,-0.452650756,0.0587294715,0.0898491978,0.00433062669,-0.298302919,0.28734073
101957.537191,-1.0405069,0.291536211,0.971278397,-0.0193816256,-0.259526759,0.208942056
101957.547219,-1.48037709,0.511470097,1.5446745,-0.0476508141,-0.222358882,0.0762101114
101957.557248,-1.70923494,0.671040409,1.71671624,-0.0242869034,-0.162686765,-0.0724518001
101957.567276,-1.76179077,0.79965919,1.78382052,0.0374552906,-0.0829882026,-0.220384017
101957.577305,-1.60062873,0.806893013,1.74202604,0.0587757602,-0.0310744066,-0.351928711
101957.587334,-1.23788205,0.712484326,1.48438749,0.0562313758,-0.0165215619,-0.458743572
101957.597362,-0.792745903,0.567384292,1.07277069,0.076302819,0.00572781684,-0.520103037
101957.607391,-0.358752721,0.347222515,0.709853904,0.11907319,0.02858999,-0.528108776
101957.617419,0.013789602,0.0335847281,0.374834014,0.14265734,0.0534047894,-0.493628055
101957.627448,0.369251465,-0.267361554,0.209589676,0.139984325,0.0571193658,-0.419430524
101957.637477,0.64260751,-0.483175877,-0.0242863,0.102979437,0.0361698754,-0.299410373
101957.647505,0.976447908,-0.739216777,-0.234195125,0.058354713,0.00466974312,-0.151965007
101957.657534,1.08410895,-0.882691766,-0.296419818,-0.00584025169,-0.0324480645,-0.00271000247
101957.667563,1.03929848,-0.853218419,-0.232727975,-0.066261515,-0.0491175912,0.141155824
101957.677591,0.830753928,-0.775160124,-0.0148129537,-0.103530034,-0.0479904339,0.254981607
101957.687620,0.589866685,-0.569723403,0.1482669,-0.142628163,-0.0463267602,0.336141437
101957.697648,0.418305455,-0.385743677,0.0897819777,-0.187676072,-0.0618852116,0.376447856
101957.707677,0.207834795,-0.103043464,0.0213064074,-0.195190176,-0.0469137207,0.379528314
101957.717706,-0.0189857824,0.200878692,0.269131998,-0.149914041,-0.00319313654,0.354045063
101957.727734,-0.222020228,0.476233364,0.4235884,-0.0969948992,0.0245860294,0.298694462
101957.737763,-0.336360966,0.757809468,0.263266321,-0.0424150154,0.00322428253,0.211332396
101957.747792,-0.493495136,0.909946488,0.201199449,0.00662443275,-0.028187437,0.109702975
101957.757820,-0.605329298,0.976891853,0.436598689,0.0529080406,-0.0411562324,0.00974468235
101957.767849,-0.607293949,0.957033744,0.691388858,0.101084895,-0.0182485189,-0.0698899627
101957.777877,-0.537180037,0.804739489,1.01280342,0.113549821,0.0179654118,-0.130642787
101957.787906,-0.479756168,0.616301614,1.17326695,0.087524876,0.0329550132,-0.179004192
101957.797935,-0.378935458,0.475481962,1.0531857,0.0811372846,0.0569439679,-0.2103315
101957.807963,-0.268585909,0.369385393,0.87657416,0.099947989,0.0966335982,-0.225803122
101957.817992,-0.355016713,0.319384076,0.797555569,0.0831197426,0.13523452,-0.240674227
101957.828020,-0.389806506,0.368375997,0.765116942,0.0340392776,0.158256739,-0.251648039
101957.838049,-0.28481041,0.360868982,0.667809245,-0.0267553627,0.195213437,-0.249044001
101957.848078,-0.0590434329,0.289506385,0.457872947,-0.0709188282,0.245047837,-0.24002254
101957.858106,0.174149529,0.291658522,0.172055187,-0.131476983,0.284530789,-0.233183816
101957.868135,0.378054218,0.304159034,-0.359381009,-0.158388481,0.293112308,-0.230658874
101957.878164,0.585930222,0.332584334,-1.35391636,-0.099157922,0.259667784,-0.232412562
101957.888192,0.717999436,0.323747166,-2.39625801,0.0381354876,0.193389967,-0.202600345
101957.898221,0.901692746,0.0695151425,-3.06383461,0.189747393,0.0716430247,-0.131045729
101957.908249,0.955531085,-0.236395192,-3.24765213,0.249330819,-0.120227076,-0.039034307
101957.918278,0.840215072,-0.459188925,-2.66031869,0.216398969,-0.319301039,0.0614859089
101957.928307,0.62546984,-0.583141468,-1.52094583,0.181246847,-0.434960246,0.157968774
101957.938335,0.347174073,-0.505682965,-0.104586164,0.166883081,-0.415761799,0.251580745
101957.948364,-0.0273040404,-0.419902478,1.39806705,0.138281271,-0.316669017,0.321953982
101957.958393,-0.473661103,-0.206737501,2.6058962,0.0367703512,-0.197245955,0.319074839
101957.968421,-0.963760422,0.192409847,3.39666839,-0.106884018,-0.0947699249,0.253401548
101957.978450,-1.30385952,0.492940169,3.56701561,-0.205752537,-0.00380566367,0.140650764
101957.988478,-1.44846263,0.777907888,3.1285219,-0.217784703,0.0823670402,0.00757047813
101957.998507,-1.3036466,0.989225411,2.32474059,-0.165968373,0.13173379,-0.141070396
101958.008536,-1.05874523,1.1007896,1.21944535,-0.0803450868,0.143141702,-0.286167681
101958.018564,-0.634248628,1.02050946,0.342175607,0.0168919843,0.161830977,-0.38777259
101958.028593,-0.133199752,0.742037095,0.0658779551,0.104073763,0.185854018,-0.438315123
101958.038622,0.370699472,0.446175714,-0.122734984,0.148414865,0.181089088,-0.436284989
101958.048650,0.835003986,0.1311955,-0.373698288,0.153229058,0.151585266,-0.383486509
101958.058679,1.08581078,-0.152597038,-0.646150371,0.119981885,0.0953153297,-0.281475186
101958.068708,1.19101355,-0.426030898,-0.858944396,0.0686630383,0.0473233014,-0.159502938
101958.078736,1.07967031,-0.64506506,-0.822031254,0.0236212593,0.043501664,-0.0347639285
101958.088765,0.726446727,-0.698718835,-0.43978141,-0.0248796977,0.0599938221,0.0677177012
101958.098793,0.412608157,-0.609979206,-0.105921212,-0.0949599817,0.0575612895,0.146539018
101958.108822,0.347058849,-0.495173919,-0.129331898,-0.164115876,0.0290263183,0.191785321
101958.118851,0.288090893,-0.285264364,-0.464423684,-0.182716727,0.0275197681,0.213583827
101958.128879,0.229033212,-0.0612531448,-0.615675153,-0.150523111,0.0545037165,0.211327597
101958.138908,0.149839921,0.172226964,-0.707844318,-0.127053738,0.0881895125,0.187008947
101958.148937,0.0690868341,0.313504808,-0.72363167,-0.116826661,0.0834948868,0.128932863
101958.158965,-0.107488388,0.507434485,-0.931501098,-0.0703513026,0.0601701215,0.0597625747
101958.168994,-0.155534041,0.604948372,-1.17821902,-0.0154888593,0.0101852529,-0.0109669864
101958.179022,-0.131503689,0.64816551,-1.33328917,0.0640512407,-0.0405857824,-0.0571893416
101958.189051,0.0348836088,0.547491478,-1.42902333,0.118542448,-0.0993564203,-0.0694404095
101958.199080,0.157202559,0.272528436,-1.27146663,0.14727582,-0.145431772,-0.0663277209
101958.209108,0.0807671889,0.0492654776,-0.643916328,0.155408323,-0.144201383,-0.0507444926
101958.219137,-0.0838813754,-0.106297863,0.227183785,0.122414149,-0.11807391,-0.0309777148
101958.229166,-0.244559356,-0.149138276,0.875997822,0.031376116,-0.079143025,-0.0384055339
101958.239194,-0.428460244,-0.0751221687,1.28974989,-0.0265375152,-0.00281629921,-0.0539306961
101958.249223,-0.545999924,-0.0899001242,1.33928227,-0.0502441749,0.0846688151,-0.0809918791
101958.259252,-0.664532342,-0.0385883816,1.11500473,-0.0551531799,0.144060493,-0.109486908
101958.269280,-0.560843639,-0.106714043,0.615928251,-0.0611439608,0.148039266,-0.126413956
101958.279309,-0.334416298,-0.206805817,-0.0973790087,-0.0361965336,0.108618617,-0.118917689
101958.289338,-0.0344809463,-0.287572129,-0.767601744,0.0114564719,0.038017951,-0.0873115659
101958.299366,0.250419699,-0.383103099,-1.18336281,0.0574468672,-0.0458662994,-0.0293015204
101958.309395,0.436027976,-0.448617189,-1.33126205,0.0939420313,-0.129674107,0.0423689373
101958.319423,0.425815867,-0.508981496,-1.10389531,0.0977532789,-0.201299027,0.112053484
101958.329452,0.274877629,-0.496467686,-0.489708348,0.0846313536,-0.217181325,0.188350111
101958.339481,0.0642464083,-0.424278794,0.512664276,0.030065842,-0.196824387,0.255490273
101958.349509,-0.0952304524,-0.313026012,1.38413322,-0.0226889811,-0.158753172,0.308210462
101958.359538,-0.188503341,-0.0767411482,1.76705,-0.0861875266,-0.127973676,0.33374992
101958.369567,-0.339437049,0.20192221,1.80725284,-0.129309967,-0.110213861,0.324416608
101958.379595,-0.503063211,0.410784741,1.77277949,-0.138688818,-0.0769733489,0.279970586
101958.389624,-0.616745266,0.639540086,1.74683899,-0.12200065,-0.0295088962,0.207226589
101958.399653,-0.630814051,0.796195825,1.62091427,-0.0911372751,0.020697549,0.116830915
101958.409681,-0.520945015,0.912078824,1.42530928,-0.0655411035,0.0691295341,0.0305096153
101958.419710,-0.32393414,0.911757702,1.05739308,-0.0453748517,0.0929552391,-0.0518007018
101958.429738,-0.131859955,0.930188188,0.538942042,-0.00440451596,0.0987979472,-0.107487395
101958.439767,0.0226896054,0.79141692,0.184237792,0.0553291216,0.102843821,-0.13086091
101958.449796,0.0657663114,0.561589781,0.0656833093,0.0707405731,0.0944199786,-0.135207444
101958.459824,0.175018348,0.366144877,-0.00184065943,0.0794749409,0.0731314644,-0.115455046
101958.469853,0.371103522,0.196116958,-0.288503638,0.0473095439,0.0454950407,-0.0619449504
101958.479882,0.604646394,-0.0375266706,-0.513939702,0.0171910562,0.00808748137,-0.00957415439
101958.489910,0.71696264,-0.026051483,-0.653448126,0.0178571139,0.0156287551,0.0480470657
101958.499939,0.645714756,0.132372946,-0.445409187,0.0113158571,0.0215889085,0.0981810689
101958.509968,0.498354595,0.308276552,-0.354594359,-0.0239148345,-0.00562220532,0.122126356
101958.519996,0.418730804,0.474268713,-0.400187067,-0.0330036692,-0.0238302387,0.14740774
101958.530025,0.413541638,0.568280584,-0.490080103,-0.0326819606,-0.0580563843,0.166376904
101958.540054,0.364105992,0.651779389,-0.627181466,-0.0110704089,-0.107165605,0.169137537
101958.550082,0.261395851,0.630472324,-0.497567244,0.0216489211,-0.133943155,0.144916356
101958.560111,-0.00944850409,0.843403931,-0.083780107,0.0622661225,-0.114898093,0.105257362
101958.570140,-0.136352188,0.957072104,0.50487786,0.0682204217,-0.0913240537,0.0412895605
101958.580168,-0.173913857,1.07357996,0.847975258,0.0230401568,-0.0564598218,-0.0304813012
101958.590197,-0.0588007467,1.05785544,1.03069329,-0.0153746093,0.00311349519,-0.0852185786
101958.600225,0.0509494121,0.973449969,0.951103624,-0.00752600702,0.077468425,-0.134610906
101958.610254,0.0333459509,1.00353465,0.647291357,-0.00179941207,0.138773859,-0.183686033
101958.620283,0.0147333857,1.03930162,0.412504696,-0.0144323837,0.161699951,-0.238827318
101958.630311,0.0258569834,1.09468733,0.131586983,-0.0302161407,0.187712371,-0.270268857
101958.640340,0.262119635,0.895532835,-0.236304664,-0.0258890353,0.216076106,-0.26824379
101958.650369,0.45843175,0.640218204,-0.496603368,-0.0126949372,0.230897397,-0.236734346
101958.660397,0.637092327,0.505702693,-0.778006818,-0.0356990546,0.207628816,-0.199220791
101958.670426,0.76414269,0.372479925,-1.08205406,-0.0893271267,0.162280247,-0.159565255
101958.680455,0.793281252,0.269207036,-1.37567285,-0.0892348289,0.14324832,-0.106943741
101958.690483,0.736613901,0.201448674,-1.48615041,-0.056268625,0.117301956,-0.0675622374
101958.700512,0.487987515,0.175785168,-1.50278006,-0.0540099964,0.0528412014,-0.0519041866
101958.710541,0.302817045,0.249647619,-1.52419402,-0.0474791266,-0.0325858146,-0.0474516489
101958.720569,0.171683943,0.248044933,-1.38963883,-0.00968940184,-0.0699129403,-0.0420528874
101958.730598,-0.0365608213,0.199269577,-0.856863498,0.0188772622,-0.0728392228,-0.0466013029
101958.740627,-0.331073344,0.307506956,-0.212350957,0.00674709585,-0.0708218813,-0.0738957673
101958.750655,-0.52306029,0.372924235,0.390260131,-0.00713063637,-0.0511238128,-0.103538081
101958.760684,-0.556265809,0.374525752,0.83976857,-0.031004278,-0.0309767313,-0.136754632
101958.770713,-0.500510093,0.306572817,0.793069363,-0.0260851532,-0.0254288353,-0.156118751
101958.780741,-0.365821198,0.221251545,0.581733136,0.00477955258,-0.0212178435,-0.1653402
101958.790770,-0.285589943,0.158286044,0.647006695,0.0144071458,-0.000567693147,-0.160005897
101958.800799,-0.258645895,0.0516594601,0.852005536,0.00950240251,0.0252266191,-0.161278352
101958.810827,-0.279136017,0.0785043585,0.943780734,-0.00400861306,0.0742253214,-0.157655388
101958.820856,-0.248956568,-0.0255159149,1.00718207,-0.0231375657,0.119183213,-0.160134524
101958.830885,-0.288754033,-0.0815581201,0.886115896,-0.0535474047,0.136564329,-0.159039706
101958.840913,-0.18446298,-0.0975279888,0.587264466,-0.0804325491,0.13134186,-0.13529548
101958.850942,0.0456635807,-0.186440636,0.197027131,-0.0797688887,0.111192927,-0.0856677443
101958.860971,0.223336389,-0.169176636,-0.270226808,-0.0571203008,0.0930607989,-0.0261463597
101958.870999,0.346828255,-0.161765191,-0.617564328,-0.0360203423,0.0584902987,0.0317473002
101958.881028,0.375756974,-0.185497291,-0.851373083,-0.026889693,0.010493746,0.0833297968
101958.891056,0.335023763,-0.227776563,-0.88606738,-0.0212038439,-0.0570054017,0.123804256
101958.901085,0.219246051,-0.172596381,-0.917244609,-0.00305946218,-0.122304775,0.160157472
101958.911114,0.0899275967,-0.026192572,-0.844678554,0.0422592834,-0.155663013,0.18032372
101958.921142,-0.195150597,0.16247765,-0.376201211,0.0771493539,-0.160872951,0.172789365
101958.931171,-0.551828996,0.347183718,0.212287829,0.0535409637,-0.173083276,0.136751205
101958.941200,-0.756449359,0.458348529,0.618479104,0.0243330132,-0.179824531,0.0863809884
101958.951228,-0.802326728,0.570863513,0.847279677,0.0417956263,-0.148331329,0.0235319808
101958.961257,-0.779377815,0.680692326,0.979504373,0.0828016475,-0.117584594,-0.039886672
101958.971286,-0.707673638,0.691916754,1.02030049,0.0983742177,-0.0823003724,-0.0996991396
101958.981314,-0.575051101,0.691277433,1.17492699,0.0973092169,-0.0803943425,-0.133457899
101958.991343,-0.324823783,0.478688795,1.01487672,0.0890195966,-0.0769857615,-0.130108446
101959.001372,-0.114116793,0.216278506,0.819188724,0.100226447,-0.0757074505,-0.113005623
101959.011400,-0.0918538156,0.191400305,0.761394706,0.11331588,-0.0417817086,-0.097088173
101959.021429,-0.112267512,0.16171726,1.0691069,0.075481154,-0.00508601218,-0.0717098564
101959.031458,-0.118926093,0.105820016,1.24790747,-0.00313749281,0.0161234029,-0.0501449034
101959.041486,-0.0292230988,0.107497667,1.04438455,-0.0694355592,0.0320280679,-0.0151720066
101959.051515,0.0964968921,0.182204825,0.554304446,-0.0780474246,0.0478786677,0.0109554688
101959.061544,0.0792453862,0.275303453,0.0073193831,-0.0566992573,0.0685418695,0.026044406
101959.071572,0.137187653,0.296889262,-0.251658885,-0.0327214859,0.0856300443,0.0409282818
101959.081601,0.198244398,0.308614698,-0.399584424,-0.0674054325,0.0721509904,0.034350805
101959.091630,0.256545269,0.409418932,-0.633959582,-0.0735647902,0.0290282816,0.0242867209
101959.101658,0.400324356,0.477735659,-1.02740886,-0.0712979063,0.0149920918,0.0146916173
101959.111687,0.507955587,0.510801112,-1.24585288,-0.00401553698,0.0105488738,0.0114604039
101959.121716,0.484806693,0.643181803,-1.46724113,0.0368027315,-0.0217265077,-0.00325436052
101959.131744,0.411483756,0.670248162,-1.37252637,0.0555649661,-0.0685179755,-0.00145299826
101959.141773,0.518482899,0.609900369,-1.27869599,0.0707092956,-0.134300455,0.00472979667
101959.151802,0.536094105,0.630127457,-1.25721248,0.0981462523,-0.1835953,0.0252483878
101959.161830,0.514277483,0.583016965,-0.984306221,0.121219344,-0.209185094,0.0460063964
101959.171859,0.377742522,0.591304755,-0.484762123,0.126927838,-0.210275918,0.0574718378
101959.181888,0.18459552,0.618269407,0.248098563,0.11655961,-0.18797408,0.0561767407
101959.191916,-0.0193592189,0.659972048,0.863601281,0.0689172596,-0.145179212,0.0327353328
101959.201945,-0.243109997,0.695072295,1.39967274,-0.0153238513,-0.0936656743,-0.0103990883
101959.211974,-0.379459007,0.748552907,1.82940914,-0.0893805027,-0.0056008012,-0.0618465655
101959.222002,-0.410988629,0.73211564,2.03459444,-0.121312074,0.115919508,-0.11176832
101959.232031,-0.328815738,0.73621723,1.84730837,-0.132100523,0.215722799,-0.153385282
101959.242060,-0.158048655,0.670184011,1.22711778,-0.136610866,0.257361323,-0.193206728
101959.252088,0.0650271104,0.511724876,0.362647317,-0.129918873,0.263866365,-0.206919074
101959.262117,0.331362537,0.26062567,-0.289994169,-0.0975505486,0.256323755,-0.197764188
101959.272146,0.484864488,0.0758105163,-1.01818569,-0.024283791,0.22089386,-0.165530086
101959.282175,0.586539221,-0.00232398597,-1.59049692,0.0798500627,0.166462839,-0.114653319
101959.292203,0.573484874,-0.00860964211,-1.78404615,0.13977918,0.0829445124,-0.0624780022
101959.302232,0.400845384,-0.0925562648,-1.4984546,0.0995721072,-0.0136512714,-0.0178721845
101959.312261,0.169519093,-0.110277872,-0.899579773,0.0123908669,-0.0879409462,0.0219745636
101959.322289,-0.022495398,-0.119863593,-0.404941568,-0.0356677398,-0.0940616876,0.0575053915
101959.332318,-0.174119646,-0.0146921038,-0.111211135,-0.0268915575,-0.0447391495,0.0775582045
101959.342347,-0.285146071,0.185344658,-0.0234802443,-0.0190677233,-0.014606813,0.06951572
101959.352375,-0.342916854,0.398414504,-0.19832477,-0.0390371718,-0.0361994579,0.0333526507
101959.362404,-0.323429844,0.646930415,-0.299960267,-0.0337507986,-0.044068832,-0.00817801245
101959.372433,-0.328291386,0.818885357,-0.196926009,-0.000613082433,-0.0290283635,-0.0484892167
101959.382461,-0.216445022,0.869861438,-0.109301502,0.0170391481,-0.0120597659,-0.0765200555
101959.392490,-0.0482605384,0.856548733,-0.032151042,0.0255194511,-0.0111734662,-0.0882150531
101959.402519,0.159736608,0.78433836,-0.067518708,0.032535281,-0.0347941071,-0.0781733394
101959.412547,0.267493072,0.655543199,-0.132381349,0.0104837772,-0.0706596896,-0.0466473736
101959.422576,0.296948957,0.399070411,0.0689572164,0.000202643801,-0.0768978819,-0.00338059384
101959.432605,0.163114121,0.230459811,0.535829463,-0.0193297789,-0.0296651255,0.0337233655
101959.442633,-0.0694646544,0.215094192,1.10795949,-0.0477052294,0.0289353374,0.0569333471
101959.452662,-0.205079432,0.266859669,1.23422148,-0.107279874,0.0452269576,0.0618199818
101959.462691,-0.285596884,0.390333635,0.925358942,-0.146947116,0.0399373882,0.0428074077
101959.472720,-0.343151905,0.45674935,0.575524929,-0.12449535,0.0493268967,0.013006635
101959.482748,-0.345179027,0.529939236,0.293998728,-0.0667782575,0.0616000742,-0.017341949
101959.492777,-0.258897093,0.519052808,0.0334422509,-0.00560997147,0.0571640469,-0.0383143425
101959.502806,-0.116208797,0.488150962,-0.281715001,0.0469573624,0.0347801782,-0.0591354705
101959.512834,-0.0554915125,0.432843866,-0.359786667,0.0781965107,0.00750195142,-0.0609783791
101959.522863,-0.0124480512,0.403420715,-0.219364051,0.0949579105,-0.0168585163,-0.0533750542
101959.532892,-0.0342963835,0.341743207,0.0696048666,0.0843044668,-0.0294933505,-0.0275818035
101959.542920,-0.0608543547,0.221882829,0.469083493,0.0480977297,-0.0393888578,-0.00298325066
101959.552949,-0.0828141115,0.246237883,0.72268416,0.00938469078,-0.0389036313,0.0125746708
101959.562978,-0.115099082,0.33473384,0.75880469,0.00398326712,-0.0261665303,0.0197159369
101959.573006,-0.163446787,0.396268943,0.679403236,0.0279908646,-0.0176097937,0.0204064958
101959.583035,-0.216296553,0.460551884,0.540528434,0.0496868379,-0.0070050857,0.0204174146
101959.593064,-0.291516337,0.502335701,0.667922642,0.0737088174,-0.000245983247,0.0174043141
101959.603093,-0.363316887,0.548286136,0.900903715,0.0623882487,-0.00802188087,-0.00167244207
101959.613121,-0.329534152,0.665359367,0.948707669,0.0360876732,-0.0216687173,-0.018012533
101959.623150,-0.173893143,0.702589393,0.94203009,0.0248802938,0.00129811745,-0.0329802968
101959.633179,-0.0392192999,0.740425787,1.01159872,0.0479264893,0.0676169544,-0.0426214747
101959.643207,-0.0412852925,0.816227682,1.07200964,0.0494242497,0.131485417,-0.0692213923
101959.653236,-0.153184044,0.939238852,0.915185338,0.00630527735,0.137854621,-0.117131934
101959.663265,-0.177991957,1.01200211,0.510671641,-0.0116806468,0.13692306,-0.162036821
101959.673293,-0.116111255,0.953553136,0.112647305,0.0393343307,0.166171491,-0.184589535
101959.683322,-0.0883047448,0.828040431,-0.113780108,0.102319442,0.165261462,-0.202124447
101959.693351,-0.108258276,0.755015819,-0.416421578,0.102549806,0.112894394,-0.209991693
101959.703380,0.0973338544,0.555496652,-0.577507042,0.0927773342,0.0330110118,-0.182150468
101959.713408,0.451506043,0.279461304,-0.667418784,0.0910832956,-0.0133785894,-0.115360789
101959.723437,0.64429561,0.0955108037,-0.583919832,0.0867588595,-0.0415295325,-0.0490526035
101959.733466,0.535533256,0.0534101762,-0.5303069,0.0662658364,-0.0712589324,-0.0186020192
101959.743494,0.25282128,0.234675456,-0.408646852,0.0435248315,-0.0635043383,-0.0186030846
101959.753523,-0.0917324542,0.386934056,0.0292108969,0.0177334491,0.00240836339,-0.0524491966
101959.763552,-0.412168669,0.57740497,0.546958175,0.0186889917,0.071423918,-0.123774245
101959.773580,-0.572228737,0.841231044,0.343618792,-0.0126191303,0.104819693,-0.182991758
101959.783609,-0.32549043,0.811517166,-0.195453014,-0.0167667381,0.0976571143,-0.224630013
101959.793638,-0.055139192,0.752357121,-0.911253259,0.038551379,0.0891328752,-0.22849533
101959.803667,0.277930295,0.594706672,-1.43793379,0.108657762,0.0629249737,-0.201442942
101959.813695,0.449433328,0.416101552,-1.71052674,0.151590317,0.0344041139,-0.160625473
101959.823724,0.444125285,0.213676068,-1.24302029,0.125735551,-0.0240011401,-0.132954165
101959.833753,0.26455373,0.0607462182,-0.885311009,0.0686576143,-0.0656950548,-0.110039525
101959.843781,0.105273269,-0.0397210389,-0.480461211,0.0593179092,-0.0685656816,-0.0805287659
101959.853810,-0.00288534618,-0.158537461,-0.324597865,0.0682576075,-0.0810351297,-0.0601683706
101959.863839,-0.0869911049,-0.097942707,-0.302421689,0.0774511099,-0.100681007,-0.0442900732
101959.873868,-0.108743722,-0.0505279718,-0.194582661,0.0753685161,-0.115446903,-0.0286016576
101959.883896,-0.221717044,0.0266094822,0.0675146163,0.0643400997,-0.0856048465,-0.0157396533
101959.893925,-0.351612859,-0.00321757381,0.635756987,0.0294031538,-0.0285652652,-0.0149220619
101959.903954,-0.459356537,0.0329135508,1.02651805,-0.0381154381,0.0237701107,-0.0237626918
101959.913982,-0.470818281,0.0204193954,1.10963999,-0.108501181,0.0792418942,-0.0307489634
101959.924011,-0.454516038,0.0880222746,1.15767717,-0.142667949,0.146050751,-0.0434493124
101959.934040,-0.399139165,0.16404826,0.826233966,-0.131428614,0.202951863,-0.0481457971
101959.944069,-0.25324367,0.177183636,0.210100548,-0.109481491,0.224482983,-0.0465138108
101959.954097,-0.0802179575,0.186397747,-0.362299527,-0.0874867141,0.203803271,-0.0350712724
101959.964126,0.0678979896,0.146811806,-0.957944868,-0.0629382282,0.118483573,-0.00879865699
101959.974155,0.231415504,0.10560652,-1.64510705,0.016475372,0.00658020517,0.0353901088
101959.984183,0.285031505,0.000266176656,-1.89727914,0.116732471,-0.0812543109,0.100407727
101959.994212,0.109659229,-0.0766684483,-1.47910868,0.165295467,-0.16074726,0.15667446
101960.004241,-0.195012211,-0.064251669,-0.739651661,0.162989974,-0.229855224,0.20327659
101960.014270,-0.411933618,0.017995237,-0.010468787,0.157909721,-0.254162461,0.241220772
101960.024298,-0.632943391,0.101639077,0.713155284,0.156100646,-0.247020096,0.26671201
101960.034327,-0.842066107,0.26138248,1.37472242,0.128820553,-0.227312967,0.258423209
101960.044356,-1.02978115,0.49932987,1.89812612,0.0640575364,-0.220537633,0.210785106
101960.054384,-1.1380121,0.691957013,2.20585585,0.0049856957,-0.19550924,0.126035064
101960.064413,-1.12983902,0.960701692,2.42136965,-0.00956927799,-0.128768563,0.0176294893
101960.074442,-1.09534214,1.19546271,2.51287422,-0.0186951328,-0.0256869216,-0.116408467
101960.084471,-1.03607893,1.34978175,2.3978707,-0.0247048214,0.0589547306,-0.267691195
101960.094499,-0.847459417,1.47614135,1.88431912,-0.0219449885,0.123776339,-0.399029255
101960.104528,-0.501647572,1.29298492,1.16800976,0.00872077979,0.181059346,-0.492235124
101960.114557,-0.12163959,1.0474736,0.512834372,0.0443520099,0.217955574,-0.527203441
101960.124585,0.226805088,0.746217742,0.107747843,0.0683039501,0.241545856,-0.496417344
101960.134614,0.680339494,0.473851876,-0.313842078,0.0644538179,0.219637096,-0.410956472
101960.144643,1.09069688,0.222953381,-0.880263662,0.0348735526,0.150676131,-0.292841554
101960.154672,1.36535955,0.00903195917,-1.45271751,-0.0114494702,0.0616160259,-0.16298157
101960.164700,1.44655899,-0.0867388837,-1.6952789,-0.0286260601,-0.00841605477,-0.0281822085
101960.174729,1.35935826,-0.12737901,-1.67589031,-0.0319227874,-0.059966065,0.0794505104
101960.184758,0.992237744,0.0340725116,-1.33184891,-0.0655742213,-0.0944097936,0.130224213
101960.194787,0.509215304,0.310531419,-0.780692697,-0.0927432552,-0.107741043,0.138388395
101960.204815,0.0202560946,0.497754876,-0.391883933,-0.103760757,-0.0955584124,0.127475291
101960.214844,-0.344028322,0.55763286,-0.117514619,-0.094508931,-0.0865036696,0.0858591422
101960.224873,-0.553016014,0.7661948,-0.070136197,-0.0814692974,-0.0952153951,-0.00145285949
101960.234901,-0.689085622,0.978905531,-0.0469090507,-0.0586766377,-0.101362243,-0.0949969217
101960.244930,-0.554321909,0.992111561,0.116622054,-0.00392923597,-0.0891543105,-0.17951794
101960.254959,-0.391650563,0.91647019,0.192654323,0.0497813933,-0.0824458078,-0.259954721
101960.264988,-0.225251721,0.806204666,0.17441081,0.086110644,-0.0631245747,-0.320937634
101960.275016,-0.139975384,0.547138135,0.379991835,0.104808435,-0.0102613596,-0.368884146
101960.285045,-0.216847173,0.414783382,0.813286222,0.0940545872,0.0868641213,-0.388344914
101960.295074,-0.177666159,0.207206872,1.15605512,0.039433416,0.162340254,-0.382258534
101960.305103,-0.0722985627,0.00445566423,1.04615273,-0.0336037762,0.220048279,-0.338476419
101960.315131,0.179998328,-0.247828733,0.648674336,-0.0882952437,0.240995109,-0.270441175
101960.325160,0.399186657,-0.467640966,-0.185810741,-0.128287151,0.241985813,-0.176421747
101960.335189,0.573296366,-0.711973381,-0.763511845,-0.159897268,0.227414057,-0.0722788274
101960.345217,0.597307575,-0.80433405,-1.21284785,-0.137925923,0.193411887,0.0289737564
101960.355246,0.589224734,-0.707380135,-1.71445005,-0.110519059,0.118439093,0.101683378
101960.365275,0.479576099,-0.53848648,-2.11731247,-0.0709873661,0.00893097743,0.14843145
101960.375304,0.343585109,-0.362972092,-2.2223493,-0.0224171653,-0.0860352144,0.183829114
101960.385332,0.1600022,-0.23559827,-1.80993988,0.0392099768,-0.118045613,0.199114069
101960.395361,-0.178731304,-0.0672739395,-0.910845848,0.064317733,-0.122094415,0.191124573
101960.405390,-0.48702225,0.158206183,-0.0845803174,0.0346184224,-0.128142446,0.159794092
101960.415419,-0.651568669,0.285041734,0.389550522,0.0117008565,-0.129708648,0.117564075
101960.425447,-0.694672629,0.357171151,0.544928715,0.0260784645,-0.119539648,0.0755732134
101960.435476,-0.693223087,0.436066993,0.582469633,0.0622471161,-0.0944657177,0.0249931291
101960.445505,-0.686658614,0.572613791,0.776554866,0.0985683799,-0.0621394739,-0.0295124575
101960.455534,-0.550396917,0.640768312,0.946555459,0.0853561684,-0.0519001484,-0.0750815421
101960.465562,-0.368337784,0.616737448,0.971421605,0.0573298596,-0.0526943021,-0.109230988
101960.475591,-0.203753663,0.567284266,0.78427114,0.0619760081,-0.0273500644,-0.122963309
101960.485620,-0.134632635,0.48931986,0.758069946,0.0693644211,0.007140534,-0.131831631
101960.495648,-0.119184452,0.439980659,0.798714675,0.0411831141,0.0432468727,-0.1363433
101960.505677,-0.0124296388,0.324011589,0.843051245,0.00482830266,0.0810725465,-0.119810656
101960.515706,0.138524601,0.234634905,0.762787038,-0.051931385,0.126102075,-0.0830462575
101960.525735,0.275014846,0.192722347,0.499780244,-0.0948013514,0.141475439,-0.0323545821
101960.535763,0.426121864,0.229277323,-0.152137604,-0.102888301,0.104149103,0.0251798164
101960.545792,0.571166295,0.182609826,-0.966036404,-0.0688682869,0.0268367417,0.0861622095
101960.555821,0.643090618,0.159689992,-1.42154028,-0.0147728287,-0.0511677787,0.154497862
101960.565850,0.577911751,0.14128632,-1.43557466,0.0287400279,-0.141409516,0.202854738
101960.575878,0.382166695,0.280676232,-1.15510644,0.0530749261,-0.1832515,0.23489283
101960.585907,0.117009227,0.374117244,-0.331524449,0.0485568717,-0.15983513,0.258662611
101960.595936,-0.206829052,0.475929121,0.589243073,-0.00392337702,-0.11725945,0.237831101
101960.605965,-0.612460356,0.720414315,1.13916477,-0.0647952482,-0.0735093057,0.170530617
101960.615993,-0.805100723,0.939694268,1.20567518,-0.0978996679,-0.0300790071,0.0791051015
101960.626022,-0.792044404,0.966590677,1.0094921,-0.0763341933,0.0289102774,-0.0291963406
101960.636051,-0.709019134,1.05723336,0.586944733,-0.00539983343,0.0870066062,-0.138492465
101960.646080,-0.569788285,1.06812279,0.232988672,0.0451517552,0.103091829,-0.232622698
101960.656108,-0.26880262,0.914704642,-0.201303494,0.0764295235,0.0835799128,-0.283085883
101960.666137,0.179656164,0.617240795,-0.640015229,0.11207433,0.05958803,-0.279245049
101960.676166,0.557930601,0.39689745,-0.6347142,0.104223602,0.0348922722,-0.234656557
101960.686195,0.722745388,0.250835805,-0.503270424,0.0687411204,-0.00397349335,-0.166797817
101960.696223,0.836453674,0.107902156,-0.572863016,0.0502430685,-0.029805623,-0.076445289
101960.706252,0.820777016,0.00668788027,-0.610126287,0.0553946868,-0.0306170881,0.0265777688
101960.716281,0.620247137,-0.109883466,-0.375911288,0.0463447347,-0.0114090396,0.1181724
101960.726310,0.227061254,-0.106034609,0.0803027862,-0.0153106423,-0.0236657057,0.170417771
101960.736338,-0.0856311417,-0.0100275461,0.294483297,-0.0975634381,-0.0481827669,0.184106678
101960.746367,-0.256017665,0.150387838,0.303044789,-0.111071259,-0.0587629713,0.167490691
101960.756396,-0.381149773,0.409800479,0.142849551,-0.0508470647,-0.045030117,0.132087424
101960.766425,-0.487203306,0.612298735,0.0300444251,0.0164009482,-0.0375213325,0.0741319731
101960.776453,-0.580194893,0.745812814,0.000526654223,0.0634520799,-0.0304975137,0.00444876496
101960.786482,-0.620208339,0.765017938,0.314224355,0.0905814394,0.00364154903,-0.056209527
101960.796511,-0.554029429,0.714497346,0.654028557,0.0653892681,0.0242171306,-0.112807289
101960.806540,-0.384462843,0.735907141,0.538930351,0.0288887769,0.0395843685,-0.157117218
101960.816568,-0.166403518,0.792855939,0.155167765,0.035179697,0.0694019198,-0.184064686
101960.826597,-0.0420594187,0.702970136,-0.2771493,0.0468970723,0.107507229,-0.193262979
101960.836626,0.0320808994,0.569315845,-0.532366755,0.0495961867,0.132426158,-0.192766294
101960.846655,0.107953083,0.539065668,-0.726753017,0.000423313235,0.135058165,-0.187904969
101960.856683,0.213363568,0.528569628,-0.910613208,-0.0609316565,0.123674214,-0.164924547
101960.866712,0.424582307,0.503192902,-1.25651923,-0.086286813,0.0834397152,-0.129273072
101960.876741,0.656079644,0.555487738,-1.9942899,-0.0358673148,0.0146135064,-0.069116801
101960.886770,0.834820958,0.44325252,-2.51892577,0.0458320752,-0.056094218,-0.00121178385
101960.896798,0.828807543,0.416649687,-2.51937644,0.0923207477,-0.152648717,0.0465378985
101960.906827,0.578418239,0.455263203,-2.24942143,0.0868839025,-0.265823483,0.0574312881
101960.916856,0.295719342,0.45729544,-1.65369367,0.0967573076,-0.343107879,0.054347083
101960.926885,0.0774665399,0.452108466,-0.921643136,0.146895841,-0.357891887,0.0433306471
101960.936913,-0.109338692,0.50685917,-0.205359491,0.196467116,-0.344436556,0.0192498155
101960.946942,-0.358744099,0.542898451,0.592408844,0.200928986,-0.320116818,-0.0320109725
101960.956971,-0.597282076,0.592079465,1.42518478,0.146138445,-0.270443797,-0.0985950604
101960.967000,-0.742836867,0.594113675,2.12170106,0.0810606331,-0.189984635,-0.170266852
101960.977028,-0.737027596,0.582089621,2.45959271,0.0412295982,-0.0686827153,-0.228441462
101960.987057,-0.599546733,0.521917549,2.4232524,0.00653180573,0.0392016731,-0.268858671
101960.997086,-0.435413936,0.36495406,1.99510356,-0.0310850777,0.103079192,-0.297945976
101961.007115,-0.226392196,0.163526355,1.46419168,-0.065594852,0.161826402,-0.284298331
101961.017144,0.128611986,-0.12930501,1.05297001,-0.0929713473,0.187704071,-0.231074005
101961.027172,0.405603027,-0.280457914,0.419466352,-0.114053465,0.183307454,-0.1440925
101961.037201,0.604536285,-0.476373942,-0.0710457131,-0.100220472,0.16915755,-0.0227093529
101961.047230,0.772565943,-0.645061552,-0.654003422,-0.0722170696,0.0970652401,0.0942175314
101961.057259,0.832717994,-0.603790362,-1.2269547,-0.0331495591,-0.0119051868,0.194824308
101961.067287,0.778926783,-0.453857355,-1.44786189,0.0146342078,-0.109778747,0.284623176
101961.077316,0.513224175,-0.379340093,-1.08436059,0.0518707931,-0.173234418,0.34823516
101961.087345,0.19539785,-0.24632147,-0.247671862,0.0573981851,-0.187076196,0.381560892
101961.097374,-0.122895727,0.0632448301,0.606498744,0.0271033924,-0.142283157,0.386300266
101961.107402,-0.382235011,0.349529769,1.28720546,-0.0288970247,-0.0739057064,0.353139907
101961.117431,-0.566816649,0.755156323,1.57372582,-0.102944352,0.000134964823,0.280174613
101961.127460,-0.6689278,1.1672021,1.46395495,-0.125685349,0.076985538,0.20127289
101961.137489,-0.578303454,1.3827026,1.03779056,-0.124291189,0.159332618,0.129270598
101961.147517,-0.330805268,1.48097929,0.459291582,-0.123649366,0.188396215,0.0714584216
101961.157546,0.0630515725,1.56990042,-0.408944374,-0.124752179,0.17452994,0.0396653414
101961.167575,0.532644257,1.55527509,-1.27425421,-0.078693606,0.145506546,0.0429863036
101961.177604,0.86712361,1.54603746,-1.93874805,-0.0051578735,0.101340681,0.0665350407
101961.187633,1.00224279,1.49162592,-2.28063841,0.0494566374,-0.00533596706,0.0855859593
101961.197661,0.903148936,1.44716163,-2.26610836,0.0743286982,-0.145119965,0.0920286775
101961.207690,0.626530236,1.39044226,-1.82813546,0.113206059,-0.260360539,0.0798492432
101961.217719,0.22238676,1.32906775,-0.967861866,0.170829937,-0.293607444,0.0783906281
101961.227748,-0.0649456426,1.18044853,0.129160633,0.214773163,-0.269272029,0.0638282001
101961.237776,-0.307500234,1.13939778,1.10372697,0.171146855,-0.22216548,0.0196306482
101961.247805,-0.561937425,1.14438287,1.90244866,0.0819509327,-0.185504138,-0.0639768988
101961.257834,-0.806759231,1.24114835,2.16335117,0.0160123929,-0.124602705,-0.184297711
101961.267863,-0.912846447,1.28910165,2.34975578,-0.0126432199,-0.00362302153,-0.298745185
101961.277891,-0.801273347,1.17624392,2.28043616,-0.0169498194,0.10970141,-0.412503719
101961.287920,-0.600213234,1.19483069,1.62416597,-0.0132959606,0.222766444,-0.497421265
101961.297949,-0.204838755,1.02355782,1.08487906,0.00163691561,0.299768806,-0.538327932
101961.307978,0.172819669,0.757565942,0.311360198,-0.0133207282,0.302502275,-0.547627449
101961.318007,0.569663343,0.509961008,-0.476775216,0.00714646326,0.260624051,-0.498823166
101961.328035,1.0700512,0.27766894,-1.28886901,0.0533251464,0.200662747,-0.386507004
101961.338064,1.47969904,0.0482383265,-1.88052967,0.100580007,0.123790063,-0.222294897
101961.348093,1.69767179,-0.171268348,-2.12657773,0.0893475935,0.0412317999,-0.0274955872
101961.358122,1.57037388,-0.3917568,-1.77400757,0.0273025967,-0.030894056,0.150103182
101961.368150,1.08750656,-0.403336982,-1.11390934,-0.053187184,-0.054092586,0.285000801
101961.378179,0.468201522,-0.183457675,-0.338383229,-0.121115632,-0.0307758115,0.365402699
101961.388208,-0.105992889,0.139012384,0.239351777,-0.164536074,-0.00774239935,0.375129908
101961.398237,-0.526582326,0.505919331,0.419757444,-0.184450135,0.01469127,0.340574324
101961.408266,-0.717436907,0.757244747,0.379348861,-0.148748055,0.0324241966,0.263676345
101961.418294,-0.846355328,1.04836807,0.0542459695,-0.0914608017,0.0395366997,0.155408457
101961.428323,-0.862227947,1.32035312,-0.0754693747,-0.0351586491,0.0632319078,0.0325903893
101961.438352,-0.756837774,1.48579356,0.0255202257,0.00448250351,0.095260419,-0.0782751441
101961.448381,-0.569928424,1.61519706,-0.108365682,0.0359914303,0.128274828,-0.170270577
101961.458409,-0.437620433,1.58350458,-0.163572021,0.0527999699,0.186638266,-0.233285755
101961.468438,-0.412314215,1.38945062,-0.190577517,0.0501192324,0.193392843,-0.282472223
101961.478467,-0.332593321,1.25668085,-0.770331462,0.0433508083,0.1557962,-0.313082308
101961.488496,-0.184511787,1.0648841,-1.34121646,0.0734975263,0.100678086,-0.309588253
101961.498525,-0.0252984727,0.842404326,-1.63275201,0.156585753,0.0608755425,-0.267951846
101961.508553,0.145194945,0.687731577,-1.59598617,0.176862523,0.00777557399,-0.203707621
101961.518582,0.230746373,0.523169522,-1.13884796,0.0988148674,-0.0633444041,-0.137892932
101961.528611,0.228247468,0.438256539,-0.634218525,-0.0112077761,-0.0949952751,-0.0705037713
101961.538640,0.119027727,0.463114136,-0.267013106,-0.0702601746,-0.078498587,-0.03010788
101961.548668,-0.127199343,0.558130361,-0.157017777,-0.0838952959,-0.0336006284,-0.0295803081
101961.558697,-0.381224007,0.749226568,-0.190245508,-0.0719446242,-0.0125443451,-0.0760266408
101961.568726,-0.626008039,1.00612577,-0.358451035,-0.0533285961,-0.0352251567,-0.143672526
101961.578755,-0.628182679,1.08935752,-0.525252539,-0.0362872966,-0.0917874947,-0.209376171
101961.588784,-0.464355953,1.00700949,-0.588009732,0.0122735817,-0.146547422,-0.245692372
101961.598812,-0.274322991,0.849981848,-0.510388147,0.0739300251,-0.191626742,-0.259092867
101961.608841,-0.11726532,0.61628627,-0.260603239,0.12060938,-0.261357099,-0.260367185
101961.618870,-0.0825939659,0.421720049,0.0303501301,0.15592742,-0.335059822,-0.247934729
101961.628899,-0.0352471083,0.292400792,0.488129554,0.170626476,-0.385924876,-0.217872187
101961.638928,-0.0473822212,0.199795866,1.09306353,0.164752334,-0.405135304,-0.192944989
101961.648956,-0.180780126,0.189450997,1.7035569,0.157458201,-0.375725746,-0.176303431
101961.658985,-0.313537322,0.172418175,2.42131938,0.129010856,-0.304704845,-0.173286334
101961.669014,-0.500166577,0.181201494,3.14329101,0.0696074441,-0.196364775,-0.19435674
101961.679043,-0.594564524,0.239905977,3.62306775,-0.032673385,-0.0735112876,-0.226314396
101961.689071,-0.482744719,0.283960442,3.62295552,-0.126747727,0.0761811063,-0.240813777
101961.699100,-0.163275376,0.239530714,3.19432913,-0.199260801,0.214953914,-0.243693724
101961.709129,0.154544373,0.279186651,2.21516085,-0.245659456,0.323840171,-0.223661944
101961.719158,0.462462029,0.145995813,1.0990239,-0.279496521,0.397239834,-0.166925967
101961.729187,0.774378472,0.0395738855,0.00449205072,-0.266699523,0.443224907,-0.0556724146
101961.739215,1.17627724,-0.069551529,-1.05786246,-0.237557322,0.429540515,0.0929487497
101961.749244,1.51400858,-0.0905960706,-2.26095639,-0.218642756,0.309927285,0.249132767
101961.759273,1.72885764,0.0374500252,-3.3163773,-0.192965358,0.108278058,0.395754158
101961.769302,1.72826026,0.166765045,-3.95223424,-0.11609029,-0.118235245,0.522141397
101961.779331,1.40997493,0.3589093,-4.05236927,-0.0213960037,-0.288459152,0.60029453
101961.789359,0.697137704,0.702814872,-3.08752236,0.0751046985,-0.388327956,0.604422688
101961.799388,-0.169162462,1.18609319,-1.71732297,0.125629932,-0.438982904,0.524974227
101961.809417,-0.945228229,1.72784846,-0.467574257,0.136972338,-0.437184989,0.375990033
101961.819446,-1.52886566,2.10787084,0.650842328,0.134370163,-0.390398324,0.178602144
101961.829475,-1.89587337,2.37294728,1.45233056,0.125414491,-0.274391562,-0.0415283665
101961.839503,-2.01158824,2.46423323,2.06709561,0.125295967,-0.111818358,-0.267119944
101961.849533,-1.94820751,2.53567934,2.23946001,0.126769498,0.0485822409,-0.487178564
101961.859562,-1.61650113,2.52638018,1.82486799,0.100849211,0.151639119,-0.682102203
101961.869591,-1.08217447,2.44259496,0.994100469,0.0713214129,0.200495884,-0.835514426
101961.879620,-0.503791306,2.27887461,-0.0243126035,0.0571051948,0.200092137,-0.929121852
101961.889648,0.121414037,1.9515333,-1.13988432,0.101671331,0.153517708,-0.942789733
101961.899677,0.828372001,1.61635997,-2.41212602,0.186148942,0.0597395562,-0.881103992
101961.909706,1.36691818,1.29103408,-3.3763019,0.28416416,-0.0486497693,-0.761801839
101961.919734,1.51659933,1.02072712,-3.52969973,0.325589359,-0.173042029,-0.621197283
101961.929764,1.35115479,0.81050872,-2.98393632,0.253914118,-0.317344874,-0.484867722
101961.939792,0.951126347,0.628463615,-1.92286893,0.132806614,-0.431261063,-0.371169388
101961.949821,0.511944729,0.629514001,-0.869934576,0.0435068272,-0.452159405,-0.281964958
101961.959850,0.178090522,0.72057652,0.0678740973,-0.00272191851,-0.419357806,-0.229460984
101961.969879,-0.0787513556,0.860323356,0.563648028,-0.0571510717,-0.397435993,-0.223317862
101961.979908,-0.174661936,0.967374448,0.812275583,-0.107991353,-0.400975049,-0.255577028
101961.989936,-0.133557078,1.03040388,0.805187671,-0.122899197,-0.413045824,-0.31520465
101961.999965,-0.0154986344,1.08935394,0.62169982,-0.0966713205,-0.417371601,-0.390862405
101962.009994,0.148162015,1.06233018,0.514357636,-0.0125005124,-0.386138052,-0.456501067
101962.020023,0.306014745,1.03652514,0.645353667,0.0717501864,-0.341855288,-0.501547873
101962.030052,0.554767899,0.859797286,0.892615194,0.0830499753,-0.293191075,-0.514965951
101962.040080,0.824796334,0.605001637,1.40084646,0.0377245732,-0.251109391,-0.496518523
101962.050108,1.07436862,0.428678417,1.78518772,-0.0231451672,-0.175452188,-0.443245441
101962.060138,1.21641745,0.227618085,2.01365394,-0.0918054581,-0.0731710941,-0.348479539
101962.070167,1.35562507,0.00199146608,2.12628488,-0.171052068,0.0140945707,-0.249250665
101962.080196,1.33678476,-0.0191843737,1.89890645,-0.264816135,0.0953318998,-0.137339309
101962.090224,1.36680858,-0.156056604,1.63326463,-0.335428238,0.154296696,-0.0187250506
101962.100253,1.40414287,-0.15066607,1.13444885,-0.384349436,0.184998944,0.0834923983
101962.110282,1.24730118,-0.00608399609,0.53118076,-0.381006926,0.189433903,0.174221247
101962.120311,1.09279524,0.112281029,-0.131714409,-0.339194745,0.192064047,0.241816789
101962.130339,0.899820011,0.256631778,-0.578420066,-0.280362874,0.165808201,0.273510009
101962.140368,0.610154051,0.457296609,-0.922851927,-0.201498121,0.138066053,0.266364992
101962.150397,0.41004912,0.623194589,-0.898456906,-0.139179349,0.112401165,0.243356898
101962.160426,0.216181695,0.725217039,-0.722919722,-0.0850455537,0.0645361692,0.199838459
101962.170455,0.0336223567,0.884697772,-0.568147678,-0.0240543708,0.0341292657,0.153761238
101962.180484,-0.109213933,1.00504674,-0.106963999,0.0287792832,0.0384347998,0.107128218
101962.190512,-0.302493658,1.19823166,0.497763059,0.0409805551,0.0453888439,0.0472246706
101962.200541,-0.459958996,1.44298785,0.857665462,0.0306789149,0.0507460609,-0.0124173537
101962.210570,-0.497257594,1.60310067,1.05403968,0.0211908724,0.0690361112,-0.0777004883
101962.220599,-0.50990694,1.75900231,1.18184948,0.0109217223,0.101320818,-0.142048851
101962.230628,-0.437230374,1.88573776,1.23428402,0.00421348587,0.145083219,-0.204267472
101962.240656,-0.361610375,1.95282597,1.2073703,-0.00268783001,0.201349154,-0.276125431
101962.250685,-0.205878656,2.00123636,0.995156116,-0.00807780121,0.233110279,-0.336729914
