t,ax,ay,az,gx,gy,gz
85837.565843,0.343531442,0.254961507,0.175019882,-0.250572681,-0.154244855,0.213908434
85837.575871,0.312965368,0.387958869,0.0820323865,-0.178062782,-0.0286200922,0.248643234
85837.585898,0.317461291,0.340694611,0.120216279,-0.14619939,0.0484640412,0.2673437
85837.595926,0.209555408,0.203575786,0.0546966358,-0.127930894,0.063765496,0.259707332
85837.605953,0.167957177,0.0972614833,0.0715437257,-0.151668981,0.00678263931,0.240061209
85837.615981,0.162756102,-0.0444990669,0.132827339,-0.157192379,-0.0725872889,0.232410476
85837.626008,0.162642704,-0.113626525,0.202529821,-0.162152261,-0.135461584,0.231840819
85837.636035,0.182214835,-0.155873685,0.275031578,-0.197410643,-0.166506588,0.235603064
85837.646063,0.161446334,-0.195759851,0.309573314,-0.205501318,-0.17377834,0.221600443
85837.656090,0.111316751,-0.423777968,0.17574352,-0.146626294,-0.177122742,0.186770022
85837.666118,0.0637676484,0.0348879927,0.134713006,-0.0570764355,-0.182898879,0.140895739
85837.676145,-0.0261376269,0.398352873,0.0622363837,0.0206830744,-0.176426053,0.0862111896
85837.686173,0.170088673,0.703730307,-0.424713605,0.33061856,-0.277543634,-0.0406908356
85837.696200,0.215858892,0.869115223,-0.607410013,0.391488582,-0.385058373,-0.149507061
85837.706228,-0.101156628,0.452800759,-0.233331201,0.355814189,-0.48225683,-0.151775539
85837.716255,-0.26578077,-0.0640042701,-0.072673022,0.29266426,-0.512675166,-0.117606923
85837.726282,0.0921341851,-0.379812277,0.681610976,0.163124636,-0.473765612,-0.0470757633
85837.736310,0.134469516,-0.370126311,0.682910368,0.0381470211,-0.380070001,0.00900827814
85837.746337,0.298975256,-0.405582569,0.74487378,-0.0978853852,-0.238977581,0.0605175421
85837.756365,0.42231111,-0.44169203,0.856006588,-0.192871019,-0.0731508136,0.112454772
85837.766392,0.373818042,-0.403214926,0.503612954,-0.179025516,0.0421384983,0.124658711
85837.776420,0.310830402,-0.221477719,0.0102227033,-0.143522903,0.0962440744,0.101471364
85837.786447,0.27013301,-0.0993106709,-0.231550748,-0.110237122,0.101885982,0.087361142
85837.796475,0.175633228,0.070523735,-0.29762744,-0.0535243116,0.0822683349,0.0660044551
85837.806502,0.0836153083,0.209559902,-0.355581032,0.0206465889,0.0613532066,0.0392687097
85837.816529,0.0709336858,0.297632518,-0.110105219,0.0521203578,0.0491628535,0.00294665713
85837.826557,0.085383761,0.259706656,0.194847449,0.0453106575,0.0414894857,-0.0261084288
85837.836584,0.0753173625,0.0767065519,0.358912222,0.0141772376,0.0349865817,-0.040113993
85837.846612,0.0808085255,-0.0214456697,0.414506684,-0.0194126796,0.0273425095,-0.0333548933
85837.856639,0.132051642,-0.0523927428,0.451060345,-0.0765979365,0.0171519239,0.000949818641
85837.866667,0.115416788,0.00457739092,0.44228141,-0.085905686,0.0137116518,0.0218497738
85837.876694,0.0549727494,0.105810993,0.364081149,-0.0678561106,0.0244825408,0.0294464417
85837.886721,-0.100285105,0.230679226,0.443714074,-0.0873166323,0.0660675317,0.000128233805
85837.896749,-0.353437444,0.39287594,0.506325136,-0.0511985719,0.124811269,-0.0467095785
85837.906776,-0.255003538,0.353249959,0.246494634,-0.0258972105,0.166314244,-0.0864205062
85837.916804,-0.184476643,0.292474259,0.0795972683,-0.00234021991,0.177416697,-0.116022609
85837.926831,-0.155826394,0.282226348,-0.229062438,0.0958577171,0.187343359,-0.155850187
85837.936859,-0.046372076,0.29626755,-0.380514398,0.178642884,0.192985266,-0.17618981
85837.946886,0.0281094933,0.162308796,-0.361156786,0.228037328,0.189392135,-0.170308754
85837.956914,0.0589441007,0.0667326722,-0.367520476,0.275590986,0.16947569,-0.145934433
85837.966941,0.088543522,-0.00139876088,-0.261824306,0.30091393,0.14691551,-0.111750096
85837.976968,-0.147993161,0.0967318334,0.0266863469,0.261666387,0.115976498,-0.104926549
85837.986996,-0.272152734,0.137819119,0.259980139,0.22236,0.109117799,-0.101592004
85837.997023,-0.199247474,0.0321141075,0.421778721,0.1145619,0.0984824598,-0.108891726
85838.007051,-0.290606419,-0.00450242599,0.53835109,0.0161676854,0.0829469115,-0.123862416
85838.017078,-0.270810818,-0.0342564899,0.368456296,-0.0633833334,0.0669501051,-0.144951731
85838.027105,-0.234460973,0.0088961309,0.292353299,-0.132967472,0.0467170067,-0.166278854
85838.037133,-0.181510194,0.0447586312,0.245455355,-0.160856888,0.0386758558,-0.180876702
85838.047160,-0.0985113007,0.0692130543,0.233611187,-0.178652406,0.0524483956,-0.183792606
85838.057188,-0.0189967422,0.0431945602,0.194954417,-0.195996508,0.0723219663,-0.172900796
85838.067215,0.0675527929,-0.0205289933,0.0263029005,-0.169309229,0.0957079828,-0.155516222
85838.077243,0.18346816,-0.0137163541,-0.147125329,-0.122651719,0.120837033,-0.133734763
85838.087270,0.21402006,-0.000153400463,-0.305613178,-0.0557089001,0.13189742,-0.107200354
85838.097297,0.229709577,0.0368029595,-0.498508909,0.0447913408,0.131812736,-0.0768661499
85838.107325,0.268786327,0.024968437,-0.617655513,0.145134196,0.128840372,-0.043542549
85838.117352,0.242817225,-0.0261604598,-0.554801874,0.204638526,0.114036389,-0.00690916926
85838.127380,0.160753347,-0.12167762,-0.391011826,0.241047665,0.0892266482,0.0321111977
85838.137407,0.107044663,-0.115876898,-0.160485161,0.249093622,0.0632525682,0.0648355931
85838.147434,0.0509544536,-0.0556210572,0.129452894,0.212587535,0.0430407785,0.0857142434
85838.157462,-0.0247833263,0.0382107439,0.419251248,0.144189566,0.0276098903,0.0933519229
85838.167489,-0.157948336,0.0855134153,0.537841972,0.0618227869,0.00720075564,0.0907588005
85838.177517,-0.289195712,0.138549735,0.579524228,-0.0153931715,-0.0101113897,0.0700676367
85838.187544,-0.346294148,0.146823989,0.648539312,-0.110776149,-0.0168332066,0.034541335
85838.197571,-0.343548539,0.14392825,0.625097061,-0.191289634,-0.012910638,-0.00258153304
85838.207599,-0.292640921,0.131152355,0.469101028,-0.237346873,-0.00237091165,-0.0266461223
85838.217626,-0.166009039,0.152196896,0.286847688,-0.257115781,0.00965033099,-0.0359903574
85838.227654,-0.0225265603,0.193161031,0.102064536,-0.24273099,0.0226385687,-0.0379768088
85838.237681,0.089358309,0.226908329,-0.132823247,-0.181860983,0.0365232229,-0.0309782848
85838.247709,0.143829612,0.245029384,-0.326215237,-0.106665827,0.0477303378,-0.0216540266
85838.257736,0.145456519,0.214888257,-0.410989616,-0.0247323439,0.0483386032,-0.00736883096
85838.267763,0.138060746,0.208123476,-0.383609441,0.0644484013,0.0481769517,-0.00303506944
85838.277791,0.129260805,0.196865219,-0.123562082,0.120631777,0.0588833913,0.00103876833
85838.287818,0.155473726,0.173657946,0.234548761,0.133808568,0.0811391547,0.012696756
85838.297846,0.168966135,0.10168193,0.559103955,0.103838682,0.105201349,0.0325570107
85838.307873,0.0770828013,0.0872760228,0.746574154,0.0377171859,0.117917411,0.0587353557
85838.317900,-0.0528035886,0.145432078,0.7991858,-0.0621263199,0.102621011,0.0809282735
85838.327928,-0.232999851,0.260831897,0.647181467,-0.148193568,0.0566596501,0.0920080915
85838.337955,-0.447797397,0.32266138,0.437989851,-0.208196446,0.00220226846,0.0818478614
85838.347983,-0.601291311,0.290897255,0.265808407,-0.238113865,-0.0389313176,0.0541299507
85838.358010,-0.677313351,0.306078787,0.111478261,-0.22738719,-0.0486201644,0.0061115576
85838.368037,-0.695557668,0.340859556,-0.0125526076,-0.165337667,-0.0214559231,-0.0525048822
85838.378065,-0.642922056,0.366926273,-0.124932202,-0.0681322813,0.0330539234,-0.112733074
85838.388092,-0.528792513,0.44179834,-0.165458858,0.051562693,0.104548611,-0.163676947
85838.398119,-0.399027777,0.405388435,-0.215276489,0.142558917,0.162466511,-0.184520438
85838.408147,-0.357380994,0.300047251,-0.28367841,0.211656764,0.182804003,-0.178359225
85838.418174,-0.370218922,0.245108368,-0.263803497,0.230406478,0.162451059,-0.161961064
85838.428202,-0.359764894,0.190682914,-0.134563953,0.210474581,0.116988234,-0.138639241
85838.438229,-0.359914458,0.138484524,-0.0104459907,0.162936881,0.0645268932,-0.110734634
85838.448256,-0.432155299,0.0953683265,0.0731821406,0.103193395,0.0163252782,-0.0842652097
85838.458284,-0.529188856,0.0859525556,0.132305945,0.0523597784,-0.0210505892,-0.0598967522
85838.468311,-0.630323491,0.0217477945,0.151961078,0.0235720724,-0.0428919718,-0.0525560156
85838.478339,-0.681684552,0.0353043184,0.15412264,0.0207792148,-0.0456320979,-0.0655780733
85838.488366,-0.70652549,0.0721601406,0.16090251,0.0370327532,-0.0273577534,-0.0840952992
85838.498393,-0.669554262,0.0367661711,0.175068982,0.0641285554,0.00711739855,-0.0918762609
85838.508421,-0.658169164,0.044000689,0.16489421,0.0979128852,0.0429678075,-0.0845435113
85838.518448,-0.716513289,0.0760658063,0.189477447,0.113406464,0.0676089898,-0.0697696507
85838.528475,-0.871585704,0.0188091838,0.224565711,0.0848256797,0.069642581,-0.050410606
85838.538503,-1.03553021,-0.0614965251,0.135514386,0.0336818099,0.0430075079,-0.0344769135
85838.548530,-1.17403202,-0.109535858,-0.0444686718,-0.039991878,-0.0122618731,-0.0274280552
85838.558558,-1.31532827,-0.115066824,-0.290430807,-0.103869401,-0.0833400488,-0.0376996025
85838.568585,-1.39296535,-0.110219786,-0.591132248,-0.115042157,-0.161504894,-0.0522471219
85838.578612,-1.27408675,-0.0804120188,-0.794292767,-0.0687492266,-0.205580473,-0.0616350248
85838.588640,-1.05562739,-0.0164123517,-0.836143366,-0.00496891467,-0.208392769,-0.0622867048
85838.598667,-0.853369956,0.10266663,-0.792833216,0.0864704475,-0.175190076,-0.0463809744
85838.608694,-0.671577657,0.264987775,-0.653843848,0.172783241,-0.126449436,-0.0188992824
85838.618722,-0.603308314,0.332493477,-0.483766683,0.225043237,-0.0893987343,0.00836988818
85838.628749,-0.652742097,0.277866545,-0.332471375,0.241378546,-0.0743164569,0.0224907659
85838.638777,-0.765928112,0.195199879,-0.185606743,0.220014662,-0.0809541196,0.0215722434
85838.648804,-0.830458306,0.115949671,-0.122180273,0.159193397,-0.105755873,0.00719676586
85838.658831,-0.83769191,0.144558346,-0.246116449,0.136787415,-0.138237387,-0.0215637758
85838.668859,-0.789013512,0.216011745,-0.311180749,0.143910572,-0.146935269,-0.059319675
85838.678886,-0.639527007,0.239431875,-0.150221541,0.128507912,-0.126962885,-0.0891188458
85838.688913,-0.490848129,0.249493597,-0.0741582921,0.121446811,-0.0879755467,-0.106996119
85838.698941,-0.327575054,0.245997078,-0.0290098214,0.128544927,-0.0339413323,-0.116777644
85838.708968,-0.0658351388,0.142456643,0.0742325264,0.119745314,0.0214303099,-0.0958699659
85838.718995,0.137710325,-0.000772189949,0.191113523,0.0835670754,0.0577880517,-0.0474260002
85838.729023,0.22741321,-0.250339071,0.225932908,0.0287120845,0.0680801049,0.0258287732
85838.739050,0.373938198,-0.429644595,0.215328512,-0.0320268981,0.047009442,0.117343515
85838.749078,0.458152349,-0.565241508,0.0900181246,-0.0863769576,-0.00841813255,0.21453318
85838.759105,0.446973916,-0.665695614,-0.211464238,-0.0901381373,-0.0814177766,0.300704271
85838.769132,0.469768224,-0.612976708,-0.345764571,-0.0707316846,-0.146692649,0.365492076
85838.779160,0.463556473,-0.503279338,-0.334650472,-0.0331832431,-0.179512113,0.405929238
85838.789187,0.41861748,-0.291501761,-0.219554021,0.010591669,-0.182725489,0.419591248
85838.799214,0.31515948,-0.0826631039,-0.0839461112,0.0624218471,-0.152683169,0.418327063
85838.809242,0.241792375,0.0548681747,0.115612585,0.0987175331,-0.107365221,0.404878616
85838.819269,0.144156396,0.162179526,0.320390476,0.100039519,-0.0644656941,0.389443994
85838.829296,0.00678476477,0.228818364,0.365500369,0.087391369,-0.043772392,0.375223786
85838.839324,-0.0965748162,0.264384913,0.330036256,0.0569591671,-0.0511378981,0.363745302
85838.849351,-0.201056058,0.248893567,0.330782691,-0.0127541339,-0.0862234533,0.350226551
85838.859378,-0.3622486,0.103812951,0.25271044,-0.0877042785,-0.141332507,0.334833771
85838.869406,-0.515153791,0.0591578348,0.012230536,-0.116048835,-0.202213973,0.299268037
85838.879433,-0.640290246,0.163008378,-0.241856453,-0.0755663887,-0.249193743,0.2289249
85838.889460,-0.733276938,0.272604022,-0.350631885,0.0324607491,-0.255101144,0.117708102
85838.899488,-0.836782321,0.358584963,-0.207916774,0.167075545,-0.208032981,-0.0143466089
85838.909515,-0.86409038,0.302865377,0.0987573114,0.279289424,-0.121150538,-0.126571417
85838.919543,-0.71423285,0.204050125,0.456110614,0.348072231,-0.0284546912,-0.200170264
85838.929571,-0.481098413,0.20017259,0.811541424,0.354297101,0.0393230245,-0.229412571
85838.939598,-0.236263547,0.182034291,1.05165308,0.265206099,0.0488510169,-0.199077576
85838.949626,-0.141697805,0.0558935814,1.08279348,0.0950833783,-0.00722716749,-0.134765163
85838.959653,-0.127193443,-0.0499783386,0.943928618,-0.0762050152,-0.108410247,-0.0666923672
85838.969680,-0.0985488562,0.0163070282,0.805844673,-0.219594136,-0.206522703,-0.0237608831
85838.979708,-0.120518678,0.0702809941,0.685614951,-0.304063737,-0.260586977,-0.014575908
85838.989735,-0.149024221,0.117582451,0.617164515,-0.344402909,-0.255326182,-0.0233768541
85838.999762,-0.19957309,0.132377796,0.507333436,-0.308031321,-0.20136255,-0.0548034832
85839.009790,-0.305767291,0.159365181,0.429223776,-0.21656692,-0.115737133,-0.104818717
85839.019817,-0.390221918,0.261923126,0.526881602,-0.129544139,-0.0130805289,-0.160167992
85839.029844,-0.515201685,0.200340457,0.688673169,-0.10704682,0.0741814002,-0.198619783
85839.039872,-0.610942791,0.0861319125,0.80079382,-0.154957891,0.115073442,-0.213013902
85839.049899,-0.587671732,0.0737160283,0.813330061,-0.259930104,0.101654842,-0.206176236
85839.059926,-0.564695163,0.121663994,0.693728114,-0.401793242,0.0418008305,-0.179055929
85839.069954,-0.542482564,0.182945926,0.423359852,-0.51089257,-0.0372116975,-0.145832464
85839.079980,-0.502898961,0.317285533,0.108458621,-0.578327239,-0.101021037,-0.135175556
85839.090008,-0.448211458,0.374611969,-0.153164024,-0.607211113,-0.121317253,-0.151038677
85839.100035,-0.409199079,0.365372906,-0.457364998,-0.581389606,-0.0977264419,-0.185477614
85839.110063,-0.338200091,0.322426585,-0.821965203,-0.486327022,-0.0402391776,-0.237755731
85839.120090,-0.207978368,0.293685425,-1.06519937,-0.346800834,0.0367821045,-0.292806983
85839.130118,-0.10029876,0.153906659,-1.14215577,-0.19164826,0.118617311,-0.339286089
85839.140145,-0.061113371,0.00831515267,-1.04685766,-0.0367143266,0.187343374,-0.361010283
85839.150172,-0.107754747,-0.189592634,-0.835434341,0.0904904902,0.233636573,-0.364995182
85839.160200,-0.135582355,-0.420855541,-0.520139726,0.142971277,0.24127692,-0.326502651
85839.170227,-0.108699389,-0.611268844,-0.207654908,0.116509311,0.206027851,-0.252036929
85839.180254,0.00969354662,-0.618248657,0.0308645093,-0.00237659388,0.123426445,-0.157515749
85839.190282,0.140361241,-0.44407571,0.184861477,-0.1997962,0.00603457633,-0.0619167909
85839.200309,0.22116341,-0.084661639,0.177452662,-0.410296172,-0.122376658,0.00315754954
85839.210335,0.193245457,0.359950625,-0.0784305626,-0.528737843,-0.227507874,0.0102290409
85839.220363,0.0541396595,0.818889595,-0.384186949,-0.520359039,-0.273856193,-0.0698570013
85839.230391,-0.135955864,1.20383518,-0.451264927,-0.404108584,-0.217522353,-0.246037364
85839.240418,-0.247475864,1.25021458,-0.227412917,-0.262722969,-0.0516705289,-0.473588228
85839.250445,-0.367503708,1.01881953,0.00214753342,-0.115031242,0.176896065,-0.701958299
85839.260472,-0.497614664,0.667361136,0.0794113904,0.0168801919,0.396750957,-0.887237608
85839.270500,-0.474059345,0.177627654,0.0232049345,0.0935757682,0.535144746,-0.986248374
85839.280527,-0.324260011,-0.298198591,-0.123415952,0.107753366,0.556004524,-0.993637323
85839.290555,-0.128357737,-0.635370253,-0.250513222,0.0743850246,0.474194854,-0.919469059
85839.300582,-0.019690314,-0.840221867,-0.294142521,-0.00719718169,0.323451966,-0.793743074
85839.310609,-0.0155590959,-0.887496536,-0.321036957,-0.0876534134,0.146375701,-0.648260176
85839.320637,0.0207961198,-0.964906012,-0.240009949,-0.214323997,-0.0246631484,-0.48377189
85839.330664,0.0714405211,-0.991053138,-0.132040572,-0.334186226,-0.163276687,-0.332953602
85839.340691,0.179427104,-0.840080047,-0.202512869,-0.388812184,-0.245539606,-0.210025027
85839.350719,0.284623107,-0.621418519,-0.214855634,-0.37484017,-0.263126314,-0.121031776
85839.360746,0.255885253,-0.553538284,-0.217993932,-0.330945969,-0.23798129,-0.0690814927
85839.370772,0.178510665,-0.554790622,-0.245397487,-0.230406031,-0.197992325,-0.0628931075
85839.380800,0.0451553937,-0.447523403,-0.302935484,-0.0672083274,-0.149291098,-0.105296753
85839.390827,-0.0142413279,-0.437234795,-0.0829600228,0.101719446,-0.0783285126,-0.146195978
85839.400855,0.0377826912,-0.527065215,0.45967912,0.178743392,0.0166813619,-0.154204369
85839.410882,-0.00806431972,-0.655936071,0.86729546,0.168679833,0.0872535333,-0.115581349
85839.420910,-0.0982823325,-0.655057023,0.935547158,0.0802841932,0.080027312,-0.046487771
85839.430937,-0.210081697,-0.587005012,0.73428575,-0.0285623912,-0.00994838495,0.031592384
85839.440964,-0.395040863,-0.463414945,0.332938992,-0.0951635242,-0.135298312,0.0873600468
85839.450992,-0.517192567,-0.232896975,0.0299462255,-0.16160433,-0.252978861,0.103021562
85839.461019,-0.605375293,-0.0302063377,-0.235063724,-0.175571814,-0.32876578,0.0851581469
85839.471046,-0.530093148,0.0538055322,-0.376667659,-0.134688303,-0.339944661,0.0565326214
85839.481074,-0.361141698,0.0019903701,-0.43177346,-0.0622465834,-0.298627853,0.0264426321
85839.491101,-0.174347445,-0.0683020404,-0.469089338,0.037526615,-0.236464888,0.0131140435
85839.501127,-0.0400509832,-0.0475553858,-0.521026446,0.135159433,-0.190964773,0.0151593518
85839.511156,-0.0293743667,0.067527622,-0.549977815,0.221825346,-0.187038481,0.0282309446
85839.521183,-0.0905643968,0.284398249,-0.535189411,0.307524741,-0.215006277,0.0223040953
85839.531210,-0.129203988,0.554026579,-0.279012756,0.369595289,-0.224028796,-0.00966688618
85839.541237,-0.113006567,0.67985456,0.193383807,0.372255802,-0.191671386,-0.0291439146
85839.551264,-0.0573846419,0.595545242,0.606578823,0.321002454,-0.136491224,-0.0396764502
85839.561292,0.0844498412,0.455249467,0.722709294,0.254942745,-0.0928239077,-0.0354108661
85839.571319,0.317122487,0.362052932,0.675731854,0.190739512,-0.0724193007,-0.0259262845
85839.581347,0.551357871,0.30791751,0.555441926,0.123036109,-0.0791863874,-0.0149402115
85839.591374,0.660693494,0.218623389,0.376094243,0.0673057362,-0.10362196,-0.00100894924
85839.601401,0.672875807,0.225405669,0.140858669,0.0760512874,-0.111040197,0.00191493472
85839.611427,0.737204706,0.387412779,0.0644628276,0.124411099,-0.0819859058,-0.00520662405
85839.621456,0.776174927,0.483509712,0.100904845,0.228005663,-0.0160654802,-0.0219427273
85839.631483,0.758826756,0.516784205,0.211130476,0.349278569,0.0769456849,-0.0529416576
85839.641510,0.795810625,0.425950234,0.480775684,0.449507713,0.176488519,-0.0860167891
85839.651538,0.856615149,0.272206949,0.789433052,0.505757391,0.264685482,-0.112661704
85839.661564,0.834957298,0.18722806,1.03611415,0.523191512,0.330483139,-0.125989243
85839.671592,0.772872378,0.0941767056,1.23203478,0.505215168,0.378433615,-0.107198775
85839.681619,0.706935825,-0.0905126666,1.39925539,0.391751736,0.394275963,-0.0487333275
85839.691647,0.606927819,-0.290129084,1.39692139,0.200209185,0.361573666,0.0419856571
85839.701674,0.576864215,-0.302593977,1.12214934,-0.0398713239,0.289282709,0.157584414
85839.711701,0.569414848,-0.191514031,0.593455722,-0.29883495,0.175908759,0.284191906
85839.721729,0.38558465,0.0163355602,-0.276571793,-0.482624233,0.0374270417,0.387342513
85839.731756,0.192244208,0.375845822,-1.12570148,-0.539628386,-0.0814878941,0.429098219
85839.741783,0.0969254563,0.685196579,-1.6702976,-0.476243556,-0.136031032,0.416253537
85839.751811,0.0207833151,0.856092805,-1.97909818,-0.293763518,-0.107606314,0.364225745
85839.761838,-0.0461525058,0.894461772,-2.10698046,-0.0166522861,-0.0129344016,0.286099255
85839.771864,-0.0589788341,0.796874089,-2.07058345,0.319754779,0.116169259,0.194127247
85839.781892,-0.033043059,0.535696922,-1.72852241,0.644941092,0.244109645,0.122888759
85839.791919,0.0221804868,0.243831882,-1.06830611,0.863574386,0.332833648,0.096276328
85839.801947,0.0688015874,-0.0174367629,-0.235128606,0.911602378,0.362501264,0.130041748
85839.811974,0.116779528,-0.244849242,0.505890836,0.798438787,0.316855729,0.209425241
85839.822002,0.117695784,-0.249339831,0.9966484,0.585267961,0.209439814,0.310538024
85839.832029,0.0374860829,-0.19143934,1.30195412,0.29449442,0.0796474665,0.409143955
85839.842056,-0.0854778873,-0.192261214,1.4200065,-0.0129837813,-0.0425271802,0.495106518
85839.852083,-0.132019219,-0.163775453,1.20443015,-0.276806623,-0.132858947,0.551135719
85839.862111,-0.146405618,-0.105897447,0.752435155,-0.456878394,-0.188406616,0.582209766
85839.872138,-0.0340253663,-0.119404159,0.241594587,-0.551299453,-0.21494396,0.593113005
85839.882164,0.130679513,-0.127925757,-0.252795196,-0.574090481,-0.234225512,0.592184067
85839.892192,0.228853472,-0.059317464,-0.873813463,-0.482023954,-0.253156334,0.572888672
85839.902219,0.273689351,-0.00141735598,-1.35288936,-0.292502224,-0.249584213,0.546039999
85839.912246,0.290566051,-0.0297498261,-1.39143624,-0.0962783992,-0.207472727,0.519570589
85839.922273,0.125277289,-0.0465810243,-1.16854577,0.0776188225,-0.13485685,0.481932938
85839.932301,-0.0991541195,-0.0435635762,-0.798430598,0.193835437,-0.055449903,0.427489936
85839.942328,-0.396936833,-0.0109286962,-0.441674677,0.247903466,0.00398972072,0.349625498
85839.952355,-0.730928256,0.0310155717,-0.17988895,0.271821588,0.0360824093,0.258749396
85839.962382,-0.930192207,0.0805527059,0.0213929166,0.271836251,0.0485321581,0.164525419
85839.972410,-1.03037013,0.0506899575,0.256353181,0.242481276,0.0468359888,0.0733957738
85839.982437,-1.05820615,-0.110526842,0.412990434,0.184542343,0.0278772097,-0.00103744585
85839.992464,-0.930903132,-0.330764826,0.465886742,0.130149141,-0.00941929594,-0.0487237424
85840.002492,-0.582469341,-0.420317014,0.51641866,0.0873841047,-0.047370404,-0.0693608373
85840.012519,-0.24447544,-0.400530838,0.580022825,0.048101943,-0.0724813491,-0.0620368831
85840.022546,-0.0429298175,-0.418075665,0.596700403,0.0190615021,-0.084961988,-0.0350497402
85840.032573,0.0681373422,-0.472571225,0.536081976,-0.00915069319,-0.0934151262,0.00427130004
85840.042601,0.100622283,-0.496050995,0.37769408,-0.0157574639,-0.103424355,0.0339511633
85840.052628,0.0497890083,-0.462076062,0.188475576,-0.017145237,-0.120333828,0.0469785482
85840.062655,-0.0629839963,-0.435617313,0.0634539428,-0.0196850933,-0.144140363,0.0419438444
85840.072682,-0.0976312939,-0.36300362,-0.0392348628,0.00856332295,-0.162084728,0.0119872764
85840.082710,-0.0719568229,-0.222941982,-0.0240513222,0.0592821576,-0.155163974,-0.0335509144
85840.092737,-0.0275462425,-0.152980411,0.19430209,0.0969461873,-0.109770134,-0.100935549
85840.102764,-0.0184272489,-0.144375628,0.464157142,0.110810868,-0.0472391099,-0.164798424
85840.112791,-0.00133334923,-0.271227089,0.66140873,0.103538841,0.0137603255,-0.206652656
85840.122819,0.0676503259,-0.376241251,0.748727533,0.0698908642,0.0619667396,-0.22371687
85840.132846,0.0873604497,-0.423396787,0.660706719,0.0422749445,0.0781819299,-0.202591598
85840.142873,0.0378164291,-0.426366195,0.528164043,0.0116869444,0.0583996996,-0.161982387
85840.152901,-0.0845824181,-0.381254439,0.419782578,-0.0253067613,0.00273031183,-0.118543312
85840.162928,-0.297999196,-0.269226746,0.222366155,-0.0145254852,-0.0663539469,-0.0903928876
85840.172955,-0.42211862,-0.171868268,0.186186004,0.00138503802,-0.117698096,-0.0931593776
85840.182982,-0.408241413,0.00955136167,0.348453957,0.00470573362,-0.114354767,-0.120027214
85840.193010,-0.422887193,0.197655547,0.461777554,0.00965388678,-0.0754646212,-0.155180678
85840.203037,-0.433428936,0.22990541,0.445091207,0.0386498496,-0.0244847983,-0.192127243
85840.213064,-0.388390282,0.232388843,0.410374114,0.0690679476,0.0240481161,-0.215857074
85840.223091,-0.393143797,0.11615219,0.450820691,0.080108881,0.0593520477,-0.204339176
85840.233119,-0.394728509,-0.0494046304,0.522777089,0.0201709755,0.0522150435,-0.14309445
85840.243146,-0.29248478,-0.132817877,0.548998741,-0.107935324,-0.00425302889,-0.053311836
85840.253173,-0.14468242,0.0182783648,0.387488913,-0.278594673,-0.0931783691,0.0520236418
85840.263200,-0.0100135176,0.227530114,0.165392222,-0.467151284,-0.198742077,0.148065209
85840.273228,0.0589133128,0.465190613,-0.237328162,-0.599762559,-0.296649218,0.202325255
85840.283255,0.128063558,0.676366718,-0.536234536,-0.660426736,-0.349166483,0.189825982
85840.293282,0.189403523,0.741356711,-0.670318013,-0.665955722,-0.324292302,0.108758032
85840.303309,0.218431373,0.686507808,-0.800212805,-0.59018451,-0.225169167,-0.0154611263
85840.313337,0.264479405,0.550609464,-0.949673883,-0.409208328,-0.0766457319,-0.140481099
85840.323364,0.349530135,0.332917584,-0.944523661,-0.192336768,0.0810131356,-0.234454468
85840.333391,0.408538971,0.0646143649,-0.814215611,0.0369094759,0.217970714,-0.264469624
85840.343419,0.322545901,-0.132056281,-0.488941455,0.18204695,0.299143046,-0.255876929
85840.353446,0.1853145,-0.251424711,0.0259866742,0.18176946,0.299286604,-0.229123607
85840.363473,0.0158088786,-0.400254835,0.272306537,0.125577822,0.225150868,-0.183492213
85840.373500,-0.0453369151,-0.559202849,0.469585012,0.0269423295,0.114109039,-0.1198131
85840.383528,-0.0227545627,-0.681295334,0.625949879,-0.0809543058,0.00318864174,-0.0563220046
85840.393555,0.080647572,-0.676162355,0.736509856,-0.176116243,-0.0681334734,-0.00729720481
85840.403582,0.176190497,-0.583068111,0.791008339,-0.295830399,-0.101062663,0.0227192827
85840.413609,0.0984256682,-0.382172686,0.569208001,-0.392146528,-0.111729153,0.0228718817
85840.423637,0.00240198767,-0.0753888569,0.0275777428,-0.397657961,-0.115888216,-0.0290562958
85840.433664,-0.0900770334,0.178571656,-0.492059295,-0.310934246,-0.0942851827,-0.122067466
85840.443691,-0.119226967,0.291974456,-0.734973148,-0.167020753,-0.0371673033,-0.222137347
85840.453718,-0.118494953,0.273517885,-0.79603815,0.0134598101,0.0481856801,-0.308121771
85840.463746,-0.0359840717,0.18721637,-0.714163584,0.207815439,0.146795616,-0.379325897
85840.473773,0.0911728202,0.0507920296,-0.375775679,0.333841294,0.234965682,-0.407119453
85840.483800,0.208042556,-0.175219497,0.0865776287,0.383411229,0.291806847,-0.370249569
85840.493827,0.248919871,-0.353489101,0.431955831,0.356485367,0.293607682,-0.276654661
85840.503855,0.0929529359,-0.405182537,0.575904868,0.264691263,0.22703293,-0.168676779
85840.513882,-0.16619141,-0.294342683,0.562383123,0.176710784,0.115648344,-0.0697882771
85840.523909,-0.334690695,-0.210451444,0.668845017,0.0494721346,0.0158169549,0.0103253927
85840.533936,-0.463765841,-0.133679279,0.825326204,-0.113802806,-0.0524345376,0.0641281754
85840.543964,-0.549966344,-0.0603732932,0.709531833,-0.228771731,-0.0793580338,0.0892644152
85840.553991,-0.428035735,0.0600249182,0.464092845,-0.314759076,-0.0689943433,0.100835055
85840.564018,-0.250977223,0.158769662,0.166103585,-0.386412501,-0.0489833467,0.112453088
85840.574045,-0.227654581,0.320514614,-0.385420875,-0.415892094,-0.0613792948,0.129802793
85840.584073,-0.314292342,0.553207445,-1.04130412,-0.360037625,-0.106141709,0.129797727
85840.594100,-0.335099422,0.871435409,-1.3601573,-0.259661466,-0.138251707,0.120761357
85840.604127,-0.442979914,1.07738512,-1.3359844,-0.131511226,-0.137491375,0.10932494
85840.614154,-0.550513895,1.27817431,-1.12112,0.0150156235,-0.0977479592,0.0815148801
85840.624182,-0.613096754,1.18868138,-0.716176678,0.0936385319,-0.0356188044,0.0424287319
85840.634209,-0.70124134,0.897565803,-0.393296723,0.119600624,0.0133066587,-0.00354568101
85840.644236,-0.783974714,0.620657983,-0.351899129,0.130435959,0.0241739545,-0.0546892956
85840.654263,-0.783822227,0.449251103,-0.414010425,0.138675779,-0.0130040422,-0.112248458
85840.664291,-0.735961136,0.335961774,-0.520631309,0.20579277,-0.060713239,-0.170275018
85840.674318,-0.521415847,0.194723969,-0.442819755,0.323680788,-0.0642017201,-0.211867988
85840.684345,-0.276339738,-0.0508437598,-0.0196247379,0.405395091,-0.0180288926,-0.23715125
85840.694372,-0.271433517,-0.353474415,0.14735563,0.47838223,0.0124379359,-0.236342981
85840.704400,-0.07493356,-0.529758143,0.445728921,0.46833998,0.0585742705,-0.243041351
85840.714427,0.0263179383,-0.552713925,0.78339085,0.432853341,0.113809027,-0.229142323
85840.724454,0.00223748586,-0.502979661,0.769158326,0.389631301,0.135428309,-0.192650884
85840.734481,-0.0395268909,-0.434961735,0.614752193,0.337319374,0.114704646,-0.157898501
85840.744508,0.0374016903,-0.340026941,0.562005522,0.270014107,0.0891798511,-0.119155899
85840.754536,0.23950768,-0.292857961,0.788032538,0.0900091752,0.096528843,-0.0494612418
85840.764563,0.409528201,-0.299981821,0.78018767,-0.178126395,0.092845425,0.0793776959
85840.774590,0.376175601,-0.210971413,0.0254366391,-0.395524234,0.0262349751,0.234586984
85840.784617,0.283645823,0.00874550692,-0.990433764,-0.505183935,-0.110322073,0.376442671
85840.794645,0.094646515,0.219467475,-1.86196584,-0.464395702,-0.254677653,0.471390218
85840.804672,-0.105242344,0.543324093,-2.23594002,-0.307352573,-0.335355192,0.48520112
85840.814699,-0.249605277,0.735065575,-2.18536543,-0.0495545827,-0.312304735,0.427900553
85840.824726,-0.237811653,0.714642015,-1.72627668,0.245909557,-0.19587265,0.332107693
85840.834754,-0.179522272,0.548654421,-1.0816712,0.535960555,-0.0273235925,0.218446895
85840.844781,-0.151434579,0.308960114,-0.364174088,0.781289577,0.134155318,0.121769629
85840.854808,-0.0393954191,0.0582124619,0.401737803,0.860501349,0.233181775,0.0662858635
85840.864835,0.0102935469,-0.234104999,1.05584995,0.763666153,0.213409394,0.0817188844
85840.874863,0.0441544091,-0.522929868,1.38396371,0.544647217,0.1003353,0.158297285
85840.884890,0.129447049,-0.542395653,1.67703948,0.221995965,-0.0567400716,0.243609786
85840.894917,0.0569145311,-0.332923977,1.6111358,-0.122946501,-0.237994269,0.306653738
85840.904944,-0.000565132203,-0.10352659,1.28622639,-0.425444573,-0.395591915,0.325833291
85840.914972,0.0674559267,0.1480271,0.851439134,-0.650899291,-0.484061331,0.296756893
85840.924999,0.157970584,0.319518771,0.247047008,-0.720406234,-0.490808427,0.217761934
85840.935026,0.30243959,0.332175022,-0.339859147,-0.636821032,-0.423475742,0.109545454
85840.945053,0.482002851,0.253697442,-0.874175282,-0.385593832,-0.314729005,-0.0140451947
85840.955081,0.580864902,0.0955936597,-1.32212363,0.0727750659,-0.180929661,-0.122418001
85840.965108,0.850475988,-0.0466063414,-1.07332657,0.531804383,-0.021304315,-0.176949158
85840.975135,1.04593003,-0.269877702,-0.122895727,0.819730222,0.116851956,-0.138443053
85840.985162,0.88982381,-0.39991731,0.814844557,0.927191913,0.188593,-0.0339491293
85840.995189,0.752702647,-0.283744735,1.73802499,0.768858492,0.171089634,0.0925861746
85841.005217,0.581939326,-0.244262875,2.43583949,0.399824828,0.0726789013,0.235531613
85841.015244,0.34978484,-0.320875995,2.51183143,-0.0677013546,-0.101736046,0.353271306
85841.025271,0.106126835,-0.147671473,2.09378956,-0.509554982,-0.314464033,0.375669032
85841.035298,-0.216232347,0.109298652,1.23512807,-0.801313043,-0.48746857,0.30042994
85841.045326,-0.316584654,0.212131433,0.339324309,-0.840766728,-0.536220372,0.173685551
85841.055353,-0.152368088,0.253285756,-0.173711138,-0.689185202,-0.436580628,0.0209119916
85841.065380,0.0890013122,0.29170722,-0.563424157,-0.384416461,-0.243919536,-0.120625973
85841.075407,0.275778158,0.183275341,-0.872100814,-0.0427033342,-0.0426958911,-0.218123496
85841.085435,0.37745607,0.0411623237,-1.04199269,0.273849308,0.0876959339,-0.262878448
85841.095462,0.368645023,0.0789964894,-0.772623372,0.469501644,0.13233532,-0.27155447
85841.105489,0.352416102,0.0568928307,-0.0673673168,0.480046421,0.110437728,-0.242329493
85841.115516,0.291135156,0.0599870704,0.601770546,0.346051604,0.0478012525,-0.187344804
85841.125544,0.297089388,-0.0697404392,1.0630875,0.135470927,-0.0268530119,-0.108965047
85841.135571,0.297567673,-0.29696788,1.29899118,-0.121377371,-0.100810595,-0.0133367935
85841.145598,0.192065198,-0.51402844,1.10997141,-0.349888831,-0.171212047,0.0523966774
85841.155625,-0.0476023667,-0.478562428,0.482832032,-0.447695017,-0.236721545,0.0720577314
85841.165652,-0.202178304,-0.224190448,-0.200302792,-0.391320974,-0.255240649,0.0486397594
85841.175680,-0.287478752,0.118858106,-0.492990438,-0.23121652,-0.209570885,0.00216360344
85841.185707,-0.327764841,0.352110872,-0.419106871,-0.0220321435,-0.104952075,-0.0537244305
85841.195734,-0.212316324,0.424328259,-0.135815999,0.179697245,0.0207789559,-0.0932886153
85841.205761,-0.0531344645,0.294377462,0.360419704,0.313920051,0.122666165,-0.109576777
85841.215789,0.0442109342,0.0426619146,0.996575335,0.311258197,0.18490158,-0.0964127705
85841.225816,0.0436312711,-0.157038053,1.42155081,0.20523271,0.186719999,-0.0547803715
85841.235843,-0.0121466571,-0.272389612,1.5428993,0.0386959165,0.127562135,0.0166349541
85841.245870,-0.142449775,-0.276417114,1.4882126,-0.203661054,0.0380053483,0.102785021
85841.255898,-0.349901744,-0.136649418,1.18577689,-0.513788581,-0.0689053908,0.194321856
85841.265925,-0.530487042,0.1650749,0.382899832,-0.781441092,-0.18775481,0.268343091
85841.275952,-0.574222139,0.607146759,-0.645933513,-0.9461568,-0.303637743,0.291741908
85841.285979,-0.599005904,0.953789137,-1.57215229,-0.946006596,-0.373801112,0.242767155
85841.296006,-0.512350095,1.08298309,-2.14267488,-0.796024263,-0.350371957,0.109547585
85841.306034,-0.369744984,0.914527678,-2.26186123,-0.514818966,-0.215922803,-0.0716967732
85841.316061,-0.170935097,0.625405031,-2.04731948,-0.162717089,0.000426546147,-0.272024781
85841.326088,0.0157824198,0.204701173,-1.64583244,0.19307138,0.209999487,-0.429029047
85841.336115,0.194510217,-0.270854292,-1.06321083,0.435914397,0.346822023,-0.496456325
85841.346143,0.413396859,-0.602642214,-0.365326181,0.523202896,0.377813756,-0.454590619
85841.356170,0.475168658,-0.715999421,0.267695243,0.45925647,0.311660588,-0.347651124
85841.366197,0.482319954,-0.764265513,0.83850308,0.250362903,0.18128714,-0.20175305
85841.376224,0.481180027,-0.794132389,1.2305273,-0.0517266542,0.030319199,-0.0563122258
85841.386252,0.416564237,-0.698202483,1.34340491,-0.402999729,-0.121822938,0.0335377716
85841.396279,0.293636836,-0.427658207,1.04041974,-0.715891361,-0.238788158,0.0451033451
85841.406306,0.29369591,-0.164723602,0.291245046,-0.89520812,-0.3029733,-0.00344874244
85841.416333,0.308345745,0.111513333,-0.725301649,-0.891656816,-0.316438496,-0.11269933
85841.426360,0.319293584,0.3572033,-1.63160342,-0.684147,-0.269568741,-0.254915595
85841.436388,0.406819636,0.519206683,-2.11299987,-0.324082017,-0.155446663,-0.388341278
85841.446415,0.589974273,0.525892956,-2.16243581,0.113604516,0.00666233758,-0.479337513
85841.456442,0.894619812,0.414684232,-1.63735278,0.467679501,0.160601571,-0.489577353
85841.466469,1.02697405,0.112877461,-0.800124542,0.655746341,0.253155738,-0.427109182
85841.476497,1.03997565,-0.0833967337,0.028372108,0.652413666,0.250965029,-0.307079703
85841.486524,1.05106549,-0.119977794,0.72283672,0.487352818,0.166127905,-0.148398742
85841.496551,0.892056245,-0.112290747,1.15664841,0.221015662,0.0336052738,0.014869811
85841.506578,0.62506294,-0.02080423,1.18190677,-0.0559802577,-0.11523401,0.127416059
85841.516605,0.38488885,0.207665284,0.968185107,-0.270397753,-0.225040928,0.16454345
85841.526633,0.221311459,0.376656992,0.559919948,-0.368008703,-0.271044254,0.135788232
85841.536660,0.176621728,0.467808797,0.108804658,-0.335693121,-0.244785205,0.0683524683
85841.546687,0.206717664,0.46753809,-0.21995208,-0.218136936,-0.169553831,-0.023515135
85841.556714,0.327388884,0.466357648,-0.402975236,-0.0455004461,-0.0687031224,-0.0996274799
85841.566742,0.449222023,0.452336502,-0.50309273,0.13842091,0.0249770265,-0.142952323
85841.576769,0.447593034,0.410731038,-0.457802805,0.291028321,0.0939574316,-0.157473207
85841.586796,0.397859391,0.348107554,-0.211069101,0.357969791,0.126139596,-0.144241288
85841.596823,0.25188926,0.287226239,0.101162034,0.329990089,0.11687047,-0.123848662
85841.606851,0.0701175654,0.215066208,0.29419279,0.229181975,0.0733083412,-0.106644914
85841.616878,-0.0193582325,0.140866634,0.309115049,0.116143309,0.0160237458,-0.0939922333
85841.626905,0.0251687454,0.0955269511,0.121882166,0.0511243641,-0.0307943579,-0.105355933
85841.636932,0.103700759,0.0580408317,-0.160930567,0.0684974939,-0.0488093123,-0.139534682
85841.646959,0.318986345,-0.0489968898,-0.381283629,0.178839982,-0.0184759069,-0.175310254
85841.656987,0.569358698,-0.149195632,-0.301781637,0.337220848,0.0632743463,-0.191627443
85841.667014,0.78573734,-0.254608821,-0.0158510646,0.485828966,0.162870184,-0.169016674
85841.677041,0.817668967,-0.340602951,0.289431859,0.622561455,0.242868885,-0.11609301
85841.687068,0.74150328,-0.382597195,0.622578941,0.724683344,0.272896022,-0.0502623282
85841.697096,0.604973653,-0.422267892,1.13836164,0.767512023,0.277998626,0.0284884106
85841.707123,0.430948079,-0.543313827,1.74796069,0.730217099,0.276257455,0.121997058
85841.717150,0.245018096,-0.690406861,2.22505155,0.599440455,0.256322116,0.215443909
85841.727177,0.0793548744,-0.760503749,2.3969039,0.454364508,0.226760209,0.289357036
85841.737204,0.0145391052,-0.760897351,2.32843769,0.354078382,0.201400802,0.352639318
85841.747232,0.143925181,-0.657488561,2.42538123,0.158375978,0.206423253,0.403350443
85841.757259,0.290985226,-0.510852148,2.38235457,-0.140133217,0.202954486,0.486445338
85841.767286,0.272476486,-0.325448929,1.58866094,-0.426814497,0.155552343,0.596221328
85841.777313,0.292463774,-0.032075456,0.506842438,-0.707880318,0.0458876379,0.709693313
85841.787341,0.134732697,0.338519788,-0.75455054,-0.870171487,-0.0922542587,0.801346004
85841.797368,-0.151067235,0.688557726,-1.98577225,-0.884579718,-0.214929044,0.840835094
85841.807395,-0.408532359,0.996522144,-2.96376096,-0.697985053,-0.272996873,0.798334241
85841.817422,-0.469890937,1.03647706,-3.62014981,-0.275689423,-0.220120877,0.700055838
85841.827449,-0.276930434,0.774470388,-3.62070686,0.244359329,-0.0715271384,0.577541947
85841.837477,-0.08767558,0.337663683,-2.94894567,0.713701487,0.115756996,0.459707469
85841.847504,-0.0192211986,-0.0329575361,-1.97165838,1.0345999,0.261114448,0.368809521
85841.857531,-0.0296701485,-0.188355274,-0.839192816,1.14603662,0.333768159,0.323834836
85841.867558,-0.0835199217,-0.215828278,0.249811212,1.0748986,0.328645557,0.338258535
85841.877586,-0.185633265,-0.169355628,1.13267424,0.828984141,0.259703517,0.382347435
85841.887613,-0.455997363,0.100042638,1.62102533,0.466005445,0.15008381,0.395257622
85841.897640,-0.560653084,0.1912362,1.77458566,0.020725444,0.0084601026,0.406332374
85841.907667,-0.427710083,0.136389616,1.41405314,-0.344866097,-0.131116435,0.396274149
85841.917694,-0.230375676,0.317697365,0.663801178,-0.585680068,-0.22740835,0.349268824
85841.927722,0.0504064096,0.314408845,-0.10314181,-0.668240726,-0.26650542,0.283750534
85841.937749,0.175204445,0.248103951,-0.890085384,-0.598538339,-0.271505505,0.200630084
85841.947776,0.240680834,0.230767525,-1.58340141,-0.355247915,-0.243191838,0.0970682651
85841.957803,0.374340093,0.259315428,-1.80480427,-0.0244681332,-0.166960448,-0.0109189171
85841.967831,0.518531085,0.311518676,-1.33702134,0.253081203,-0.0424531437,-0.0908909738
85841.977858,0.555059502,0.265531526,-0.633499563,0.4394162,0.0955140442,-0.125260413
85841.987885,0.715888654,0.0990373887,0.163911044,0.47631374,0.198659346,-0.0998234898
85841.997912,0.849631208,-0.0803881082,0.852100813,0.338785172,0.222461075,-0.0178580489
85842.007940,0.794837103,-0.218605031,1.13529875,0.10010469,0.148309618,0.0925597996
85842.017967,0.686058456,-0.25118555,1.10572194,-0.152909473,0.00590799563,0.205436811
85842.027994,0.445051606,-0.153459884,0.862262726,-0.323316067,-0.133706629,0.286183864
85842.038021,0.16405195,0.0501049241,0.652252195,-0.418209285,-0.227355346,0.308865219
85842.048048,-0.165198965,0.22043442,0.470756979,-0.402608514,-0.248673424,0.26764667
85842.058076,-0.436913673,0.349066353,0.414234881,-0.309901744,-0.201154903,0.168156818
85842.068103,-0.444372793,0.446912943,0.518508326,-0.190802261,-0.105380714,0.0359870717
85842.078130,-0.325972478,0.475160438,0.599474544,-0.0832840428,-0.000587454648,-0.0916755497
85842.088157,-0.185618872,0.272276105,0.520965071,0.016868921,0.0830459222,-0.177095115
85842.098185,0.021262824,0.0266435306,0.53836395,0.0737338066,0.136577591,-0.213286936
85842.108212,0.201184105,-0.0868616698,0.648901131,0.0704075173,0.151055068,-0.202002332
85842.118239,0.237929672,-0.302170491,0.768137166,0.0234730281,0.128817946,-0.149478391
85842.128266,0.204519971,-0.496971909,0.868873669,-0.0516496859,0.0775608793,-0.0893902928
85842.138293,0.102898064,-0.631616964,0.92328915,-0.155769438,0.0213980041,-0.0492231622
85842.148321,-0.0677304145,-0.718060592,0.889198664,-0.27636376,-0.0300848931,-0.0382128544
85842.158348,-0.238727215,-0.670152155,0.554706597,-0.358418941,-0.0736992136,-0.0583253168
85842.168375,-0.193126105,-0.503241564,-0.0730880326,-0.320709914,-0.0829622224,-0.0858128667
85842.178402,0.0283981192,-0.278576812,-0.656392948,-0.195233747,-0.0435066894,-0.0883889347
85842.188430,0.189165677,-0.183874147,-0.985259576,-0.00528964447,0.0215133205,-0.053112708
85842.198457,0.216230941,-0.174287257,-1.05400344,0.197044805,0.0844874904,-0.00567914732
85842.208484,0.121085025,-0.184447819,-0.787432234,0.346527249,0.115338348,0.0220353045
85842.218511,-0.0298851064,-0.11050927,-0.24963644,0.396765649,0.110777423,0.0347074233
85842.228538,-0.256293559,-0.0622330227,0.226823135,0.388487756,0.082664296,0.0325590521
85842.238566,-0.480911439,0.0262474075,0.692830289,0.30046469,0.0502000935,0.000193389133
85842.248593,-0.633597398,0.160590886,1.08308282,0.153338075,0.0144237187,-0.0541771762
85842.258620,-0.721053636,0.190242257,1.16175713,0.00622879341,-0.012152764,-0.114662349
85842.268647,-0.61818224,0.187352235,0.984780268,-0.11987561,-0.0242869258,-0.155838296
85842.278675,-0.364525569,0.198485039,0.655249623,-0.201681793,-0.0165563021,-0.161562756
85842.288702,-0.115754368,0.204349729,0.19878888,-0.224307224,-0.00511323009,-0.120851815
85842.298729,0.0315527839,0.171115276,-0.301908479,-0.162259027,-0.00264527928,-0.0465264469
85842.308756,-0.00490278695,0.109901477,-0.55187868,-0.0950442925,-0.0170740206,0.0410441495
85842.318783,-0.128687024,0.180956177,-0.410818935,-0.104435131,-0.0527920686,0.107663125
85842.328811,-0.339692923,0.470774551,-0.289411401,-0.170763031,-0.116707399,0.12613827
85842.338838,-0.452500826,0.824648816,-0.302274389,-0.256426781,-0.197281867,0.0944557041
85842.348865,-0.446679499,1.09604182,-0.300427885,-0.326920658,-0.247669414,-0.00453105941
85842.358892,-0.341380073,1.22549179,-0.187616329,-0.376972914,-0.229264572,-0.164741233
85842.368920,-0.157899528,1.06673214,-0.112000239,-0.387201041,-0.127096921,-0.351391524
85842.378947,0.193205856,0.647976782,-0.142678286,-0.371123552,0.0135025317,-0.517842352
85842.388974,0.554823903,0.183177178,-0.50514031,-0.302936226,0.141995266,-0.615572333
85842.399001,0.973462536,-0.297418035,-0.986214685,-0.191979378,0.226533309,-0.593934953
85842.409028,1.34821304,-0.658855465,-1.32078683,-0.0614208207,0.245650813,-0.450841427
85842.419056,1.34739704,-0.700979401,-1.41237498,0.0576978438,0.200067878,-0.237008244
85842.429083,1.17839803,-0.669290935,-1.06947164,0.102665588,0.110453047,0.00372660439
85842.439110,0.827867705,-0.523930424,-0.419576242,0.0612387843,0.011741383,0.208946869
85842.449137,0.248439412,-0.238994342,0.258366274,-0.0555267148,-0.0691880882,0.33095935
85842.459165,-0.144438135,0.0356258055,0.803463331,-0.228232712,-0.113387235,0.372186661
85842.469192,-0.417457204,0.325413127,1.04946404,-0.415186077,-0.12634325,0.323275864
85842.479219,-0.573014626,0.533221253,0.927988706,-0.586269975,-0.12913397,0.210534379
85842.489246,-0.568054995,0.546142913,0.421384753,-0.675225437,-0.123873167,0.0587459132
85842.499273,-0.467910211,0.614171105,-0.29827626,-0.639340401,-0.0901974961,-0.107670233
85842.509301,-0.222681797,0.622891879,-0.805504482,-0.511383474,-0.0182761699,-0.256620556
85842.519328,-0.044784131,0.446639752,-1.1692168,-0.296000302,0.0720454678,-0.358158082
85842.529355,0.0680562855,0.191013716,-1.4417174,-0.0162140746,0.147562817,-0.415935457
85842.539382,0.116644887,-0.0293312354,-1.38325761,0.259308308,0.198011354,-0.43669188
85842.549410,0.0901393398,-0.267718624,-0.773238873,0.437510014,0.226791069,-0.425934821
85842.559437,-0.0203317537,-0.490580235,0.00513444028,0.497903585,0.230610833,-0.397402793
85842.569464,-0.0449411847,-0.547409061,0.644315556,0.460999101,0.21669662,-0.350129545
85842.579491,-0.0207558243,-0.659639821,1.13573655,0.351370335,0.175945729,-0.281895101
85842.589519,-0.00721332891,-0.793955352,1.33155372,0.178066984,0.107826069,-0.200798124
85842.599546,0.0228441384,-0.844517299,1.26364748,-0.00723975478,0.00600889232,-0.120771185
85842.609573,-0.00663720952,-0.723141913,0.807819188,-0.109076902,-0.109612778,-0.0657348335
85842.619600,-0.0392133451,-0.428641008,0.278995221,-0.106750101,-0.19023785,-0.0451131798
85842.629627,-0.101789701,-0.206326656,0.00662204849,-0.0297543835,-0.200160787,-0.0530331545
85842.639655,-0.146570216,-0.015722689,0.00875029269,0.0888140723,-0.139958441,-0.0835444629
85842.649682,-0.0852253373,0.0473893816,0.161382987,0.201179221,-0.048174981,-0.111952931
85842.659709,-0.0331841479,0.0203561209,0.330858679,0.276271313,0.0303608365,-0.12533319
85842.669736,0.0690696272,-0.121317664,0.447827939,0.286877364,0.0558997542,-0.108864725
85842.679764,0.124642608,-0.260145047,0.526186605,0.222385183,0.019532159,-0.0659524202
85842.689791,0.0296480097,-0.214474891,0.451769954,0.14004983,-0.043047864,-0.0188181922
85842.699818,-0.0470746896,-0.0280310395,0.417703434,0.0534443669,-0.0929901227,0.0176495388
85842.709845,-0.0907722674,0.164135062,0.406388844,-0.00558966026,-0.0972099006,0.0417527445
85842.719872,-0.151850421,0.262484815,0.285203428,-0.0159594771,-0.0703681707,0.0413431488
85842.729900,-0.180532545,0.213409088,0.0777209531,0.0154804718,-0.0413421094,0.0218149871
85842.739927,-0.156154694,0.104219961,-0.154660985,0.0840073377,-0.0236025304,-0.016314555
85842.749954,-0.174085707,0.10388956,-0.328621714,0.209079221,-0.00878310297,-0.0649268329
85842.759981,-0.10460991,0.0871196632,-0.202997438,0.346672773,0.029778935,-0.103443861
85842.770009,0.00149608378,-0.018927586,0.242841373,0.420239955,0.0915602818,-0.119177297
85842.780036,-0.0796799782,-0.127745578,0.63379124,0.457904756,0.135562882,-0.124859139
85842.790063,-0.111248654,-0.180292927,0.89140991,0.450998664,0.153061986,-0.117654234
85842.800090,0.0199465903,-0.226768409,1.18527595,0.361924708,0.146752954,-0.083943665
85842.810117,0.0858104072,-0.258857272,1.33836457,0.209972188,0.117893353,-0.0289131701
85842.820145,0.145932539,-0.217450984,1.22047703,0.0305758007,0.0653925911,0.031524606
85842.830172,0.255920781,-0.122078675,0.720201695,-0.102178782,0.0045358981,0.0819347799
85842.840199,0.399607002,0.0675792791,0.0375806659,-0.134317279,-0.0497225448,0.116386771
85842.850226,0.46707577,0.152151523,-0.528869561,-0.0818450153,-0.0707854852,0.121975407
85842.860254,0.522680533,0.295212488,-0.875280613,0.0523348935,-0.0467989258,0.0979084224
85842.870281,0.486668395,0.418780635,-1.03437403,0.267270386,0.0213172734,0.0442204289
85842.880308,0.416078244,0.514110566,-0.912338132,0.510909677,0.124997862,-0.0268172622
85842.890335,0.459352226,0.577200899,-0.428360437,0.683032155,0.233579189,-0.103083268
85842.900363,0.542502949,0.472186062,0.288145326,0.709918082,0.316384882,-0.144751623
85842.910390,0.595245419,0.236746819,0.874871448,0.585313618,0.342684925,-0.140562743
85842.920417,0.706115741,0.0515176222,1.10542208,0.340100646,0.284574211,-0.0813417584
85842.930444,0.818152586,-0.0837009682,0.879177036,0.0889424384,0.178863749,0.0334021375
85842.940471,0.970254314,-0.13680038,0.436166727,-0.135979638,0.0560624748,0.172755495
85842.950499,0.981286069,-0.0596148304,-0.165749365,-0.268328607,-0.0477142558,0.308494151
85842.960526,0.922819852,0.0783215858,-0.694397392,-0.298710734,-0.131061614,0.423000216
85842.970553,0.787288076,0.171270686,-1.04398123,-0.22312279,-0.177250415,0.489979267
85842.980580,0.734244907,0.321405681,-1.10154728,-0.09378317,-0.16921939,0.507742822
85842.990608,0.650594125,0.388799776,-0.769799547,-0.00552201597,-0.11679133,0.497233719
85843.000635,0.54144606,0.345307695,-0.411020595,0.023915235,-0.0627968013,0.474971026
85843.010662,0.440883965,0.285082304,-0.275706116,0.0012836922,-0.0466181003,0.455753922
85843.020689,0.303478541,0.356590648,-0.356681102,-0.0128017664,-0.0717351735,0.436064363
85843.030716,0.108964708,0.654599488,-0.495067244,-0.0273143966,-0.10051702,0.392400235
85843.040744,-0.0169558292,0.854041353,-0.375792045,-0.105376177,-0.114829913,0.345256418
85843.050771,-0.241897516,0.942425812,-0.391743648,-0.199382037,-0.123273194,0.271220803
85843.060798,-0.334743777,1.0057307,-0.671322806,-0.267109662,-0.130340427,0.163392887
85843.070825,-0.149462065,1.0298404,-1.02126379,-0.266905397,-0.12667565,0.0448468029
85843.080853,0.0735161948,0.922273251,-1.31691028,-0.160124645,-0.0953712538,-0.071064353
85843.090880,0.295002024,0.696996907,-1.43448335,0.0529032126,-0.0319707133,-0.172709227
85843.100907,0.507849861,0.384003117,-1.32432728,0.333053112,0.0692632273,-0.259423077
85843.110934,0.561200416,0.0668299768,-0.814203921,0.593789876,0.186804771,-0.308814317
85843.120962,0.511076714,-0.291185918,-0.0116331546,0.770777702,0.280768573,-0.304300278
85843.130989,0.441686586,-0.586712824,0.826332166,0.828961909,0.323252112,-0.240687743
85843.141016,0.446932597,-0.846187717,1.6167706,0.760768473,0.321510404,-0.121606097
85843.151043,0.366928356,-1.00762192,2.27316705,0.55877918,0.265819967,0.0404560491
85843.161070,0.235108952,-1.14721941,2.63572143,0.251133204,0.15954119,0.218246281
85843.171098,0.104737774,-1.14139516,2.61186475,-0.100253053,0.00313773844,0.37999922
85843.181125,-0.132336432,-0.950945291,2.19610427,-0.429602712,-0.165844098,0.481793761
85843.191152,-0.314984014,-0.571193439,1.43226685,-0.640571117,-0.30772692,0.519652486
85843.201179,-0.396824239,-0.115250473,0.596082564,-0.707009315,-0.370443821,0.497775674
85843.211207,-0.424371404,0.203356736,0.0444435374,-0.680700183,-0.349796623,0.429574251
85843.221234,-0.394324641,0.427582986,-0.415937593,-0.56594485,-0.270382732,0.335726321
85843.231261,-0.362840027,0.600744491,-0.91411391,-0.36765784,-0.162237912,0.222914279
85843.241288,-0.259056412,0.591316409,-1.21420745,-0.129005343,-0.0529785268,0.130085275
85843.251316,-0.0652026861,0.498368624,-1.1833178,0.0747770816,0.0328346491,0.0772244483
85843.261343,-0.0668457772,0.26648384,-0.872280847,0.195138648,0.0696350038,0.0505688712
85843.271370,-0.225514609,0.066441489,-0.471865817,0.23271744,0.056710951,0.0217819661
85843.281397,-0.34994551,-0.045668476,-0.0908680194,0.212861717,0.0289850496,-0.0144122578
85843.291424,-0.402968806,-0.102135355,0.241709738,0.129924491,0.000358729973,-0.0482573062
85843.301452,-0.4896214,-0.0774588315,0.45414136,0.0325803608,-0.0265839398,-0.0829487145
85843.311479,-0.460032244,-0.0513894292,0.462544446,-0.0405071639,-0.0425639674,-0.112155333
85843.321506,-0.362883281,-0.0069125376,0.394786669,-0.078145355,-0.04879044,-0.132967398
85843.331533,-0.319069676,0.0352707997,0.258617034,-0.0718589574,-0.0402494147,-0.159221381
85843.341561,-0.212390851,-0.00149332556,0.201255563,-0.0369915254,-0.0126324361,-0.181159168
85843.351588,-0.0446784786,-0.0977289182,0.180597975,0.0147611517,0.0209377743,-0.179449677
85843.361615,0.047816046,-0.238812208,0.186024676,0.0617496967,0.0454034358,-0.169516623
85843.371642,0.0370709628,-0.262135015,0.207902161,0.103614859,0.0538405962,-0.156677529
85843.381670,-0.00614051205,-0.212414853,0.294175254,0.119534969,0.0531188808,-0.14718762
85843.391697,-0.0531702665,-0.113273127,0.410472314,0.0952959433,0.0374227427,-0.134381011
85843.401724,-0.0481793264,-0.0760893424,0.5508885,0.0543224104,0.0190645084,-0.117646232
85843.411751,-0.0242069511,-0.0486801429,0.676955843,-0.0105290245,0.00718707498,-0.111016288
85843.421778,-0.0391102866,-0.0445964172,0.717912123,-0.0757418498,0.00748268561,-0.112227231
85843.431806,-0.0103451607,-0.0718450833,0.712538613,-0.15039745,0.0192056559,-0.113845378
85843.441833,-0.0587600493,-0.123830341,0.546667668,-0.19841291,0.0278963484,-0.118992999
85843.451860,-0.180805991,-0.224975096,0.181583479,-0.184496298,0.0285954289,-0.127728969
85843.461887,-0.307853212,-0.238870149,-0.0838332985,-0.151655525,0.0241285078,-0.140905753
85843.471915,-0.423772817,-0.105219639,-0.162047588,-0.144667655,0.0177816637,-0.149675012
85843.481942,-0.461387422,0.082496296,-0.242419348,-0.16604352,0.0068802787,-0.155559525
85843.491969,-0.442382715,0.242727537,-0.399567473,-0.208181918,-0.0161435492,-0.164107487
85843.501996,-0.346662032,0.353108395,-0.643594841,-0.246936247,-0.0457187481,-0.185297728
85843.512024,-0.183204796,0.427686556,-0.868711172,-0.276142836,-0.0691058338,-0.229768515
85843.522051,0.02210512,0.441422163,-1.05209498,-0.277132213,-0.0665491968,-0.303286403
85843.532078,0.254284412,0.411045949,-1.22199562,-0.255645901,-0.0340643749,-0.39380765
85843.542105,0.445522036,0.334338813,-1.43756904,-0.173142537,0.0141271222,-0.482905298
85843.552133,0.582052029,0.22028829,-1.61205058,-0.0642594546,0.0733750015,-0.551019371
85843.562160,0.683338238,0.194323024,-1.63821437,0.0640399233,0.119868197,-0.587439954
85843.572187,0.747230937,0.12493896,-1.4737001,0.195558801,0.157758594,-0.582808137
85843.582214,0.781245143,0.0739424209,-1.01813309,0.283433288,0.182001084,-0.545838952
85843.592242,0.760876089,-0.0591531038,-0.443757913,0.318288207,0.189341277,-0.481421113
85843.602269,0.745758819,-0.240648009,0.140819507,0.285743564,0.176221222,-0.400516689
85843.612296,0.771930567,-0.423642834,0.681938892,0.178758249,0.145111501,-0.319427699
85843.622323,0.782554983,-0.551024876,1.00167237,0.0257873479,0.0832449421,-0.24988243
85843.632350,0.780016112,-0.594310878,1.06135322,-0.145424351,0.0157407317,-0.19701843
85843.642378,0.685117522,-0.53721752,0.923528804,-0.279078811,-0.0407944508,-0.17189309
85843.652405,0.585844517,-0.489623884,0.534938651,-0.32720986,-0.0668484196,-0.168833926
85843.662432,0.556780481,-0.405693117,0.188821029,-0.320694149,-0.0524870604,-0.171754077
85843.672459,0.523953987,-0.376663604,-0.11050211,-0.245776519,-0.0151154511,-0.159104601
85843.682487,0.537538787,-0.440964921,-0.347611076,-0.125402436,0.0214263145,-0.118540116
85843.692514,0.592106646,-0.52692208,-0.378784798,-0.0155654186,0.028321771,-0.051405292
85843.702541,0.570445726,-0.627514132,-0.255156664,0.0808466002,0.00234210212,0.0391355269
85843.712568,0.543609376,-0.673866645,0.0720300479,0.137825206,-0.0371712185,0.134629816
85843.722596,0.486695028,-0.668921517,0.593459814,0.148626447,-0.0712932348,0.226219386
85843.732623,0.344458677,-0.588345467,1.0536726,0.113734245,-0.107305303,0.288377821
85843.742650,0.154689736,-0.434300239,1.32357909,0.0652878806,-0.143434539,0.314959377
85843.752677,0.0437732186,-0.269291938,1.45759944,-0.00950672664,-0.161821008,0.305984259
85843.762705,-0.0111351785,-0.0457275493,1.44259418,-0.0718425438,-0.157033443,0.280760407
85843.772732,-0.0710036275,0.164237207,1.22360598,-0.125888199,-0.136210978,0.249331638
85843.782759,-0.0673318071,0.297002111,0.83346041,-0.161703184,-0.112141334,0.230128109
85843.792786,-0.0196980224,0.413815925,0.366361369,-0.169121951,-0.0936752409,0.218454406
85843.802813,0.0190062042,0.474938795,-0.0242658417,-0.163689911,-0.0868471637,0.208434001
85843.812841,0.02029007,0.423351961,-0.287962371,-0.13848868,-0.0861131996,0.199666336
85843.822868,-0.0110810007,0.341184696,-0.393717578,-0.117073938,-0.0871765986,0.179257467
85843.832895,-0.08921722,0.211700384,-0.459703085,-0.0658927709,-0.0931697711,0.148429781
85843.842922,-0.0956781596,0.0238484931,-0.448973017,-0.000787004712,-0.0878596976,0.131162658
85843.852950,-0.0902192732,-0.157183197,-0.334882527,0.04545426,-0.0805959255,0.129267275
85843.862977,-0.24551757,-0.185423203,-0.278790638,0.0954409912,-0.0848721638,0.135879368
85843.873004,-0.351105896,-0.108539541,-0.240518483,0.128881514,-0.0996535048,0.139913261
85843.883031,-0.343795975,-0.0130429849,-0.123981184,0.13821882,-0.114259876,0.135776579
85843.893059,-0.310732604,0.0710528735,0.0604997691,0.087542586,-0.123782814,0.136308938
85843.903086,-0.238950101,0.0803467715,0.109947983,3.19172977e-05,-0.133412808,0.14089331
85843.913113,-0.072482614,0.162981435,-0.084781393,-0.0724263042,-0.154441655,0.145887807
85843.923140,0.0329862142,0.418991793,-0.378140654,-0.102601521,-0.165989116,0.132986113
85843.933168,0.13030699,0.567047973,-0.507882302,-0.0949206948,-0.155013695,0.102773629
85843.943195,0.218120079,0.535091577,-0.524476294,-0.073047623,-0.109915197,0.0518393405
85843.953222,0.228907978,0.39500612,-0.665111676,-0.000165955571,-0.0455239601,-0.00701944996
85843.963249,0.240511103,0.268786875,-0.902544468,0.130088985,0.0147287305,-0.0625138655
85843.973277,0.294720321,0.21732575,-1.12919575,0.306844324,0.062380936,-0.117616795
85843.983304,0.279308049,0.186621582,-1.10174719,0.515149295,0.105065547,-0.161581069
85843.993331,0.26473928,0.165915315,-0.650600336,0.683879733,0.158126906,-0.191910475
85844.003358,0.292099032,-0.00355752808,0.112008423,0.786003172,0.216989949,-0.195160076
85844.013386,0.343559645,-0.260653344,0.928693639,0.797208428,0.266918123,-0.170278683
85844.023413,0.436321662,-0.516399151,1.60490889,0.703128815,0.292844772,-0.116128094
85844.033440,0.445697101,-0.732283251,1.992451,0.535007417,0.284187376,-0.0381858908
85844.043467,0.41577053,-0.917004443,2.0377041,0.300905734,0.226039901,0.0573078729
85844.053495,0.422807406,-1.01240222,1.75533443,0.0466601402,0.138001129,0.155444548
85844.063522,0.414991399,-0.861646859,1.14800684,-0.129635006,0.0603958145,0.25718078
85844.073549,0.428181172,-0.741517966,0.445325016,-0.19978027,0.01630692,0.369261771
85844.083576,0.46983084,-0.669274568,-0.14121932,-0.191017136,-0.00211523077,0.48304531
85844.093604,0.421585353,-0.411516745,-0.652259209,-0.108627982,-0.00312323729,0.573678315
85844.103631,0.299213394,-0.128932688,-0.990454806,0.037450131,0.00056896935,0.629431605
85844.113658,0.122572304,-0.00471502756,-1.02767716,0.192818671,0.00746469246,0.638626158
85844.123685,-0.113017344,0.0560621931,-0.758261085,0.338773489,0.0277547836,0.60695374
85844.133713,-0.340392633,0.105320871,-0.215036835,0.412478894,0.0552157015,0.541920662
85844.143740,-0.478726752,0.263313996,0.416541989,0.382106602,0.0728487596,0.459749579
85844.153767,-0.514704659,0.47509362,0.803401372,0.292610794,0.0691099465,0.38488546
85844.163794,-0.454081629,0.70253379,0.944414355,0.16540277,0.0522255041,0.324301481
85844.173822,-0.344586614,0.769792386,0.88843294,0.0412478,0.031991072,0.28840366
85844.183849,-0.238746998,0.790741724,0.659732906,-0.0724782348,0.0143092833,0.269203603
85844.193876,-0.144286123,0.767571641,0.356442617,-0.163244098,-0.0039240499,0.255569577
85844.203903,-0.0984145806,0.706649994,-0.0219470434,-0.242491245,-0.0296802782,0.247293249
85844.213931,-0.0791196043,0.59791683,-0.44410921,-0.301233917,-0.0668377727,0.240323231
85844.223958,-0.0521982431,0.475158904,-0.936800373,-0.310737669,-0.115427144,0.223879799
85844.233985,0.0289526844,0.410161092,-1.4117928,-0.244583428,-0.151715636,0.185912982
85844.244012,0.203578599,0.328401458,-1.6240362,-0.137756571,-0.15325442,0.13793321
85844.254040,0.340583844,0.204417991,-1.68049693,0.0283421185,-0.121695161,0.0831277519
85844.264067,0.448337021,0.0541668763,-1.54918175,0.217222825,-0.075314343,0.0358896665
85844.274094,0.620077406,-0.125089968,-1.06610714,0.359226584,-0.0292693526,0.0104812458
85844.284121,0.692387221,-0.332518611,-0.420534858,0.413147062,0.000149787811,0.0274202824
85844.294149,0.748671565,-0.425287642,0.188856684,0.387660354,-0.00295492541,0.0766011477
85844.304176,0.759403825,-0.394424886,0.683185678,0.294707239,-0.0365325958,0.140963614
85844.314203,0.730769047,-0.404693073,1.01345165,0.154733077,-0.0801168233,0.198836774
85844.324230,0.676414576,-0.338238816,1.19967623,-0.00580972619,-0.118962221,0.244255915
85844.334258,0.627843437,-0.25795846,1.12519061,-0.149281412,-0.152223513,0.276169121
85844.344285,0.612218181,-0.0885996087,0.785582807,-0.23030968,-0.17578502,0.278261006
85844.354312,0.640990138,0.127271449,0.310304551,-0.22433567,-0.181213617,0.265094072
85844.364339,0.691568598,0.188462187,-0.0986234558,-0.145708248,-0.15998742,0.239757031
85844.374367,0.737802453,0.180588403,-0.310332608,0.00585092418,-0.111010559,0.213431954
85844.384394,0.820947112,0.1489863,-0.0605652356,0.108697675,-0.0415417328,0.185291663
85844.394421,0.81019264,0.0858740105,0.348341144,0.174198121,0.0188073628,0.163254008
85844.404448,0.734975924,-0.0076601137,0.723134826,0.182740748,0.0488046743,0.145138651
85844.414476,0.702242699,-0.044229301,1.07450087,0.112503864,0.040483892,0.127978042
85844.424503,0.594184475,-0.112424045,1.33314304,-0.0206043851,0.0137313772,0.115767188
85844.434530,0.482320137,-0.19473544,1.4393571,-0.184483066,-0.0257473234,0.0995147154
85844.444557,0.416637047,-0.311754677,1.28789578,-0.343797863,-0.0640776679,0.0669815391
85844.454585,0.411007699,-0.356534862,0.819521901,-0.44658789,-0.0897337645,0.0266554207
85844.464612,0.471526392,-0.331390192,0.201284789,-0.452933937,-0.0953029692,-0.0124072926
85844.474639,0.583326287,-0.299538699,-0.35249008,-0.376191765,-0.0791072175,-0.0402269363
85844.484666,0.680987729,-0.267436684,-0.767255707,-0.234830931,-0.0494529195,-0.0548066795
85844.494694,0.695949005,-0.276245557,-0.895117533,-0.0859820619,-0.00337384082,-0.054243423
85844.504721,0.646010231,-0.308734525,-0.755284699,0.0336021297,0.0348925851,-0.0399667472
85844.514748,0.507565491,-0.337425636,-0.439704838,0.102523401,0.0591803491,-0.0314446315
85844.524775,0.35899654,-0.323549963,-0.0257499428,0.089358598,0.06115162,-0.0267729163
85844.534803,0.240275322,-0.290006681,0.239395032,0.0263250992,0.0404623337,-0.022307666
85844.544830,0.183739305,-0.156790343,0.361779302,-0.0496543534,0.0118842172,-0.0247702897
85844.554857,0.213402439,0.0122610545,0.387942502,-0.124623135,-0.00519942911,-0.0345936269
85844.564884,0.311226817,0.108654893,0.336186011,-0.192246929,-0.0104160281,-0.0429775231
85844.574912,0.298323058,0.166782398,0.0181610951,-0.199720278,-0.0108999247,-0.0511840545
85844.584939,0.247436591,0.240364059,-0.399511944,-0.135128513,0.00191493961,-0.0613093898
85844.594966,0.177311172,0.310138949,-0.54737377,-0.0544147529,0.0291787833,-0.058530651
85844.604993,0.0364343088,0.300241331,-0.472379027,-0.00736149214,0.0531895794,-0.031409286
85844.615021,-0.165078882,0.277367035,-0.427695251,-0.00613963418,0.0407539494,0.00399397966
85844.625048,-0.276813639,0.390697865,-0.392784097,-0.0552850738,-0.0147255557,0.03775727
85844.635075,-0.386756215,0.581091185,-0.390312154,-0.126590952,-0.0955519602,0.0387429073
85844.645102,-0.428576929,0.782130474,-0.358406611,-0.207612291,-0.164854348,-0.00733057968
85844.655130,-0.370257573,0.856826965,-0.35656186,-0.256420583,-0.196364865,-0.0977792516
85844.665157,-0.235098942,0.857635797,-0.545309823,-0.200331211,-0.172149539,-0.226365447
85844.675184,0.0805075516,0.854077739,-0.518937949,-0.0970919132,-0.0877113491,-0.358308852
85844.685212,0.398614009,0.704958533,-0.275761061,-0.00574974716,0.02135708,-0.449027568
85844.695239,0.654854705,0.449235212,-0.198276255,0.0741986185,0.0988079309,-0.477307945
85844.705266,0.854348081,0.238889128,-0.152284319,0.115029931,0.118084423,-0.446164399
85844.715293,0.957403674,0.00196397528,0.105671621,0.0707982928,0.0811759382,-0.339757532
85844.725321,0.952875017,-0.220183898,0.329206235,-0.028885426,0.00207020179,-0.175186694
85844.735348,0.864134219,-0.347632521,0.459101612,-0.166694954,-0.108394258,0.00875890721
85844.745375,0.697727048,-0.299727554,0.516239796,-0.304378808,-0.231923118,0.156172067
85844.755402,0.406084308,-0.0163647497,0.453140074,-0.380798489,-0.326333225,0.213930428
85844.765430,0.0207082223,0.386565186,0.373193846,-0.376851946,-0.356537491,0.167502761
85844.775457,-0.130375781,0.615048326,0.453520013,-0.336726874,-0.307353407,0.0374406204
85844.785484,-0.20755006,0.746453669,0.438072853,-0.227048844,-0.191786885,-0.144011468
85844.795511,-0.184130533,0.750759477,0.319658655,-0.101065345,-0.0556889661,-0.341599375
85844.805539,-0.0631320173,0.535932923,0.167346279,0.0184874162,0.0558583327,-0.507195294
85844.815566,0.240903829,0.124100025,0.0697451519,0.124960065,0.11414215,-0.593034804
85844.825593,0.64549103,-0.318673407,0.186583479,0.172153667,0.122376643,-0.595098197
85844.835621,0.869617108,-0.63312357,0.325513226,0.179341808,0.0871491432,-0.533460677
85844.845648,0.994125385,-0.762689715,0.461148608,0.138121411,0.0148746809,-0.441588283
85844.855675,1.01580523,-0.805904441,0.61961483,0.086129576,-0.0641940385,-0.348349422
85844.865702,1.00305454,-0.753893026,0.882778276,0.00176649215,-0.117368042,-0.280741096
85844.875730,0.997622287,-0.729701856,1.08952425,-0.0913376212,-0.125240356,-0.230253935
85844.885757,1.03851624,-0.695486502,1.06411976,-0.183030248,-0.104876488,-0.198203325
85844.895784,1.1209621,-0.62888827,0.753119045,-0.249696895,-0.0776437968,-0.162068486
85844.905811,1.2316791,-0.530732688,0.261852947,-0.292994589,-0.0676779822,-0.113915876
85844.915839,1.26303285,-0.321795776,-0.337144043,-0.297695339,-0.0704692453,-0.0654482096
85844.925866,1.24461983,-0.0966469316,-0.894033829,-0.264189839,-0.0857528597,-0.030490227
85844.935893,1.19334908,0.136739726,-1.38224405,-0.177650139,-0.108776152,-0.0105735119
85844.945920,1.18395069,0.340749995,-1.63238142,-0.0483779013,-0.110359669,-0.0131951272
85844.955948,1.25390905,0.494672838,-1.44744922,0.0778609961,-0.0692609698,-0.0235894434
85844.965975,1.42094685,0.389355218,-0.929811829,0.135464907,-0.00176954374,0.00171165075
85844.976002,1.4830561,0.159874518,-0.475102315,0.140950218,0.0404317081,0.0477158949
85844.986029,1.37232047,0.145298917,-0.337612245,0.138081983,0.0431076512,0.0768367648
85844.996057,1.22105943,0.226799863,-0.178520584,0.140404806,0.0315087847,0.0772399604
85845.006084,1.00247543,0.347105026,0.0525941106,0.155358449,0.0522774458,0.0501697324
85845.016111,0.804537171,0.176384851,0.360594476,0.170496657,0.0988824964,0.0199524388
85845.026139,0.729684029,0.0342551747,0.529135518,0.207577437,0.16016449,-0.0108600669
85845.036166,0.800670705,-0.0376918894,0.762171536,0.193664566,0.223389536,-0.0141799636
85845.046193,0.830209738,-0.127122606,0.900935864,0.117310129,0.262205929,0.0285350084
85845.056220,0.833916629,-0.204752136,0.817095551,-0.0304734688,0.261405647,0.0991553813
85845.066248,0.761161117,-0.264317602,0.548183333,-0.241229385,0.217909276,0.202484965
85845.076275,0.55254098,-0.276010834,-0.114960843,-0.439800262,0.127354607,0.320550352
85845.086302,0.242888427,-0.0251557398,-1.07101069,-0.5583269,-0.000766330981,0.40748179
85845.096329,-0.0616675708,0.32647608,-2.03881878,-0.52562809,-0.136768907,0.424442381
85845.106357,-0.208884742,0.668235288,-2.65380011,-0.345302522,-0.209593579,0.376586705
85845.116384,-0.22371114,0.861431682,-2.756901,-0.0386895873,-0.17908068,0.284838945
85845.126411,-0.151321392,0.956225205,-2.48509832,0.318783045,-0.0561779216,0.172874331
85845.136439,-0.0765041977,0.866725259,-1.81758543,0.63671416,0.0991536081,0.063157171
85845.146466,-0.00184628545,0.690219668,-0.917186157,0.846215189,0.221445695,-0.0239566937
85845.156493,0.0857350404,0.523530026,0.00901391206,0.904495776,0.279788107,-0.0717702881
85845.166520,0.199077269,0.364059668,0.842663707,0.831096649,0.286907524,-0.0711596236
85845.176548,0.352909365,0.181396833,1.53699271,0.630770206,0.258589089,-0.0271492936
85845.186575,0.415314457,-0.00141010426,1.9428701,0.35066694,0.194311008,0.0433792025
85845.196602,0.420006268,-0.16656965,1.97220667,0.0514264591,0.102647409,0.109687388
85845.206630,0.440718983,-0.292347052,1.65895145,-0.212636888,0.00595309073,0.173050642
85845.216657,0.481378363,-0.22557613,1.1087936,-0.393953681,-0.064190045,0.213750124
85845.226684,0.468821481,0.000412526324,0.393681922,-0.456262857,-0.0832074136,0.228327215
85845.236711,0.460489925,0.188528841,-0.235264215,-0.403890222,-0.0581712984,0.221982241
85845.246739,0.444752148,0.337233036,-0.653607116,-0.286007255,-0.00259512383,0.198230296
85845.256766,0.417228656,0.41648255,-0.976551953,-0.1135111,0.0508691669,0.171809882
85845.266793,0.345510487,0.417549924,-1.13721481,0.086084567,0.092066139,0.142840534
85845.276820,0.29967776,0.373226981,-0.91705347,0.237021625,0.121670105,0.115573503
85845.286848,0.266021867,0.240014515,-0.38249885,0.302453071,0.141648859,0.092188023
85845.296875,0.213539327,0.168636648,0.194404382,0.282033294,0.145235613,0.0766247734
85845.306902,0.157456022,0.164515823,0.627314737,0.207987577,0.136431992,0.0585813262
85845.316930,0.132242452,0.105608273,0.889990691,0.104593806,0.12089406,0.0559495874
85845.326957,0.121328259,0.0252668994,0.947102571,-0.00706881098,0.0946265012,0.0691972226
85845.336984,0.115209484,0.012007687,0.827678904,-0.10099557,0.0641958937,0.0931685939
85845.347011,0.115472372,0.0523133392,0.556846532,-0.169678494,0.0259630177,0.115624107
85845.357039,0.0884305997,0.0778496575,0.233534615,-0.188036725,-0.00869722478,0.131223559
85845.367066,0.0633999476,0.106150015,-0.0496563036,-0.156693727,-0.028065864,0.134191394
85845.377093,0.0519496387,0.188498245,-0.22253742,-0.0784292743,-0.0287622791,0.117961027
85845.387121,0.0679977968,0.254848658,-0.266368963,0.0142636411,-0.0044646631,0.0860449076
85845.397148,0.121593997,0.242120858,-0.171047472,0.0835084915,0.026529206,0.055550646
85845.407175,0.100999683,0.255891719,-0.0607025982,0.124464452,0.0467407368,0.0311033614
85845.417202,0.0678148414,0.272970645,0.0965612626,0.135764509,0.0504318774,0.00220140582
85845.427230,0.120581751,0.269003732,0.323355171,0.0938721821,0.0428740904,-0.0265804417
85845.437257,0.105242984,0.220942114,0.46636079,0.0292748157,0.032033693,-0.0520527773
85845.447284,0.187845315,0.188223684,0.472612251,-0.0280262902,0.0246532746,-0.0749927163
85845.457311,0.356571139,0.154810184,0.382999785,-0.0784532428,0.0253941659,-0.0874342024
85845.467339,0.475317967,0.142499295,0.167331666,-0.108505949,0.0280602556,-0.0918356106
85845.477366,0.538076,0.190588769,-0.118131289,-0.125479877,0.0189570393,-0.0968250409
85845.487393,0.62453497,0.178357447,-0.389750428,-0.134045407,0.00846871268,-0.106603906
85845.497421,0.712918552,0.221243782,-0.622680063,-0.138049737,0.00258578965,-0.121554889
85845.507448,0.818634378,0.297284289,-0.878657981,-0.116505019,0.00791797135,-0.133050948
85845.517475,0.876224178,0.323282581,-1.15382108,-0.0634575188,0.0244311672,-0.140726984
85845.527502,0.89668712,0.344012577,-1.30473235,-0.0121035175,0.0501522459,-0.140919268
85845.537530,0.818348181,0.307931319,-1.37045599,0.033080969,0.0731999129,-0.137860015
85845.547557,0.702197837,0.311226927,-1.41671447,0.0646309033,0.0873546153,-0.145072117
85845.557584,0.552978239,0.3559004,-1.40169051,0.0805374309,0.0958106816,-0.171604127
85845.567612,0.453391564,0.36218043,-1.38216221,0.0632178262,0.100983344,-0.205738127
85845.577639,0.404373157,0.379113956,-1.40757723,0.0386331268,0.10308218,-0.235855028
85845.587666,0.390225389,0.408239659,-1.53809512,0.0111346552,0.101425692,-0.262966007
85845.597693,0.42356849,0.538879096,-1.66285489,-0.0317960344,0.103680857,-0.287594408
85845.607721,0.387270521,0.662220923,-1.86132053,-0.0788727328,0.113310046,-0.320977122
85845.617748,0.274514093,0.702675391,-2.16849087,-0.125757411,0.127520129,-0.370126545
85845.627775,0.107452074,0.761928667,-2.52209388,-0.151049718,0.153495282,-0.448518842
85845.637803,-0.159322766,0.823310991,-2.85604117,-0.14347969,0.203524351,-0.561401188
85845.647830,-0.492003802,0.757109284,-3.10792802,-0.0682158321,0.271087945,-0.68450582
85845.657857,-0.694339378,0.712678752,-3.17933322,-0.0126907825,0.372716844,-0.813160717
85845.667884,-0.803772251,0.623197292,-2.9931326,0.144717216,0.526140213,-0.950288475
85845.677912,-0.774137503,0.571940421,-3.17074776,0.314614117,0.671169579,-1.03362012
85845.687939,-0.705896033,0.406991413,-3.13104762,0.507591784,0.768606663,-1.05803967
85845.697966,-0.708263055,0.204441609,-2.95822554,0.628750682,0.811372519,-1.01836979
85845.707994,-0.737444726,-0.0853175091,-2.77000598,0.705181837,0.821703434,-0.949009359
85845.718021,-0.683074765,0.000354195149,-2.67459915,0.708911598,0.791212082,-0.913597822
85845.728048,-0.95735187,-0.210776182,-2.45638661,0.544756472,0.715585232,-0.863971412
85845.738075,-1.08670328,-0.461977314,-2.46224059,0.419545054,0.627095878,-0.825633347
85845.748103,-0.99566655,-0.481775947,-2.56403508,0.332106024,0.552402735,-0.813080013
85845.758130,-0.90467337,-0.35428701,-2.46227742,0.280558139,0.530914724,-0.82703954
85845.768157,-0.646178866,-0.242729217,-2.28438461,0.231147185,0.564796507,-0.845009208
85845.778185,-0.405419889,-0.146928875,-2.31130067,0.0815377086,0.567687929,-0.844372153
85845.788212,-0.316985198,-0.0415362716,-2.79903801,0.0755490586,0.500328064,-0.818086505
85845.798239,-0.118640992,-0.00468455935,-3.34079804,0.236065507,0.373692632,-0.769102991
85845.808267,0.0467513759,0.131019449,-3.44308235,0.425003201,0.224064246,-0.715669334
85845.818294,0.0761778883,0.287186089,-3.10109555,0.547974646,0.10148029,-0.652384877
85845.828321,0.0945242038,0.295494301,-2.32080558,0.583979249,0.0359374955,-0.59828037
85845.838348,-0.0406972635,0.123612461,-1.85385501,0.565597832,-0.00641182577,-0.547978044
85845.848376,-0.143598762,0.0292816971,-1.03048287,0.279177547,0.0234171748,-0.487843871
85845.858403,-0.305878697,-0.250257604,-0.556238629,0.159081519,0.0928042382,-0.483623296
85845.868430,-0.499588302,-0.468923589,-1.1369886,0.14870584,0.146788374,-0.484935701
85845.878458,-0.329536563,-0.255547161,-0.875793239,-0.0600103587,0.216749087,-0.483310103
85845.888485,-0.0352560223,-0.274770808,-1.10128074,-0.200935513,0.304698646,-0.445480973
85845.898512,0.265427372,-0.419199737,-1.57331256,-0.202238336,0.447167903,-0.369984359
85845.908539,0.472425862,-0.570561315,-1.61384916,-0.253163844,0.708338499,-0.19456777
85845.918567,0.991740243,-0.651805035,-1.08484574,-0.427902102,1.082371,0.0216052718
85845.928594,1.30530825,-0.621240824,-0.316834245,-0.716594934,1.51704574,0.23236385
85845.938621,1.12109823,-0.652003846,0.383278017,-1.06985176,1.92510438,0.390341759
85845.948649,0.669329878,-0.576056186,0.508713492,-1.38696373,2.246773,0.483926564
85845.958676,0.157938691,-0.0503385182,-0.0888701236,-1.54092586,2.45802975,0.536808133
85845.968703,-0.063930182,0.384950334,-0.826328659,-1.55643022,2.51313806,0.583589256
85845.978731,-1.02638902,0.719905197,-1.26787416,-1.49312043,2.37578464,0.59185487
85845.988758,-1.70634565,0.440895436,-1.914339,-1.2373755,2.05033684,0.769100249
85845.998785,-0.782319421,-0.639752925,-2.80501826,-0.983824492,1.58169913,0.940456569
85846.008812,-0.531625874,0.251807281,-2.89901288,-0.792766094,1.04985094,1.0271827
85846.018840,-0.170825353,0.628899668,-3.01821326,-0.559892654,0.53059119,0.988924503
85846.028867,-0.0388113767,1.05282242,-2.7952205,-0.363542795,0.0261455849,0.837995946
85846.038894,0.299197174,1.48300203,-2.46310569,-0.208573461,-0.461329281,0.641811013
85846.048922,0.737391899,1.62711634,-2.11803494,-0.040829476,-0.91451329,0.426606268
85846.058949,1.13628776,1.62242994,-1.79344117,0.21524252,-1.29019284,0.222690985
85846.068976,1.487937,1.41804879,-1.49645553,0.602553487,-1.57453752,0.0465239398
85846.079004,1.71820136,1.15512763,-1.21861299,1.09908307,-1.77861977,-0.076417163
85846.089031,1.79960159,0.886739873,-0.929528336,1.64568806,-1.94348752,-0.145069197
85846.099058,1.93823206,0.330875557,-1.47562025,2.64411736,-2.04990029,-0.162189856
85846.109085,1.96352184,-0.0792159135,-2.39215057,3.24961901,-2.16484165,-0.210174426
85846.119113,1.87356655,0.412805725,1.28868664,2.15278077,-2.16915631,-0.340596616
85846.129140,1.18894164,-0.278708732,3.25167365,0.836345971,-2.05684781,-0.478297234
85846.139167,0.106899336,-0.985030297,2.39071499,0.587659478,-1.92263317,-0.542664766
85846.149195,0.280425692,-0.764504582,1.85905083,0.722996533,-1.72642422,-0.521325409
85846.159222,1.19258671,-0.189717174,2.48303145,0.736914217,-1.42972994,-0.41719234
85846.169249,1.56308372,0.15357034,2.28754863,0.733521044,-1.04327548,-0.268675834
85846.179277,1.41886025,0.0349651496,1.93522572,0.737150431,-0.697823286,-0.110431857
85846.189304,1.4909546,-0.147056282,1.76252931,0.72307986,-0.49704361,0.058014147
85846.199331,1.55037139,0.116933093,1.72769298,0.604898393,-0.437232196,0.239764243
85846.209359,1.52220606,0.0129850076,1.29213941,0.643325925,-0.448716283,0.27412805
85846.219386,1.39572005,-0.111942299,0.823358703,0.747521281,-0.494965523,0.198467657
85846.229413,1.3415435,0.506598619,0.662475482,0.814715266,-0.567220032,0.157611042
85846.239440,1.25805886,0.654669777,0.703792997,0.812578619,-0.650934339,0.154785424
85846.249468,1.1091658,0.306190832,0.998546927,0.654649973,-0.737493515,0.147450283
85846.259495,1.11863015,0.0388682214,1.42915018,0.396927625,-0.832706034,0.146821246
85846.269522,1.26876015,-0.011008593,1.50919051,0.16148369,-0.934997261,0.178808481
85846.279550,1.40243314,0.0257987504,1.23610072,0.0149261979,-1.03047502,0.239373013
85846.289577,1.42030329,0.0577748742,0.837806915,-0.0100390734,-1.10858047,0.300766051
85846.299604,1.31658573,0.266113819,0.415517907,0.128708959,-1.14021373,0.343329221
85846.309632,1.12772444,0.732977298,0.184544082,0.358418047,-1.11908448,0.365220696
85846.319659,0.872694396,1.07176867,0.242380769,0.643249214,-1.04205966,0.368931264
85846.329686,0.631428456,1.26130033,0.570847585,0.927612484,-0.923090518,0.374315113
85846.339713,0.279248245,1.21356316,1.20397948,1.04268157,-0.784214139,0.401650339
85846.349741,0.214855268,1.39007562,2.30150116,0.795286953,-0.62862134,0.317215085
85846.359768,0.20452684,1.20827265,2.6311756,0.524504185,-0.514454842,0.17543824
85846.369795,0.290690188,0.828244429,2.28295604,0.382267982,-0.46773684,0.0773763955
85846.379823,0.463321933,0.496113831,1.94813839,0.28241542,-0.474105,0.0436027162
85846.389850,0.768916115,0.492859797,1.50247085,0.269687653,-0.511924028,0.054204762
85846.399877,1.0520968,0.596909078,1.06145142,0.338688821,-0.559678733,0.0988673046
85846.409905,1.07283104,0.651481795,0.873830414,0.433230788,-0.593663871,0.155090094
85846.419932,0.835400511,0.71552099,1.01152799,0.468077958,-0.607478201,0.204866439
85846.429959,0.641618353,0.763889592,1.21195353,0.436144799,-0.599793971,0.23904492
85846.439987,0.533432631,0.797914027,1.25956342,0.389521658,-0.593777895,0.262832791
85846.450014,0.461793774,0.8585345,1.28756611,0.344430864,-0.593815386,0.270705372
85846.460041,0.459944785,0.977062241,1.04400286,0.368348986,-0.600246429,0.253742099
85846.470069,0.353850117,0.988069373,0.64497139,0.458231747,-0.606548786,0.19479543
85846.480096,0.104683487,0.714545569,0.350275327,0.618212819,-0.6208902,0.10925816
85846.490123,0.173247027,0.645369157,0.464145452,0.776048005,-0.632591069,0.0250013359
85846.500150,0.483734388,0.644036301,1.02718032,0.832027137,-0.638995647,-0.00845835451
85846.510178,0.736326901,0.53730918,1.69403913,0.778986812,-0.642075598,0.0206041895
85846.520205,0.876205181,0.444806837,2.1727573,0.654532254,-0.633438468,0.090954788
85846.530232,0.970544091,0.475329401,2.24802209,0.506850362,-0.617933512,0.183890313
85846.540260,1.1140014,0.727848118,2.01587162,0.403108895,-0.595235467,0.287929446
85846.550287,1.10412225,0.927915056,1.46723178,0.449559212,-0.572089672,0.368874103
85846.560314,1.02829252,1.25499772,1.07372112,0.606168807,-0.536805153,0.398023725
85846.570342,0.755913937,1.50769706,1.21513333,0.602415085,-0.603868663,0.404771656
85846.580369,0.152469612,1.33003718,1.99672151,0.314362764,-0.825402915,0.219210312
85846.590396,-0.24474443,1.21131874,1.49257665,0.163541853,-1.01905489,0.0229992457
85846.600424,0.465661848,1.25883014,0.839682061,0.12743178,-1.05249619,-0.0741398185
85846.610451,1.10914125,1.00022275,0.890786225,0.168502524,-0.9890275,-0.0458647721
85846.620478,1.31473615,0.851727304,1.13328916,0.197970927,-0.857566655,0.0190780088
85846.630506,1.16128367,0.864441239,1.73159875,0.121285476,-0.707798779,0.0612265281
85846.640533,1.00917587,0.922737361,2.02536718,0.014662358,-0.54939872,0.098181881
85846.650560,0.908497531,1.14721335,1.9362007,-0.0501262248,-0.397447526,0.106178023
85846.660588,0.820551536,1.44735277,1.84959326,-0.0941437483,-0.27828145,0.0681613982
85846.670615,0.622879677,1.75611068,1.87053727,-0.175313175,-0.239155635,0.029775925
85846.680642,0.498124586,1.630041,1.90710788,-0.332259387,-0.268766791,-0.0838313326
