t,ax,ay,az,gx,gy,gz
89784.990789,0.0504485134,0.0241928678,0.0155482823,0.0443702117,0.0233774576,-0.000546359457
89785.000817,0.0111694096,0.0295678937,0.0136176065,0.123298578,0.049876973,-0.00284972787
89785.010844,0.0605272051,0.182963389,-0.0625052638,0.171973169,0.0639126301,-0.0106908726
89785.020872,0.122672915,0.162053652,0.00321136326,0.0977066681,0.0361739434,-0.00499863271
89785.030900,0.0303236439,-0.128908887,0.202373753,0.0120335761,0.00754389912,0.001451544
89785.040927,-0.0309020649,0.130403126,0.219075297,0.100339204,-0.0170783568,-0.003962663
89785.050955,-0.0297461363,0.141147579,0.219260591,0.0813886821,0.000688389642,-0.000474187545
89785.060982,0.00625062136,-0.0102745522,-0.070911273,-0.0315160304,0.0223004743,0.00150933443
89785.071010,-0.0293813581,-0.135100289,-0.0220329681,0.0450059064,0.00603681616,-0.00698854681
89785.081037,-0.0031871056,0.0924003527,0.215651168,0.0253102332,-0.00393166207,0.00224702992
89785.091065,0.0550572858,0.0324922293,0.0830886176,-0.109818026,-0.0403791554,-0.000617465936
89785.101093,0.0345597471,-0.143413642,0.262556711,-0.0082551837,-0.0310045574,0.00155460835
89785.111120,-0.0210620407,0.0754486607,-0.019587913,0.0159683973,-0.00449065957,-0.000760477968
89785.121148,-0.0142985379,-0.0903163495,0.114643447,-0.0222266596,-0.00673570391,-0.00483591296
89785.131175,-0.01312153,-0.0899936751,0.114690794,0.022217771,-0.0223396979,-0.00895102974
89785.141203,0.04956099,0.0807998308,0.0972872388,0.0148163131,-0.0171574522,-0.0144946659
89785.151230,0.0177161278,-0.0353535644,0.0290858092,-0.0183381774,-0.00343445013,0.00203770539
89785.161258,-0.0156489296,0.0559675599,-0.00265080677,0.0259371419,0.00956071075,-0.000709610991
89785.171286,0.0091755689,0.0383233466,0.062618661,0.0168355219,-0.00952962693,-0.00490488857
89785.181313,0.0590340074,-0.0108663441,0.125658178,0.0105065191,-0.00514020491,-0.0126815857
89785.191341,0.0148167897,-0.0272615347,0.0426420409,0.0267890859,-0.00173988054,-0.0427859575
89785.201368,0.0333883287,-0.0935544455,0.060348378,0.0472485535,0.000812759274,-0.0600967743
89785.211396,0.00243690829,-0.0948772916,0.0893961933,0.0250266064,0.00133314088,0.0381783992
89785.221424,0.0242128329,0.657129591,-0.0271270764,0.0605071038,-0.00322139706,0.0372489542
89785.231451,0.0956543038,-0.124607828,0.107912093,0.0183995962,-0.00338305091,-0.00439436082
89785.241479,-0.111348388,-0.311039222,0.143505385,-0.0149525013,0.0106816357,0.00429393584
89785.251506,0.0817806768,0.174956937,-0.0571732551,0.0134682208,-0.00508001726,-0.00537147466
89785.261534,-0.00986406262,-0.0437007288,0.18347616,-0.0011330921,-0.00517029874,-0.00174797792
89785.271561,0.0234349073,0.0344264396,0.0275491012,-0.00217731763,0.00313610095,0.00452270126
89785.281589,-0.00214731423,0.0448316964,0.052243982,0.00606756285,-0.00429305341,-0.00105049554
89785.291617,0.0378417279,-0.0146795183,0.10088614,0.003945556,0.00177229615,0.00154262409
89785.301644,0.0153087379,0.0282257309,0.0203729259,-0.00519388029,-0.00151910447,-0.00354428031
89785.311672,0.0268406607,-0.0121585302,0.10313538,0.0075288387,-0.0033417719,0.00181186944
89785.321699,0.0261203836,0.0535624533,0.0564525396,-0.00316108926,0.00218322198,0.000991083682
89785.331727,0.0108875239,-0.01063649,0.0564502015,0.00754295383,-0.000709237298,0.00115460157
89785.341754,0.0206166716,0.0300451832,0.0703764355,-0.000174087763,-0.000390456873,-0.00225264672
89785.351782,0.0115914709,0.010861394,0.0578068768,-0.000316833204,-0.00280940603,-0.00124304276
89785.361810,0.00807725227,0.0105031916,0.0530260723,0.00441427203,-0.000201905146,-0.00144917145
89785.371837,0.00412135425,0.0169846078,0.0525818356,-0.000155711954,-0.000447182218,0.000519970432
89785.381865,0.0296773089,-0.00668457406,0.0674000501,0.000770801737,-0.00211006007,4.91458923e-06
89785.391892,0.025615722,0.0100420039,0.0564823502,-0.00015145092,-0.00117316004,0.0022230614
89785.401920,0.00191284788,0.0131431939,0.0461561865,0.0020334064,0.000344841857,-0.000356209464
89785.411947,0.017408925,0.00900988434,0.0674088179,-0.000541071407,-0.000768093159,-0.000789240003
89785.421975,0.00693783644,-0.0035190501,0.0741430946,0.00155084161,-0.000107096625,-0.000822529197
89785.432003,0.022395189,0.00285601049,0.0528916322,-0.00759551907,-0.00080830697,-0.00364468154
89785.442030,0.0170459735,-0.00549694432,0.139987732,-0.0627083033,-0.0239865966,-0.000390565023
89785.452058,0.0342869946,-0.0629628622,0.0998877767,0.0315875709,0.0109378314,-0.00412085466
89785.462085,0.0326485432,0.146616813,-0.0877665463,-0.0269660205,-0.00106689986,0.00317913666
89785.472113,0.00229048556,-0.0651057377,0.176996151,-0.0336637124,0.0272382889,-0.00283486675
89785.482141,0.0638670536,0.0565259793,-0.142713357,0.0169432703,0.00708401855,-0.0294100177
89785.492168,-0.0496590801,-0.126370756,0.220322082,0.0119671561,0.0039806366,-0.00939103588
89785.502196,0.0762196817,0.120816008,0.0694376934,-0.0216549877,0.0154580623,0.0280343667
89785.512223,-0.0537020718,0.174385932,0.0412742597,0.0269690081,-0.00159362564,0.0224372
89785.522251,0.0182025231,-0.0140070716,0.0802267984,0.0217651911,-0.00136965374,0.00752429711
89785.532278,-0.000326893867,-0.0659828767,0.0175151984,-0.018839227,0.0027031186,0.000584632158
89785.542306,0.0782985703,-0.0340713517,0.101616208,0.0139911585,-0.00335903512,0.00214790739
89785.552334,0.024313188,0.0887555482,0.060924132,-0.00723130628,0.00028230506,-0.00212593377
89785.562361,0.00266509102,-0.0601745284,0.0752823277,1.06276129e-05,-0.0011978799,-0.00318400748
89785.572389,0.0114141781,0.0394606983,0.0589829348,0.00484586274,0.000325714587,-0.00163777545
89785.582416,0.0425187433,0.028833314,0.0610731851,0.00726108346,0.0041031423,-0.00194963161
89785.592444,-0.00221223269,-0.00210740234,0.0673603026,0.000586935668,-0.00189296482,-0.00252407603
89785.602472,0.0537350243,0.0176776407,0.0791921947,-0.00680014025,-0.00445173029,-0.00303114206
89785.612499,0.0114415045,0.0245217436,0.0679752196,-0.00054943515,-0.00243385299,-0.00240316801
89785.622527,0.0118299559,0.0245663956,0.0679898326,-0.0039763907,-0.00740757259,-0.000788760372
89785.632554,0.0211527512,0.0141285334,0.0681488226,0.00765017141,0.00313295261,-0.00133763719
89785.642582,0.013063845,0.0263789523,0.00948795931,0.000647389446,-0.000681759324,0.000573446974
89785.652609,0.0303501301,0.00783325091,0.0754880794,0.00853860192,-8.94722762e-05,-0.00221488252
89785.662637,0.00370232512,0.0139879285,0.0539390955,0.00457901414,0.00442272145,0.000140682794
89785.672665,0.0113463005,0.0166269352,0.050494508,0.00706800446,0.00173239619,-0.000814858824
89785.682692,0.0257268907,0.0120926163,0.0811731393,0.00797880534,0.0023116339,-0.00071072951
89785.692720,0.0133308254,0.0308241225,0.0497457354,0.00498274947,0.000922528969,0.000252535567
89785.702747,0.0224606555,0.016567524,0.0458557422,0.00259282859,-0.000398132601,0.0017004963
89785.712775,0.0141100296,0.0113515612,0.0898521204,0.00214009127,0.000696426607,0.00119636022
89785.722803,0.0089044238,0.00657822761,0.0606704495,0.0017661833,0.000751554035,-5.61242923e-05
89785.732830,0.0160165574,0.0207921834,0.0609685557,0.00149853562,-0.000997343799,-0.000656667165
89785.742858,0.0307998831,0.00265870695,0.0774304457,0.00280588167,-0.000798671972,-0.000120040029
89785.752885,0.0109262485,0.0219585329,0.0509434208,0.00376488594,0.00121494406,0.000213920139
89785.762913,0.0190858818,0.0124077375,0.0654559303,0.00221519219,0.000209334423,-0.000749611296
89785.772940,0.000911233093,0.0152724245,0.0566249735,-0.00256731221,7.64427241e-05,-0.00013761688
89785.782968,0.0197204169,0.00518158562,0.0509364065,0.00274862349,-0.00199363241,-0.00178984273
89785.792996,0.0203504584,0.0151510996,0.0618622897,0.000362431165,6.40156213e-06,-0.0013906341
89785.803023,0.0260593741,0.0248724202,0.066197104,0.0039872597,0.000696959207,-1.35144219e-05
89785.813051,0.00586845364,0.0103403018,0.0585614946,-0.00281685032,-0.0029821978,-0.000786629505
89785.823078,0.010919563,0.0188007904,0.0895323869,0.00673644105,0.00179098581,-0.000942957588
89785.833106,0.0326288887,0.0239544651,0.0358031348,0.00655401452,0.00607760996,-0.00067957025
89785.843133,-0.010279402,0.0138915372,0.0515063154,0.00869865809,-0.000370169408,-0.00173151959
89785.853161,0.0553783345,0.0141670205,0.0687152243,0.00804059114,0.00452418812,-0.00138823781
89785.863189,-0.00149988317,0.0253789175,0.0452069229,0.00876603648,0.0040562707,0.000178500079
89785.873216,0.037865876,0.027028146,0.0667488927,0.00334943272,-0.00148017495,-0.00107504986
89785.883244,0.0202625609,0.00244908279,0.095929979,-0.00118539808,-0.000442873687,-0.000209522434
89785.893271,0.0129268843,0.00972774115,0.032926118,-0.00125330861,0.000853286765,-5.93205914e-05
89785.903299,0.0520473634,0.0147170373,0.0526812044,0.00353931636,-0.000429557869,0.000243747607
89785.913327,0.00351023661,0.0312356807,0.0661474196,-0.00191137579,0.000499618996,-0.000161052682
89785.923354,0.0129807699,0.00940239992,0.0526800353,0.00165459688,-0.000692944508,-0.00126546621
89785.933382,0.0173437874,0.0158240761,0.0656955842,-0.000205621065,0.000311067211,0.000210457481
89785.943409,0.00442768025,0.0218567622,0.0513286207,0.0011536564,-0.000490278006,0.000620851293
89785.953437,0.0424358143,0.00544278471,0.0549205077,0.00716973748,0.0020780745,0.000167847611
89785.963464,-0.00289188552,0.027972843,0.0350040934,0.00265594572,0.00542726601,0.000340952538
89785.973492,0.0281539717,0.0114571953,0.0667266808,0.00314942934,-0.00234836549,-0.0019935742
89785.983520,0.0166862733,-0.00582757364,0.0909708953,-0.000984329381,-0.000136876479,-0.00042870082
89785.993547,0.0382701825,0.00676696425,0.0444306779,-0.00287384214,8.4165833e-05,-0.00268919207
89786.003575,-0.00494571277,0.0220439736,0.0788502494,0.00525572337,-0.000177090289,0.00186880818
89786.013602,0.035950069,0.01289943,0.0680763419,-0.000353426498,0.00207674294,-0.000111784786
89786.023630,-0.00582574701,0.0113618269,0.0589466945,-0.00429357309,-0.00312254624,-0.000132823363
89786.033658,0.0281085982,0.00702597138,0.0674736998,0.00418726308,0.00141867588,-0.000492882915
89786.043685,0.0348757543,0.0344387968,0.0555026915,0.00332013797,0.00272495626,0.000817924738
89786.053713,-0.0159447708,0.0110171508,0.0601385346,-0.00727524841,-0.00176433427,-0.000286221504
89786.063740,0.0672530428,0.0046313496,0.0661228697,0.0134742381,0.00478597684,0.000765726902
89786.073768,-0.0218840612,0.0407466556,0.0507101965,-0.00529332366,-0.00210681674,-0.000697679818
89786.083796,0.046926769,-0.0297621467,0.0897667802,-0.00343710091,-0.00166206877,-0.00184763316
89786.093823,-0.00997994408,0.0426466988,0.042029462,0.00374997221,0.000361400889,-0.000838028267
89786.103851,0.0402988022,-0.01093266,0.0743505998,0.00166844542,0.00242108968,0.000543619506
89786.113878,-0.0144044095,0.0222355323,0.061776365,-0.00295347068,0.00147433591,0.000301538035
89786.123906,0.0367452379,0.00479300643,0.0728431179,0.00145406101,-0.000913187861,-0.000636161305
89786.133933,0.00351893137,0.0164152744,0.0719476304,-0.00494072121,-0.00254171109,-0.00133417547
89786.143961,0.025800577,0.0213831533,0.0674567487,-0.00153001107,0.000697225565,0.00106160436
89786.153989,0.0222408022,0.0193090504,0.0689490331,0.00601472426,0.00148445601,-0.000484360382
89786.164016,0.0103852004,0.00784416503,0.0535357754,-0.00287543982,-0.00135047897,-0.000136019662
89786.174044,0.0626001755,-0.013054721,0.0743383249,0.000803716946,-3.56764067e-05,0.00149889523
89786.184071,-0.0181472493,0.0236574001,0.0396224008,0.00126497645,-0.00150547503,2.48355791e-05
89786.194099,0.00590652063,-0.00329614634,0.0637163931,-0.000467409787,0.000616531761,0.00122751901
89786.204127,0.0182514037,0.0182192916,0.0616197131,-0.00156037114,0.000699622382,-8.19573179e-05
89786.214154,0.0154625402,0.0236362021,0.0607230565,0.00122715964,-0.00067163934,0.000404335558
89786.224182,0.0154545396,0.0239069088,0.0607253946,0.00189321616,-0.000821042573,0.000182760879
89786.234209,0.0165253837,0.00182268538,0.0767366182,-0.00214253808,0.000350481947,-0.000930440612
89786.244237,0.0284983282,0.0210920888,0.0822743786,0.000576282968,-0.00139974756,-0.00123137794
89786.254264,0.0235686532,0.0245346396,0.0502519314,-0.00158141006,-0.00115367142,0.00091220066
89786.264292,0.0130118957,0.00184207507,0.0525000026,0.00126444374,-0.000524632749,-0.000203397125
89786.274320,0.0735267528,-0.00672624865,0.0762947197,0.00416329456,0.00147060747,0.000742024742
89786.284347,-0.049374016,0.033247943,0.0472667781,-0.00190445152,-0.00243864651,0.000563060865
89786.294375,0.0657273676,-0.00900065072,0.0637298371,0.00272545405,0.000967003754,-0.000815924257
89786.304402,-0.00225282043,0.0201733117,0.0628320115,-0.00340327853,-0.00115447026,0.0016589514
89786.314430,0.0277675662,0.0118810193,0.0791454329,0.00255261501,-0.000351260998,-0.0012574764
89786.324458,0.0164754436,0.0196110656,0.0715180068,-0.00041760868,-0.000379224191,8.23596492e-05
89786.334485,0.0243613745,0.00746249963,0.0728664988,0.00132090284,-0.000167502905,-0.000633497722
89786.344513,-0.005247253,0.0258339222,0.0721218179,-0.00110523682,-0.000550731784,0.000118046068
89786.354540,0.0247814996,0.00533445636,0.0638882425,0.00243756641,0.000875391008,-0.000651074573
89786.364568,0.0272076673,0.0176349341,0.0592523994,0.001369106,-0.0010644556,-0.000568782911
89786.374596,0.00272325095,0.010429551,0.0513239445,0.000683075748,-0.000798139488,-0.000235355459
89786.384623,0.0174528738,0.0240198311,0.0594078823,0.000764568569,-0.0012386262,0.00135242147
89786.394651,0.0242300398,0.00823911916,0.0520762242,-0.000486850855,0.000991771114,0.000638428144
89786.404678,0.0159175174,0.0192036812,0.0607581278,-0.000294570636,-0.00150174648,0.000220844522
89786.414706,0.0217199932,0.00926672691,0.0668932696,0.000935277087,0.00166208879,-0.00149769336
89786.424733,0.0134953683,0.0222159235,0.044742228,0.00438007619,0.00106234499,0.00144829508
89786.434761,0.0030802477,0.0257752234,0.0731710347,-0.00483259698,-0.000978968106,0.000420581549
89786.444789,0.046760436,0.00221788611,0.0749585026,7.74729415e-05,0.00234732009,0.00205789274
89786.454816,0.0182907859,0.025065422,0.0664274056,0.00311880279,-0.00213984004,-0.00113417208
89786.464844,0.0427754215,-0.00941325011,0.0737596482,-0.00186590955,0.0006348592,0.000314480625
89786.474871,-0.0224694233,0.0410238834,0.0511614474,9.0448535e-05,-0.00399850821,-0.000522817485
89786.484899,0.0472620654,0.0187902142,0.0758563282,0.00237783743,0.000520076952,0.00038611982
89786.494927,0.00778546624,0.00298716258,0.0552069234,-0.00379244005,-0.000871158438,0.00134858582
89786.504955,0.0382739819,0.0168409981,0.0653857876,0.0043528378,-0.000256767147,-0.000237592496
89786.514983,-0.012649346,0.0217352912,0.0589519552,0.000870222109,-0.000436796807,0.00165990926
89786.525010,0.0207938182,0.00973275525,0.0549158315,-0.000691988156,-0.00205440097,-0.000672752969
89786.535038,0.0243637857,0.00958096223,0.067184946,2.91958568e-05,0.000788523583,-0.0018147165
89786.545065,0.02107859,0.0161392156,0.0655389324,0.000187920232,-0.00169434142,-0.000749718398
89786.555093,0.0193493916,0.00926279965,0.0546183099,-0.000168943312,0.00106389448,-0.000663432293
89786.565121,0.0179417898,0.0230946243,0.0629945086,-2.40673544e-05,-0.00183122791,0.000766951591
89786.575148,0.0150657594,0.00839132318,0.0450420878,-0.00242330926,-0.00140059483,0.00074351579
89786.585176,0.0171093941,0.00890623217,0.0718231272,0.00135039014,0.000324068242,-0.00310342014
89786.595203,0.0274798719,0.0250817064,0.0676350279,-0.000420878379,3.11206095e-05,-0.00129912887
89786.605231,0.0274571121,0.0189112468,0.0580552986,-0.000939395861,-0.00161497924,-8.02800059e-06
89786.615259,0.0299270093,0.00699136586,0.059854457,8.75190599e-05,-0.00027247984,0.000227661803
89786.625286,0.00895947846,0.0169166297,0.0680827716,-2.46000127e-05,0.000376266195,-0.000859174877
89786.635314,0.0192456024,0.00772671266,0.0689800127,0.000517353299,-0.00307945162,-0.00225360598
89786.645341,0.0101650549,0.0146573339,0.0728700059,-0.000425405742,-0.00027993659,0.00144339446
89786.655369,0.0135380019,0.0149589289,0.0517681812,-0.000273072917,0.000492646359,0.00115257734
89786.665397,0.0220637286,0.0151867555,0.0638882425,0.00258929236,0.000302762957,-0.00122083165
89786.675424,0.0212384567,0.0236886994,0.0625327363,-0.000453102606,-0.000203503878,-0.000845858827
89786.685452,0.0199287989,0.0146014573,0.0592354483,0.000105894869,-0.00173535408,-0.00049405545
89786.695479,0.0293758417,0.0152997509,0.0562374355,-0.00188881275,0.0009571017,-0.000476744957
89786.705507,0.0160218911,0.0141700892,0.0667097297,0.00159433566,-0.00196997868,-0.00122695696
89786.715534,0.0183002113,0.0300986213,0.0574269376,-1.31484121e-05,-0.000176339643,0.000996516086
89786.725562,0.00976283073,-0.00262326118,0.0804699595,0.000254765619,-0.000975287985,0.00176084321
89786.735590,0.0637894583,-0.00542013449,0.0668546911,0.00378664955,0.000779202499,0.00278402958
89786.745617,-0.042215413,0.0407536425,0.0222615162,-0.00295487605,-0.00226212735,-0.000898855738
89786.755645,0.0197276138,-0.00482855267,0.0885533127,-0.00165472087,0.000355227268,0.00119145913
89786.765672,0.0358754328,0.00789274428,0.0593663812,0.000553039601,0.000953639566,0.00209134165
89786.775700,-0.00835274474,0.0253746067,0.0526350271,-0.00269708224,-0.00304509699,0.000757896341
89786.785728,0.0268572099,0.00175422326,0.0638584319,0.00189873495,0.00120637356,0.000592514873
89786.795755,0.0146690517,0.00827093907,0.0526344426,-0.0108484849,-0.00511250878,0.00277790427
89786.805783,0.0120494073,-0.00227133333,0.123884738,-0.0047266772,-0.0109866429,0.000874010846
89786.815810,0.043699441,0.0036384113,0.0347089098,-0.0167511161,-0.0016203057,0.00451295404
89786.825838,-0.0160579123,0.0109129597,0.0502770658,-0.0142067317,-0.00972510315,-0.000797655433
89786.835866,0.037737062,-0.00956123461,0.0975794997,-0.00076096406,-0.0026032785,0.0018753591
89786.845893,0.00297521642,0.0411019718,0.00539455252,-0.0050851386,0.00341919414,0.00141516468
89786.855921,0.0119160998,0.00946403045,0.0583610036,0.000142912846,-0.00255480874,-0.000281535089
89786.865948,0.0258647283,0.0134292808,0.079761519,-0.0013228911,0.00245592883,0.00122741191
89786.875976,0.0196256512,0.0227166487,0.0378536376,0.00211604871,0.00177043106,0.00107268244
89786.886003,0.0136706884,0.0044112497,0.0661316376,-0.00113806769,-0.000752115157,0.00200798456
89786.896031,0.0296716098,0.0192184678,0.0634381607,0.000115748611,-0.00087675103,0.000304626301
89786.906059,0.00285067672,0.0152523224,0.0749596717,0.00217570364,0.00034910196,0.00207909103
89786.916086,0.0156153196,0.0241380141,0.0517681812,-0.00228961837,-0.00166691095,0.00123193953
89786.926114,0.0213535345,0.0134621876,0.07466215,-0.000388920453,-0.000381935737,0.000216742046
89786.936141,-0.000348813438,0.0187970915,0.0535626634,-0.000841657806,0.00156004133,0.00139785418
89786.946169,0.0127695017,0.0257614049,0.0469762707,-0.00197643088,-0.000984342769,0.0012287437
89786.956197,0.0163396518,0.000719080655,0.0760100575,0.000987401232,-0.00210579997,-0.00121657085
89786.966224,0.0180761568,0.0227930749,0.0664373425,-0.00108613598,-0.00227570953,-0.000582472421
89786.976252,0.0305542013,-0.00083681615,0.0665875646,2.52011232e-05,-0.000473282184,0.000746444799
89786.986279,0.0345658481,0.022996388,0.0484808301,-2.22946983e-06,0.00187402801,0.0019105128
89786.996307,0.0155575616,0.00739991013,0.0625461803,-5.5492681e-05,-0.00020856387,-0.00128368288
89787.006334,0.000216748023,0.0163757643,0.0689776746,0.00101163599,0.000551768579,-7.62054697e-05
89787.016362,0.0153914477,0.021122831,0.05865268,-0.00215140032,-0.000975021627,-0.000166486017
89787.026390,0.0163335509,0.0162748978,0.0659808309,0.00141723535,-9.77764139e-05,-0.00103014987
89787.036417,0.0320684052,0.0139751147,0.0550625465,-0.00270214211,-0.00372260483,-0.00173988193
89787.046445,0.0365370386,0.0211582037,0.0712269149,0.00170938426,-0.000844793161,0.000473737717
89787.056472,0.0325191447,0.00846971305,0.0659971975,-0.00993848313,-0.0091333501,-0.00195639674
89787.066500,-0.00087393329,0.00219085197,0.0948848538,0.00764210755,0.00197070092,0.00146523211
89787.076528,0.0335085941,0.0317870036,-0.00612345132,-0.00122248987,0.00114299031,-0.00125518627
89787.086555,0.0145907989,-0.0260314175,0.0809679722,0.00141776807,-0.001516975,0.00164206605
89787.096583,0.0215002495,0.0270197892,0.0675023414,-0.00265740091,6.65406696e-05,0.0002886476
89787.106610,0.0168445692,-0.0101365229,0.0571750086,0.00207556877,9.29059461e-05,0.00168973673
89787.116638,0.0104295875,0.0273948696,0.0642114831,0.000811898848,-0.00172976148,-0.00155399367
89787.126666,0.0185681415,0.00128578376,0.0601671762,-0.000148969644,0.000795181491,0.00103806145
89787.136693,0.0171528314,-0.00120591432,0.0697422293,0.00172136829,0.000587188581,-0.000498316251
89787.146721,0.0221008092,0.00848543121,0.0567249268,-0.00126030669,-0.000806443626,0.000485721976
89787.156748,0.0249101675,0.0109907651,0.0447521649,0.00191231712,0.00064125075,-0.00195373408
89787.166776,0.0128804148,0.0117887105,0.0582201338,0.000216948683,0.000130722765,-0.000628811307
89787.176803,0.0176764169,0.00124864835,0.0692927319,0.000999651733,0.000964824809,0.000778403133
89787.186831,0.0263057501,0.00959903674,0.0646533817,0.00195972109,-0.00151883927,0.000403963029
89787.196859,0.00766337423,0.0216417677,0.0565741201,-0.00138680683,-0.000713232905,0.000660425052
89787.206886,0.0200554575,0.0163118323,0.0621107115,-0.00127974781,-0.00129992724,-0.000540394336
89787.216914,0.0119530708,0.0101859424,0.0719862088,0.0012087099,0.000445774756,-0.00140725356
89787.226941,0.00786868755,0.0238821122,0.0604611907,-0.00163101871,-0.00158062461,0.00196191203
89787.236969,0.0322737551,0.005714149,0.0505816017,-0.00529739261,-0.00227730745,0.000570143573
89787.246997,0.0135309146,0.0107147794,0.0737765994,0.00915664807,0.00312784431,0.000552566722
89787.257024,0.0144288498,0.0374697163,0.0178010296,-0.00641618669,-0.000271148165,-0.000261028297
89787.267052,0.0249435949,-0.014810844,0.122404144,0.00612437259,-0.00108820596,0.000481193885
89787.277079,0.0245604042,0.0517162318,0.04473989,-0.00687904423,3.45826847e-05,-0.000769692473
89787.287107,0.0130959937,-0.0217139836,0.0751139854,0.00321140699,-0.00107275974,-0.000622952357
89787.297134,0.014133447,0.0306732794,0.0631441462,-0.00165445451,-4.85079363e-05,0.00125857117
89787.307162,0.0174596688,0.00207181044,0.0543079288,-0.00212636683,0.00201570825,-0.00087648537
89787.317190,0.0269455458,0.00972640771,0.0691191289,0.00106862758,-0.0015510635,0.00279974239
89787.327217,0.0125703259,0.0176895595,0.0766010091,-0.00242810277,0.00205938402,-0.00210446864
89787.337245,0.0175150888,-0.0185545879,0.0321457813,0.00280474219,0.0029542062,0.000679067336
89787.347272,0.0124125781,0.0226208784,0.0674579177,0.001243331,-0.000551579054,0.000430594198
89787.357300,0.0182052996,0.00359807929,0.0725379975,0.000553039601,0.0046943156,0.000524071045
89787.367328,0.0120989821,0.0173728399,0.0422977575,0.00270567276,0.00312651275,-0.000963037834
89787.377355,0.020521358,0.0206548208,0.0737193162,-0.00101263274,-0.000641593942,-0.00119553227
89787.387383,0.017931378,0.0062383464,0.0723702397,0.00116663193,0.00105723657,-0.000254104845
89787.397410,0.0249215292,0.0240866766,0.0629419016,-0.000706102932,0.00056934543,0.000438584015
89787.407438,0.0310367241,-7.64445034e-06,0.059948565,0.000335991965,0.000744581397,-1.86813995e-05
89787.417466,0.0178620391,0.0136704326,0.0639887803,-0.000395312032,0.000644979184,-0.00123361498
89787.427493,0.0155794446,0.0242994152,0.0681757106,-0.000376669894,-0.000952118542,0.00205778563
89787.437521,0.0228832283,0.0052183831,0.0553068767,0.000580470194,-0.00107089547,-0.000441324897
89787.447548,0.014904541,0.00408545182,0.0511123476,-0.000282660301,-0.000903649023,0.00164100109
89787.457576,0.0172106625,0.0178077425,0.0603922171,-0.000117544318,-0.000994462753,0.000461753458
89787.467604,0.0293741977,-0.00554556923,0.0584410831,-0.00162965211,-0.000254613115,0.00141849741
89787.477631,0.0208220214,0.0115167526,0.0540951628,0.00145988096,-0.00070495368,-0.00038552843
89787.487659,0.0149693864,-8.22349234e-05,0.0724953274,-0.000444012781,-0.000542234513,-0.000941595994
89787.497685,0.0353684332,0.0130358245,0.050494508,0.00026625226,-0.000860482221,-0.000782605261
89787.507713,0.0228512622,0.00791502004,0.0693482615,0.000279568019,-0.00265997997,-0.00081536267
89787.517740,0.0178344204,0.00339997204,0.0597685323,-0.000254662038,0.000297193881,-0.00116743241
89787.527768,0.0103094318,0.00699949437,0.0576718522,-0.000422441197,-0.000460209092,0.000798246823
89787.537796,0.0201175995,0.00330018319,0.0620078356,0.0016305896,0.00112490437,-0.00179647096
89787.547823,0.00767064423,0.000578676671,0.0488327122,-0.00112977671,-0.00131721445,-0.000250239857
89787.557851,0.0148508381,0.00185097076,0.0856447318,-0.00107171992,-0.00134491129,4.48385254e-05
89787.567878,0.0221587134,0.0175842907,0.0669376932,-0.00101605977,-0.000987515086,-0.00176264904
89787.577906,0.0060663143,-0.000479655009,0.0673819299,-0.000380895857,-0.00173133588,-0.00170272775
89787.587934,0.00563599659,0.017579715,0.0672270316,0.00122871867,-0.000229046796,-0.000970890746
89787.597961,0.0170329313,0.000377354546,0.0524140778,-0.000500738097,-0.000107872882,-0.000944525935
89787.607989,0.0039400794,0.0165506825,0.0624374592,0.000203934324,-0.000972867711,0.000877343118
89787.618016,0.0233529647,0.0212884608,0.0594441226,0.00210729544,-0.000116395066,-0.000117347576
89787.628044,0.0137475895,0.00221797744,0.0715647685,0.000645220047,0.000376556069,-0.000298975036
89787.638071,0.0160224756,0.00394186036,0.0711135176,0.00200716057,-0.00120536168,-0.000732271932
89787.648099,0.030759405,-0.0205825684,0.0597410597,0.000364256557,-0.000823197886,0.000514886342
89787.658127,0.00691580727,0.0193583786,0.0557043516,-0.0078278929,-0.00360486959,0.00140331732
89787.668154,0.0360657312,-0.00350903103,0.10150398,0.0078525329,-0.00113319,-0.00227850303
89787.678182,0.00279682764,0.0321138792,0.0289279883,-0.0108202212,-0.00307277008,0.00221531512
89787.688209,0.0219707896,-0.0130365643,0.0872954216,0.00859235972,-0.00261950004,-0.00141164381
89787.698237,0.00419485787,0.0313966069,0.041055064,-0.00355325337,0.00207298971,-0.000732005574
89787.708265,0.0184849933,-0.00455659473,0.0549701921,6.17214828e-05,-0.00311697857,-0.000211357139
89787.718292,0.0299224427,0.0184497941,0.0805652366,0.0010542816,7.98798865e-05,-0.0014728969
89787.728320,0.00798504394,0.00606998583,0.0434486811,7.9830992e-05,0.000786682882,-0.000407099724
89787.738347,0.0182759537,0.00824142072,0.0534755696,0.00149237155,0.000569368945,0.00104006194
89787.748375,0.0136575731,0.0150373736,0.0621487054,-0.00172712374,0.00197152328,-0.000893925317
89787.758403,0.0177128764,-0.0085656203,0.0584089343,0.00481626298,-0.00149964099,6.18826598e-05
89787.768430,0.0209177003,-0.00521125011,0.06395254,-2.88260053e-05,-0.000470329192,0.000433393754
89787.778458,0.0039314577,0.0185260925,0.0531786325,-0.00139476126,-0.000455415458,0.00014763698
89787.788485,0.0211863247,0.0082646372,0.0555734187,0.00339706452,-0.000250085723,-0.000951715745
89787.798513,0.0223869326,0.00491820371,0.076224577,-0.00304831797,-0.00204372476,0.000405697152
89787.808541,0.000962561422,0.00959441536,0.0620084201,0.000663063256,-0.000246889889,-0.000370347872
89787.818568,0.026692594,0.0112899855,0.0471942974,0.00240237382,0.000568569987,-0.00164547004
89787.828596,0.00571640489,0.00749498626,0.0623065263,-0.00240516476,-0.000618933467,-0.000657436438
89787.838623,0.0205426565,0.00428280102,0.0632002603,0.00108357635,-0.000499091228,0.000675208867
89787.848651,0.00866531782,0.0163698826,0.0709802466,0.00157146761,0.00162371434,0.00072341226
89787.858678,0.00831628519,-0.00920158012,0.0681342095,-0.000938295503,-0.00146954716,-0.000500043854
89787.868706,0.0312163915,0.0133664995,0.0636444969,-1.04501378e-05,-0.00136967865,0.00144273182
89787.878734,0.0168537754,-0.00227393628,0.0603466244,-8.26218165e-05,0.00175554084,0.000279462896
89787.888761,0.00936422334,0.0119009844,0.0624403818,0.00166494446,-0.000641570427,-0.00143401418
89787.898789,0.018560762,0.0142805365,0.0577986935,7.12671317e-06,-0.000656484161,0.000659230165
89787.908816,0.0190596879,0.00785638519,0.0572018966,-0.00191141455,-0.00201363093,-0.000741858967
89787.918844,0.000893624371,0.00806452065,0.0730623136,0.00493104476,0.00117870024,-0.00100657716
89787.928872,0.0408917997,0.0066249985,0.0483668483,-0.000950812362,0.000420764554,0.000947117805
89787.938899,-0.000409713312,-0.0101987288,0.0741056852,-0.00109781884,-0.00139950612,0.000808899291
89787.948927,0.0352836044,0.0185335086,0.0678168142,0.000846288749,1.7828308e-05,-0.00117781851
89787.958954,-0.00607376696,-0.0106867224,0.0649707771,0.000728310668,-0.00203466997,0.000493581407
89787.968982,0.0154711254,0.020614918,0.0711065034,-0.00268612802,-0.00102719618,0.00015349593
89787.979010,0.0295352335,0.0031841282,0.0720031599,0.00342848967,-0.00145063875,-0.000418551266
89787.989037,0.0103059246,0.0142185863,0.05554127,-0.00138836971,0.000227419077,0.00132981408
89787.999065,0.0166989867,0.00547268666,0.0627215369,0.00135628413,-0.000903359149,-0.000410827808
89788.009092,0.0102826168,0.0249308084,0.0649631783,0.000423645135,-0.000209339312,0.000186518766
89788.019120,0.0113694987,-0.00164919198,0.0567354482,8.35594255e-05,-0.00213320693,0.000170540065
89788.029147,0.0404291506,0.0127459017,0.0698994657,0.00303221145,-0.000922800275,-0.000634000637
89788.039175,0.00528689089,0.0202624422,0.0684042587,0.000320048071,0.00142450992,-0.000758636743
89788.049203,-0.00112681207,0.0017928017,0.0624129093,-0.00042643593,0.000659916434,0.00121875992
89788.059230,-0.00228149853,0.00386020996,0.0579196895,0.00149396947,-0.000366732129,-0.00217996631
89788.069258,0.012785503,0.0161584957,0.0829080003,0.00118371123,1.01050828e-05,-0.000993527472
89788.079285,0.00297258607,0.00926817908,0.0576157381,-7.3300791e-05,0.000975767325,-0.000465689227
89788.089313,0.0115143871,0.0189921482,0.0421978043,0.00076239917,-0.000692969421,0.000329797156
89788.099341,0.0124129434,0.00872598023,0.0615016397,0.00165775395,-0.000180310919,-0.000680074096
89788.109368,0.00202518568,0.00377437657,0.0665817194,0.00123377866,-0.000761945266,0.000945786014
89788.119396,0.0117744993,0.00788700866,0.0511690462,0.000354669173,-0.000384042738,0.000292512588
89788.129423,0.0186090946,0.0124704001,0.0487725065,-0.00140647916,0.000830891368,0.000977211632
89788.139451,0.00151533647,0.0202416003,0.0773573804,0.00196827855,-0.00115635945,0.00109066209
89788.149478,0.00982004081,0.0113797096,0.0447328757,-0.00222966215,-0.000159271876,-0.00145931449
89788.159506,0.0305653072,0.00642473582,0.0656838938,0.00383595354,-0.000366465887,0.000169208273
89788.169534,-0.0101435006,0.0094545411,0.065983169,-0.00504968315,-0.00153372926,0.000241646543
89788.179561,0.035428785,-0.00645365139,0.074208561,0.000786633929,-0.000640771352,0.000268011354
89788.189589,0.00804115804,0.0146050101,0.0727191993,0.00178052555,0.000152850524,-0.000671285205
89788.199616,-0.00261942525,-0.00165256211,0.0685270083,-0.000853873265,0.000471897249,0.00106829125
89788.209644,0.00894497501,0.0103908904,0.0486216998,-0.00094095862,-0.00166662107,0.000711428002
89788.219672,0.0146530139,0.00885534223,0.0540074845,0.00093470572,5.84404916e-06,-0.000956243835
89788.229699,0.0119249407,-0.00576306617,0.0575964489,-0.000740156276,-0.00104370783,-0.000252902508
89788.239727,0.00181552499,0.019289606,0.080189389,-0.000382493774,-0.00124743953,-0.000441454351
89788.249754,0.0190276853,0.0197270841,0.0613403116,0.00288733537,0.000163769466,-0.000956510194
89788.259782,0.0129605673,-0.0056781187,0.0402390714,-0.00263899006,-0.00153905572,0.000272006728
89788.269810,-0.0109278925,0.0192247149,0.068373279,-0.000977976597,-0.0018993814,-0.000208694488
89788.279837,0.0204729523,0.00324554866,0.0713712918,0.00463756453,0.00118429284,-0.00110804383
89788.289865,0.0112395157,0.00493042387,0.0593967763,-0.00315244752,-0.00120429625,0.000389452092
89788.299892,0.0131693512,0.0113347197,0.071069094,0.00273313839,-0.000933452742,0.000466949306
89788.309920,0.0342665729,0.00478058534,0.0555073677,0.00012856687,6.92273024e-05,-0.000960770994
89788.319948,0.013742,0.00860661903,0.0721224024,0.00347216544,-0.0024522536,-0.000231597573
89788.329975,0.0280029459,0.00698912823,0.0493739795,9.84731014e-05,0.000810651341,0.000829672441
89788.340003,0.00111767892,0.00650069626,0.0465285269,0.00204977114,-0.000915875891,0.00104964897
89788.350030,0.035443252,-0.00575364076,0.0695803167,0.000413791393,0.000127550564,0.00202889368
89788.360058,0.00526036821,0.00790529323,0.0460801987,0.00371504598,0.00304584252,0.000952444039
89788.370085,-0.00580269493,0.0170616186,0.0540074845,0.00102844893,-0.00155636622,-0.000711232424
89788.380113,0.0220642766,0.0104090562,0.0801964033,-0.000674109906,0.00134541409,-9.764079e-05
89788.390141,0.0204948353,0.0105231476,0.0531032292,0.000401807833,-0.000450697728,-0.000350424089
89788.400168,0.0263912729,0.0114148357,0.0547533345,0.00248546503,0.000187662081,-0.000599696301
89788.410196,0.0141431282,-0.0059508347,0.0641740737,-0.00261928211,-0.00140703889,-0.00172115304
89788.420223,0.00491425819,0.00889562858,0.052805123,0.00449854834,0.000392192858,0.000336671248
89788.430251,0.0193925366,0.0180130467,0.0571393528,0.000198075955,-0.000686653657,-0.000244163908
89788.440279,-0.000776318135,0.0192865189,0.0653717591,0.00362662971,-0.000534853432,0.000682349317
89788.450306,0.0162204459,0.0187994478,0.0755500388,-0.000778238871,-0.000532456674,0.000465568155
89788.460334,0.0132739076,0.0072190554,0.0697112496,0.000658802805,-0.00014629832,-0.000362674706
89788.470361,0.0126289973,0.00699385008,0.0554927546,0.000545884832,0.000100576668,0.000286870636
89788.480389,0.0193914041,0.0210078354,0.0623731618,0.00201914553,-0.000929001486,-0.000623132102
89788.490417,0.0180541641,0.00603095073,0.0605716653,-0.00206348044,-0.001341525,-0.000820738263
89788.500444,0.00993204982,-0.00115969143,0.0592237579,0.0018087558,0.000729349034,-0.000139501877
89788.510472,0.0236166571,0.0162853644,0.049493222,-3.33527569e-05,-0.000322599546,-0.00025881175
89788.520499,0.00814801595,0.00839251963,0.0599643471,0.000185825396,0.000465429737,0.000880755484
89788.530527,0.0156745025,0.0110964631,0.0620557664,6.97115902e-05,-0.000710355816,0.000902593136
89788.540554,0.00968183792,0.00878606725,0.0499339515,-6.53106836e-05,-0.000657891622,0.000215764157
89788.550582,0.00808017487,0.0126389524,0.0720832394,0.0026324715,-0.00110050896,0.00013107527
89788.560610,0.0148346176,0.0119117159,0.047238721,-0.000887428469,0.000404709717,-0.00190171599
89788.570637,0.0123999012,0.0109628724,0.0508276854,0.00155655434,-1.04771461e-05,0.000280478969
89788.580665,0.0137376161,0.00422704311,0.0515758735,-0.00214177743,-0.000379324891,8.57003033e-06
89788.590692,0.0127181734,0.0195821409,0.0741658909,0.00316723413,0.00110591995,-2.84481794e-05
89788.600720,0.0134066671,0.0118169868,0.0490244354,-0.0011896973,0.000724555342,-0.000311009586
89788.610748,0.00608216946,-0.00175545623,0.0499158313,-5.70548582e-05,0.00158741954,-0.000701162964
89788.620775,0.00631429771,0.0106352662,0.0561982726,2.12420709e-05,-5.44192735e-05,-0.000976000912
89788.630803,-0.00104797468,0.0119083366,0.0545499208,-0.000352932053,-7.97193497e-05,3.73320654e-05
89788.640830,0.0244060174,0.0189837731,0.0485585715,0.000178102229,-0.000311414362,-9.58256423e-05
89788.650858,0.0223544917,-0.00918616336,0.0768412476,7.26410653e-05,0.000445189769,-0.000851098448
89788.660886,0.0186268129,0.0172143706,0.0539420181,0.00132592465,0.00195733272,-0.000290769152
89788.670913,0.0240546467,-0.000432107807,0.0551338582,0.000524845789,-0.00154871889,0.000883418135
89788.680941,0.016820348,0.0218017349,0.0630634822,-0.000186218182,0.00179674395,0.000926028937
89788.690968,0.0163099508,0.0165924484,0.0497422283,-0.00107145286,-0.000890651951,0.000232808292
89788.700996,0.0250190347,-0.00160987375,0.0633610038,0.00245830067,0.00187823665,0.000265831128
89788.711023,0.021723135,0.016621848,0.056771104,-0.000500471215,0.00061323517,0.00113801658
89788.721051,0.0108824459,-0.000512452167,0.0724777917,-0.00596367987,-0.00210958067,0.00288505014
89788.731079,0.0149912329,0.032541457,0.078320088,0.00411771657,-0.00230345875,-0.000373593532
89788.741106,0.0164208638,-0.00257264523,0.036117023,-0.00331356819,0.000854251266,0.000191262923
89788.751134,-0.0113133116,0.00343187414,0.0564659836,0.00207134336,-0.00254314323,0.000363835134
89788.761161,0.00942917833,2.66505449e-05,0.0847439836,-0.000551603851,0.00187797041,0.000473291613
89788.771189,0.00443809205,0.00632596988,0.0458294388,0.00110967597,0.00109313685,0.00174175529
89788.781217,-0.00724734078,0.0196106637,0.057944824,-0.00193165394,-0.000425397651,0.00175586995
89788.791244,0.00352678589,0.00322031375,0.0615296967,0.00149210589,0.00103614526,0.000895136036
89788.801272,0.0125892498,0.0108180297,0.0561415739,0.000509399455,0.00116317789,0.000801925547
89788.811299,0.0124373837,0.00912696225,0.0549368743,-0.00150368398,0.000280340086,0.00104533881
89788.821327,0.0163085991,0.00549293486,0.0664595543,0.00307029509,0.000154905138,0.00048128143
89788.831355,0.0148338504,0.00734773241,0.0661614482,-0.00166800106,-0.000736454735,0.00212578289
89788.841382,0.0135637939,-0.011507729,0.0757353322,0.00126467203,-0.000830198172,0.00117503433
89788.851410,0.0170023901,0.010947684,0.073939681,0.00182659901,0.00161777961,-8.41077417e-05
89788.861437,0.00106134562,0.00542102953,0.0411649541,-0.000841888424,0.00192803785,0.00173403183
89788.871465,0.0214333948,0.000137362644,0.0710942284,-0.000715920934,-0.00162941264,0.0010626493
89788.881492,0.0205746225,0.0168502226,0.0493920997,0.00298480759,0.000692331058,2.96086073e-05
89788.891520,0.0130966879,0.0145617189,0.0598667319,1.80462957e-05,3.21334228e-05,-0.000312874094
89788.901548,0.0132309818,0.00797760042,0.08395371,-0.000500471215,0.000131203094,0.000225084834
89788.911575,0.00764594818,0.00635756147,0.0544733485,0.00252141757,0.00135892024,0.00080458913
89788.921603,0.00771258367,-0.00116161852,0.0706324561,-0.00079634838,0.000858512358,-0.00122127775
89788.931630,0.0240764566,-0.00753802169,0.0845440771,-0.000440283737,-0.00152901164,0.00100459252
89788.941658,0.00978880542,0.00741966514,0.0718278034,-0.0012472216,-0.000475465087,0.000244526193
89788.951686,0.0125416843,0.0120221905,0.0585065495,-0.000282091962,-0.000127922511,-4.41605225e-05
89788.961713,-0.00920567177,0.0152486052,0.0686807375,0.00181301683,-0.00277936575,0.000110036694
89788.971741,0.0383242508,-0.00141387625,0.065984338,0.000894492608,0.000167155755,-0.000846571289
89788.981768,0.00659494129,0.00377398385,0.0599982494,-0.000929506437,-0.00350321294,-0.00030142162
89788.991796,0.0161833653,0.000697617742,0.075262454,-0.000884232693,0.00158555526,0.0017018076
89789.001824,0.0181046522,0.0223761464,0.0661333911,0.00231502275,-0.000801169546,-0.000309411436
89789.011851,0.0190745567,0.0106791967,0.0752601159,0.00138557958,0.000473951921,0.00107836165
89789.021879,0.00843965584,0.0024604353,0.0535550646,-0.00187839067,0.00106996729,0.001249603
89789.031906,0.000724003426,0.0158937164,0.0531043982,0.00317788683,0.000667031039,-0.00122766942
89789.041934,0.00461136625,0.0027054139,0.0613338819,-0.00131060486,0.000937075587,-0.000443900935
89789.051962,0.0101397743,0.00549642373,0.0652197834,0.000715261791,0.000270752702,-0.000616740435
89789.061989,0.0191374659,0.00478562684,0.0601332739,0.000297411927,0.00171498489,-0.00052459538
89789.072017,0.00225599877,0.0091887663,0.0638701224,0.00103004754,0.000572222518,0.000115096569
89789.082044,0.0124267527,-0.0091533662,0.0782283181,2.25736294e-05,0.00120099483,0.000602987595
89789.092072,0.0103149847,0.00753182028,0.0614618922,-6.90391171e-05,0.00149340997,0.00114813633
89789.102099,0.00399195571,0.0128655734,0.0783709414,0.000586364884,-0.00141982199,0.000277016312
89789.112127,0.0201305686,-0.00366278769,0.0560714313,-0.00251009269,0.000168487313,-0.000976000912
89789.122155,0.00263111569,0.0100934144,0.060710197,-6.07832917e-05,-0.000710089458,0.0018554721
89789.132182,0.0116731944,0.00884357873,0.0514291585,-0.000768385187,0.0020601307,-0.00190917216
89789.142210,0.0144540938,-0.00341153461,0.0656423927,0.00237228069,5.10419486e-05,-0.000878528692
89789.152237,0.0235320476,0.0141220397,0.0590583382,-0.000204327691,0.00114293792,-0.00182075519
89789.162265,0.015769743,0.0111538193,0.0499257682,0.000525644748,-0.000835790765,-0.000982925296
89789.172293,0.00398198231,0.00547799302,0.0829974322,0.00032058137,-0.000261080568,-0.00037385989
89789.182320,0.00572805879,0.00993231468,0.0650385816,0.000829511438,0.00057195616,-3.59052792e-05
89789.192348,0.00734846307,-0.000432445734,0.0563596006,-0.000310854113,-0.00107148057,-6.41345978e-05
89789.202375,0.00195858672,-0.00207126245,0.0690787969,0.00133764255,0.00163642166,0.00120326411
89789.212403,0.0106660997,0.0092179924,0.060695584,0.000330701354,0.000105903018,-0.00223088264
89789.222430,-0.00827160579,0.00871099272,0.06458207,-0.00271302531,0.00097063143,-0.00122953393
89789.232458,0.0299212371,0.00956437642,0.0440729505,0.00742616178,0.00512516266,0.000569963828
89789.242486,-0.0153317169,0.0187257067,0.0434527728,-0.0031114344,0.00464765821,0.00112257013
89789.252513,0.0232146522,0.00736180661,0.0742588299,0.00835693628,0.00418453431,-0.000536845066
89789.262541,0.00880556654,0.000623602658,0.0742494776,-0.00392902456,0.00602211524,0.00723079639
89789.272568,0.0188732254,0.0472173951,0.018557401,0.0106267482,0.00790816639,0.00783826318
89789.282596,-0.0282907133,0.00492275202,0.0850035113,-0.0066680857,-0.00666172244,0.00262326142
89789.292624,0.0553112971,-0.0217082388,0.107000824,0.000873187324,0.0050703017,-0.00162820891
89789.302651,-0.0309932503,0.013183051,0.00537818591,-0.00373754348,0.00278557558,0.00176092982
89789.312679,0.0363591978,0.00666936736,0.0903752675,0.00304606045,-0.00239320728,-5.64111397e-05
89789.322706,-0.0058910308,-0.000680374346,0.0667342796,-0.00189463596,0.00193602731,-0.000638311729
89789.332734,-0.0100712756,0.00812728369,0.0360533102,-0.00347761903,-0.00131169753,9.3691051e-06
89789.342762,0.0247221341,0.00228996497,0.0775099407,0.00189051474,-0.000887722475,-0.00104018301
89789.352789,0.0116123676,0.0125352729,0.0465361257,-0.00391863845,-0.000123927835,0.000428816304
89789.362817,0.0252569717,0.0116397488,0.0456377156,0.000350941438,-0.000406222884,-0.000565608032
89789.372844,0.012742906,0.00869714686,0.066290043,0.00138131832,-4.35183756e-06,-0.000252952799
89789.382872,-0.0426009782,0.0190602633,0.0562619854,-0.00525607774,-0.000423267018,3.94629315e-05
89789.392900,0.053753181,0.00593525353,0.0740671067,0.00696988869,-0.000745083671,-0.00237265788
89789.402927,-0.0325141397,0.0165257673,0.0658370385,-0.00419434858,0.000415255548,-0.000876493752
89789.412955,0.0394901162,-0.00652347435,0.0634422523,0.0011713882,-0.00284871482,7.79824331e-05
89789.422982,-0.00367883464,0.0174976262,0.073926237,0.000602536951,-0.00101885665,-0.000958519056
89789.433010,0.00427402406,0.0147440806,0.0541740733,-0.000794291031,-0.00148384459,-0.000117492862
89789.443037,0.0090494583,0.00582090644,0.06719839,0.00395279378,-0.000978909433,-0.00026849471
89789.453065,-0.00135682144,0.0194095517,0.0574801291,-0.00759414025,-0.00497950986,-0.000412038527
89789.463093,0.0173023959,-0.00836712946,0.0773906982,0.00707455073,0.000123373,-0.00324670784
89789.473120,-0.0164024149,0.0326791484,0.0220236158,-0.00539623341,-0.00146120787,-0.00156651903
89789.483148,0.0465266638,-0.0195744964,0.0902729761,0.00314638857,-0.00418402348,-0.00240141992
89789.493175,-0.0275104862,0.0102516554,0.0546586419,-0.0020939135,0.00445393939,0.00194698945
89789.503204,0.0193934499,0.00495066294,0.0185889651,-0.00201455131,-0.00476858765,-0.00458414666
89789.513232,0.019077735,-0.0236496369,0.119911159,0.0101108206,-0.000458261231,-0.000498591922
89789.523259,-0.0121687594,0.0459184688,0.0105178869,-0.00922106486,0.00165788643,1.5931204e-05
89789.533287,0.0088774262,-0.0281060957,0.0585538958,0.00915581174,-0.00325804274,-0.00122749899
89789.543314,0.030600963,0.0308161219,0.0646942982,-0.00166913937,0.00237347791,-0.000622960739
89789.553342,0.00649809332,-0.00415380434,0.0578080458,0.00116206706,-0.00175122614,-0.000265032053
89789.563369,0.00416015189,0.0204602389,0.0822124193,0.00338367606,-0.00242820173,-0.000971835107
89789.573397,0.0175285694,0.0108575489,0.0449544095,0.000665387604,0.000907141366,-0.000115362927
89789.583425,0.00682422,-0.00171372685,0.0702542704,0.00369366817,-0.00476725586,0.000657220371
89789.593452,0.00417940458,0.00161061353,0.0716109457,-0.000581504428,-0.00162525848,-9.1927126e-05
89789.603480,0.0129027727,0.00566873895,0.0388420641,0.00165608351,-0.00100207888,-0.00126398355
89789.613507,0.00539619649,-0.000399812973,0.05560849,0.00278872577,-0.000758399488,0.000734984875
89789.623535,-0.00467226613,0.0194297359,0.0666822572,-0.000806541531,-0.000377567485,0.000870806165
89789.633563,0.0165472667,0.00581179155,0.0472287842,0.00200335961,-0.000517117092,0.0013712137
89789.643590,0.0151774762,0.00683106073,0.0535194087,0.0021722042,-0.00202393369,-0.00189994648
89789.653618,0.000163008542,0.00825624383,0.0583124882,-0.00146221183,0.000114318333,0.00128838979
89789.663645,0.00919083953,0.015717547,0.0737228233,0.00318500446,0.000603274675,-0.000343329273
89789.673673,0.0140939187,0.0167280666,0.0723760849,0.00123290729,0.00184004661,-0.00130925793
89789.683700,0.0151964366,0.0087530235,0.0479828174,0.000998549047,-0.000505931908,-0.000470894389
89789.693728,-0.00212495626,0.00817730597,0.0741723207,0.00288992608,0.000463192351,-0.00018274039
89789.703755,-0.00242295283,-0.005523193,0.037356794,-0.00342655927,-0.000637492165,-0.000425887294
89789.713783,0.0190971339,0.00999759847,0.0612988106,0.00812969543,0.00124403124,-5.11808321e-05
89789.723810,-0.0143191423,0.0112833092,0.0565098227,-0.00638479879,-0.00101379678,0.000173323788
89789.733838,0.0141674224,-0.00708504462,0.0880856952,0.0054393704,2.32381281e-05,0.00102526881
89789.743866,0.000328209041,0.0292243409,0.0512713376,-0.00376664521,-0.000451070722,-0.000421093777
89789.753894,0.00498147821,-0.00823847071,0.0741588767,0.00202280097,0.00140994613,0.000621267594
89789.763921,0.00950885597,0.0168811292,0.0651776978,-0.000610532879,0.000170510961,-8.81981105e-05
89789.773949,0.0175897615,0.00090036464,0.0539537085,0.00166593713,0.00140355458,-0.00118249096
89789.783976,0.00898775471,0.016661148,0.0521574727,-0.000493886415,-0.000898215454,0.00141675398
89789.794004,0.00341554406,6.9685969e-05,0.0783428844,0.00183052046,-0.000215913635,0.000814612955
89789.804031,0.00079717826,0.00886075819,0.061885086,-0.000282964087,-0.000288884272,0.000592505559
89789.814059,0.00477565344,0.00372176047,0.0754991854,-0.00014421338,0.000505536678,0.000745637342
89789.824087,0.00472070838,0.00368443327,0.0754968473,-0.000538627559,-0.00012163783,-0.00024346076
89789.834114,0.00680007194,0.0112485575,0.0576888034,0.000289082876,0.0012911692,-0.000561708584
89789.844142,0.0108591381,0.00738933393,0.0558867224,-0.00210270192,-6.03850931e-05,0.000905693509
89789.854169,0.0168226131,0.0113681196,0.0630693274,0.000881902524,-0.00107797887,-0.000252248719
89789.864196,8.63631092e-05,0.00202373351,0.0605254881,-0.000909073278,-0.000933901872,0.00161888776
89789.874225,-0.00197718182,0.0186117432,0.0460059644,-0.000942895422,0.0017580213,0.000377588905
89789.884251,0.00587327595,0.0141157835,0.0623135406,0.000651805429,9.22140898e-05,-0.00071723666
89789.894280,0.0190493857,0.0178566779,0.063058806,-0.00825673435,-0.00155628263,0.000839646906
89789.904307,0.00107716424,0.0124051254,0.0489934557,0.00435573002,0.000434696558,0.000731522217
89789.914335,-0.00761442053,0.0210643788,0.0471954664,0.00270883087,0.00216149027,0.000207678415
89789.924362,0.00814418002,0.00118960251,0.0675420889,-0.000656605582,-0.00176347652,6.52000308e-05
89789.934390,0.0224861918,0.0116262226,0.0528764347,0.00035885768,0.00119449641,0.00031473767
89789.944418,0.00157196202,-0.00125273087,0.0640986704,-0.00339912903,-0.00102950935,0.00171343004
89789.954445,0.0170404205,0.00975749697,0.0533265165,0.00310138101,0.000819257053,-0.00121498201
89789.964473,-0.00934690687,0.00012802856,0.0530231497,-0.000957542798,-0.00105401035,0.000404486433
89789.974500,0.0165628296,0.00096620555,0.0655944619,0.00100920163,0.000107926666,0.000815145671
89789.984528,-0.0157005502,0.00373851981,0.0642477235,-0.00351604167,-0.00249797641,0.000317933969
89789.994556,-0.00298551862,0.0161277353,0.0681377167,-0.000966597523,-0.000227098935,0.000417269766
89790.004583,0.024784751,0.00871787912,0.0621527971,0.000173501729,0.0007558738,-0.000346258283
89790.014611,-0.000654518386,0.00105807595,0.0787549723,-0.00314932456,-0.000227631535,0.00128838979
89790.024637,-0.00298924494,0.00632659094,0.076357848,-0.000145012338,0.00121899752,0.001355235
89790.034666,0.0214571775,0.00857520098,0.0648304918,0.000486423145,0.00211355323,-0.000334008597
89790.044692,-0.0101261476,-0.00729777406,0.077399466,-0.00214158418,-0.00166334165,0.00100716017
89790.054721,0.0235015794,0.0147327372,0.0627338118,0.0010400943,0.00112099317,-0.00179155637
89790.064749,0.0042240109,0.00361377005,0.0676724373,0.000884033041,-0.000433493871,0.00157254888
89790.074776,0.0175373737,0.0181035745,0.0609399141,0.00182146567,-0.00109342532,0.000612745993
89790.084804,0.0133239207,0.0111420375,0.0585439589,0.00032876397,-0.00069581531,-0.000254113227
89790.094831,-0.00241696148,0.0036367034,0.0359475117,-0.000277637766,0.000284760608,0.000783188269
89790.104859,0.00850610867,0.0105887054,0.0678209058,0.00208831439,-6.43797684e-05,-0.000512439758
89790.114886,0.016343232,-0.00177074513,0.0494108044,-0.00134210323,0.00137745566,-0.000861047767
89790.124914,0.0204075954,-0.0085335538,0.0633276861,0.00107977539,-0.00125614437,6.227009e-05
89790.134942,0.0049105684,0.0134066489,0.0550941107,-0.00104649237,-0.000261453679,-4.98490408e-05
89790.144969,0.0111168026,0.0132875982,0.0742448014,0.00216075266,0.000232829014,-0.000711910427
89790.154997,0.0232854524,0.00916376886,0.080081837,-0.00118923781,-0.00107718003,-0.00120779127
89790.165024,-0.0045288756,0.00139499802,0.0570329698,0.000641685445,0.000873851823,-0.000531614758
89790.175052,0.0140934438,0.00799252399,0.0495534277,-0.00144010759,-0.00187586201,-0.00199848413
89790.185080,0.014811054,0.00580161722,0.0778325967,0.00178045302,0.000351073337,-0.00177797396
89790.195107,0.000816211754,0.0028124636,0.0513455718,0.000937562669,-0.00122551806,-0.000111367553
89790.205135,0.0140508833,0.00458535503,0.0721416916,-0.000794024672,0.00106453418,3.94694507e-06
89790.215162,0.00215385357,0.0143527432,0.0657049366,0.00106486178,-0.000307260081,-0.00129301287
89790.225190,0.00959697265,-0.00500490475,0.0658528206,-0.00129576423,0.00130501762,-0.0012163138
89790.235217,0.00736139561,0.00591025609,0.0460936427,-0.0010970924,-0.000372241251,-0.00162031502
89790.245245,0.0171518815,0.0111209308,0.0683913992,8.65204493e-06,-0.000677972101,-5.59743494e-05
89790.255272,0.00745488258,0.00575709309,0.0665899027,-0.00075301202,0.000705806364,-0.000591003336
89790.265300,0.00210621503,0.00627650472,0.0637415275,-0.000504006457,-9.5538795e-05,-0.000938812271
89790.275327,0.0137289214,0.00584976721,0.0589502016,-0.000778844696,0.00219051866,-0.000431746244
89790.285355,0.0103743868,0.0110520303,0.0629816491,0.000852075173,-0.000246007345,0.000383714214
89790.295383,0.0154493154,0.00695254082,0.0578928015,-0.000763930962,-0.000788759673,0.000326189213
89790.305410,0.0072905954,0.00889219451,0.0565431405,-0.00150242553,0.000758270617,-0.00129381102
89790.315438,0.0058551923,-0.00467238486,0.0533966591,-8.92480602e-06,0.00109382893,-0.00156891625
89790.325466,-0.00548529954,0.0142664623,0.0667091452,0.000851009856,-1.67092076e-05,0.000498495996
89790.335493,0.00258143133,0.000321149113,0.0750876819,-0.000692025642,-0.000448407605,6.34416938e-06
89790.345521,0.00404058063,0.0173945495,0.0670060823,-0.000289888296,0.00021738268,2.4985522e-05
89790.355548,0.00756619747,0.000298234028,0.0532365001,0.000656332821,-0.000742420554,0.00101514906
89790.365576,0.0164435141,0.00552127504,0.0659516048,-0.000408132648,0.000969725603,-0.000403783284
89790.375604,0.00833203074,0.00229118881,0.0761193631,0.00061398861,0.00187227095,6.17373735e-05
89790.385631,0.0143964088,0.00934647762,0.0505289948,-6.03238004e-05,-0.000285422197,0.000466271304
89790.395659,-0.000648344374,0.0235338285,0.0708738636,0.003047748,0.0021805251,-0.00204126164
89790.405686,0.0223145615,-0.00210429707,0.0675824209,0.000799773668,0.000430295593,0.000135872513
89790.415713,-0.0166672764,0.00157893062,0.0785094731,-0.000131533714,-0.000905279652,-0.00233607367
89790.425741,0.0168144297,0.0198879463,0.0419955597,-0.000292388664,-0.000439226511,-0.00189878233
89790.435768,0.0040350642,0.000885751592,0.0780617293,0.0028578646,-0.00101260503,-0.000760547817
89790.445797,0.0104199429,0.023447301,0.0608528204,-0.00130545511,-0.000968396547,-5.98700717e-05
89790.455824,0.00417425348,-0.00755533815,0.0590583382,0.000437583833,6.83721155e-05,-0.000687843189
89790.465852,0.0150365334,0.0194409971,0.0617500615,0.0002908436,0.00107611227,-0.000605817884
89790.475879,-0.00144479198,0.00112025447,0.0466331564,2.95874779e-05,0.00143643795,-0.00171635579
89790.485907,0.0137970912,0.0118728269,0.0675835899,-0.00042607935,-0.000451743254,0.000930027105
89790.495934,0.00297850435,0.00667030808,0.0666881024,0.000781664217,-0.000169714564,0.000222691335
89790.505962,-0.00231152835,-0.000347425198,0.0457370843,-0.000838336709,-0.000435231603,-0.000606616959
89790.515990,0.0127114879,0.00502663252,0.0734223791,0.00270180334,-0.000231233542,-0.000716605224
89790.526017,-0.000931362566,0.012675485,0.0638444034,0.000635456701,0.000510723097,-0.000802625902
89790.536045,0.00468001104,0.00525930877,0.073125442,0.00111029833,-0.00210769707,-0.000292363577
89790.546072,0.00186243287,0.00771736944,0.0499333669,0.000902571657,1.08478125e-05,-0.00183753017
89790.556100,0.00829089502,-0.00441891242,0.053674307,9.53676063e-05,-0.000364924199,-0.000385308638
89790.566127,0.0144354987,0.0174574952,0.0717810416,0.00111908675,-0.00129569916,-0.000179179944
89790.576155,0.0153176884,-0.00566923214,0.0743289725,-0.000181867508,0.000894218334,-0.000175983645
89790.586183,-0.00344860608,3.74550667e-05,0.056370122,-0.00204980862,-0.00129250332,0.000824299641
89790.596210,0.0126886551,0.0149876801,0.0634007513,-0.000215156993,0.00148330955,0.000251719728
89790.606238,0.00370353069,0.0178957404,0.045742345,-0.00179600948,-0.00119875988,0.000438407063
89790.616265,0.0114600266,-0.00492509011,0.0524742836,0.000642114494,0.000832166639,0.000980094075
89790.626293,-0.00141786744,0.00925502734,0.0650426733,-0.000220483344,0.000352531322,-0.000659081154
89790.636320,-0.00241049521,-0.00421291412,0.0720779787,0.000616015575,0.000638288504,0.00108795241
89790.646348,0.00784607386,0.00440212568,0.0476835422,-0.00194887491,-0.000270914636,5.11836261e-05
89790.656376,0.00893825301,0.00610945932,0.0782119514,0.00125996792,0.000485423137,-0.000766406767
89790.666403,0.0170474348,0.00780033502,0.0749140789,-0.00169294514,-0.000702080433,-0.000236704014
89790.676431,-0.00429287489,-0.000308910686,0.0599526567,0.000821345311,-0.00064828468,0.000737480819
89790.686458,0.00678929481,0.0154283,0.0478308417,-0.00164420926,-0.000202737749,-0.0011067586
89790.696486,0.00974233593,0.0034103747,0.0605535452,7.2198105e-05,-0.00148212037,-9.53581184e-06
89790.706513,0.00673829528,0.00111970648,0.0708762017,-0.0031869784,0.000165577396,0.000906591304
89790.716541,0.0118687535,0.00556891357,0.0713227765,-0.00216459087,-0.00111753365,-0.00197974313
89790.726569,0.0215685655,0.0152372527,0.0713251145,-0.00325648696,-0.000520985457,0.000309776515
89790.736596,0.0212140895,0.00369567618,0.0497790532,-0.00188708957,-0.00112365873,-7.67223537e-06
89790.746624,0.00985606197,-0.00120476355,0.0541173746,0.00223734812,0.0012127324,-0.000116328709
89790.756651,-0.00109506523,0.0121772167,0.061298226,-0.00159307662,0.000256391242,0.000691673718
89790.766679,0.0136815385,0.00253055052,0.0716226362,0.000912691758,-0.000624049804,-0.000242829323
89790.776706,0.00270268309,0.00418344143,0.0777542708,-0.000379474048,0.00234723906,0.00022349041
89790.786734,0.00637764527,0.0141590564,0.0716162064,0.00137927756,0.000206323806,-0.000878525898
89790.796761,0.0158490553,0.00945487903,0.049466334,0.000201894029,3.00225802e-05,0.000168096274
89790.806789,0.010682101,0.0116990778,0.0479670353,0.000151293993,-0.000830444857,-0.00184951443
89790.816817,0.0134476933,0.0117997069,0.0771446145,0.00136915757,0.00107371528,-0.000436441042
89790.826844,-0.00395575189,0.00385450174,0.0648725774,-0.000110494788,-2.46800482e-06,-0.000482247211
89790.836872,0.00411404772,0.0060492901,0.06936229,0.00209433632,0.000695013849,0.000714843161
89790.846899,0.0078012118,0.0159672566,0.0650157853,-0.000717695511,0.000854004582,0.00145999622
89790.856927,0.00223225256,0.00298767404,0.0745914229,0.0025345569,-0.000904746936,0.000109240413
89790.866954,0.0075474197,-0.000562017797,0.061271338,-0.000894263037,0.00127371878,-0.000509943813
89790.876982,0.00288008548,-0.00147098587,0.0617138211,0.00197156472,0.000320040737,0.0010016663
89790.887010,0.00301229703,0.010162187,0.0893973623,0.00166370324,-4.88070073e-05,0.000623763539
89790.897037,-0.00530395163,-0.00337132133,0.0677028324,0.001546524,-0.000340689439,0.000751861371
89790.907065,0.00782448308,0.0189127811,0.0476572387,0.00291166035,-0.000571319251,1.91573054e-06
89790.917092,0.0138702295,0.0266837622,0.0365805489,-0.000530741585,0.000874777208,-3.88305634e-05
89790.927120,-0.0069925623,0.0161823881,0.0672539196,0.000912691758,-0.00161181635,-0.000208474696
89790.937147,0.0174494762,0.00229374609,0.061270169,-0.000416758296,0.000926975161,-0.00133499131
89790.947175,0.00304068287,-0.0067338109,0.0612684154,0.000101492857,-0.00101713242,-0.000288369134
89790.957203,-0.000986599885,0.0046804951,0.0600718991,-0.000936341006,0.000380760874,-0.000270792283
89790.967230,-0.00293594385,-0.00132499239,0.0742874715,0.00145224831,0.00022123754,0.000494333915
89790.977258,0.00944667745,0.00472268114,0.0588736293,-0.0018745726,-0.000896491227,-0.00123805273
89790.987285,-0.0121012836,0.00672270498,0.0618657968,0.00121709099,-0.000783040537,-2.71126628e-05
89790.997313,0.00188650787,0.0084755948,0.0648603024,-0.00238030707,-0.000167850289,2.16225162e-05
89791.007340,0.00964293068,-0.00603053974,0.0678507164,0.000719612523,0.00156453589,0.000120425597
89791.017368,0.00185582047,0.00588944163,0.0612678309,-0.00113767595,-0.00177267112,0.00108289253
89791.027395,0.00100219931,0.00303655468,0.0718932698,0.00103626237,0.000265712268,-0.00176376011
89791.037423,0.0118675479,0.0137304101,0.0546896216,0.00116968667,-0.0011311156,-0.00101008546
89791.047451,0.000290763108,0.0138898749,0.0603735124,-0.000260430737,0.00178291521,7.94129446e-05
89791.057478,0.00320296076,-0.00175267975,0.0531868158,0.00102774031,-0.00025626726,-0.000341632403
89791.067506,-0.00193937056,-0.00239652148,0.0778822811,0.000845047471,-0.000659736223,-0.000326186419
89791.077533,0.00433481433,0.00915876389,0.051845338,0.00100776646,0.000427099876,-0.000608481467
89791.087561,-0.00672514354,0.00702110341,0.0612736761,0.000242640381,-0.000679177349,0.000175020657
89791.097588,-0.00513250405,-0.0100864001,0.0463075777,-0.00143541745,3.12458724e-06,0.000196326524
89791.107616,0.0033151159,0.0138720105,0.0693546913,0.00150151667,-0.00064562133,-0.000210338272
89791.117644,0.00477411907,0.00263079603,0.0714478641,-0.00150838797,0.00167532347,-0.00192594714
89791.127671,0.0197652789,0.0139315404,0.0545388149,0.00198754366,0.000442812452,-0.000859350897
89791.137699,0.0066007865,-0.00070913465,0.0680067838,-0.00053926371,0.000174898538,-0.000329115428
89791.147726,0.0110473906,0.00015460604,0.0528916322,-0.000399980374,0.000570377917,0.000878095627
89791.157754,0.00170231041,-0.000424435957,0.0573784223,-0.000373881398,0.0013221883,-0.000788777135
89791.167781,-0.00439845415,0.00286967368,0.0674053108,0.000609624025,-0.00032231363,5.06509095e-05
89791.177809,0.00790595082,0.0120716283,0.0578308422,-0.00129906356,-0.000242418842,-0.00307297055
89791.187836,0.00947809551,-0.00888369154,0.0561801524,0.000556627114,0.000557861058,-0.000662277453
89791.197864,0.00227539759,0.0044913018,0.046902621,0.000857031613,-0.000581705594,-0.000632982701
89791.207892,0.0137546403,0.0136368774,0.0623135406,-0.000303041306,0.00185908156,-0.000711811706
89791.217919,0.00510992689,0.00122548667,0.0546779311,0.000747575716,-0.000133495545,0.000518568791
89791.227947,0.0177245669,0.0187846978,0.0546802692,-0.000807976641,0.000172768021,-0.000770933926
89791.237974,0.00624784488,0.0195883697,0.0606605127,-0.00025883285,0.00060366746,-0.00105322897
89791.248002,0.0149996354,0.014394774,0.0654524231,0.00131695974,-0.000223244075,-0.000185038894
89791.258029,0.00360405237,0.00481829614,0.0545259554,-0.00136617525,0.00203831238,0.000846403651
89791.268057,0.000541851792,0.00957329038,0.054674424,0.00102907186,7.36983493e-05,0.00168742985
89791.278084,0.0139100866,0.00351513198,0.0602121844,0.000342508953,-3.33606731e-05,-0.000766673125
89791.288112,0.0159389621,0.0172129458,0.0521282466,-0.000526746851,0.000279294443,-0.00127267372
89791.298140,0.00672817574,0.00639242272,0.0712783528,0.000462617551,0.000505130505,0.00120486505
89791.308167,-0.00143215169,-0.000289995923,0.0678325963,0.000641581893,-0.000359331607,0.000254383311
89791.318195,-0.0051981897,-0.000245042536,0.0763613551,0.00128393644,-0.00115029037,-0.000250818208
89791.328222,0.00343629459,0.00254599469,0.0507709868,-0.000699319702,0.00046731357,-0.000310206786
89791.338250,0.00927336671,-0.00113115032,0.053164604,-0.000387197215,-0.000707939384,-0.000326719135
89791.348277,0.00491992075,0.00829098635,0.067678867,-0.000349646638,0.000788490812,-7.47833401e-05
89791.358305,0.00419357923,-0.00429033587,0.0637888738,0.00137821236,-0.00130874861,0.000133475289
89791.368332,0.00193648449,0.00175988581,0.0601975713,-0.00175499683,0.000865456183,0.00107437046
89791.378360,-0.0048794426,0.018890962,0.0775514417,0.0017715611,-0.00090554601,0.000210174359
89791.388388,0.00392396851,-4.50995171e-05,0.0666278966,-0.00197923486,0.000507261022,0.000517237
89791.398415,0.00715688602,0.000760663908,0.0552519316,0.000920685299,0.00076896383,-0.000402902253
89791.408443,-0.00238196323,0.0124390642,0.0619891309,0.00167942001,-0.000242771115,-0.000194110908
89791.418470,0.00277454275,0.00807002794,0.0603396102,-2.44705589e-05,0.000694927934,7.14063644e-05
89791.428498,-0.00129537357,0.00337752274,0.0562976413,1.62757933e-05,-0.00111975009,0.000821352936
89791.438525,-0.00245795108,0.00145203457,0.0675222151,0.000401635247,0.00155539531,-0.000278798863
89791.448553,0.0157994805,0.0100157186,0.0441787489,-0.000276671897,-0.000895245466,0.000435194001
89791.458580,0.0113555068,0.0113972727,0.0627361499,0.000260753965,0.00029785058,0.000901513733
89791.468608,0.00637337096,0.000964342387,0.0655780953,0.000201898161,-0.00140044722,0.00131590152
89791.478635,0.00167008864,0.0079492785,0.0812929663,-0.00104339595,0.000793198589,0.000811232254
89791.488663,0.00377491543,0.0100783173,0.0567453851,-0.00213795528,0.000113826129,0.000477538444
89791.498691,-0.00366696154,0.00686448808,0.0654255351,0.00186637393,-0.000381788006,-0.000264151953
89791.508717,-0.0125145771,-0.00408046511,0.0399859734,-0.0024884271,0.000251245336,0.000201102346
89791.518745,-0.00119823334,-0.00965579016,0.0814385123,0.000193642336,-0.00201244163,-0.000866825692
89791.528772,-0.00902158391,0.0259814043,0.0664718293,-0.00230893004,0.00160226692,0.000976348296
89791.538800,0.00778524705,-0.00105310752,0.0699082335,0.00313110906,-0.00093865511,-1.38143077e-05
89791.548827,0.00705390057,0.00292291998,0.0675157854,-0.00177123793,0.000945265056,0.00129086804
89791.558855,0.00923299817,-0.000821070592,0.0561450811,-0.000365355168,-0.000949307811,-0.00159892812
89791.568882,0.0151916508,0.0138084437,0.0628770197,-0.000396780466,5.43554779e-06,-0.000136054121
89791.578910,0.00518423424,-0.00351557037,0.0669166505,0.000665021886,-0.000914686592,0.000348375179
89791.588937,0.00461001455,0.00398190011,0.0646732554,-0.00139200373,4.00566496e-05,0.000122272409
89791.598965,0.0101442313,0.00733237958,0.067666592,0.0022943439,-1.37392199e-05,0.00154919457
89791.608993,-0.00338105727,0.00312986812,0.0506055671,-0.00152196595,-1.18750613e-05,-0.000194643624
89791.619020,-0.00117591191,0.000881185015,0.0694581516,0.000559560664,0.000741266937,0.000283926725
89791.629048,-0.00261416455,0.00421564493,0.0645154345,-0.00197177404,-0.000290441676,0.000653573312
89791.639075,-0.0025724443,0.0105176312,0.059279872,0.0012772826,-0.000620140927,-0.000605302863
89791.649103,-0.000645969753,-0.00804172429,0.0621206483,-0.000683336577,-0.00205878052,0.000363821164
89791.659130,-4.15010542e-05,0.00134209879,0.0712497112,-3.67211178e-05,-0.00104171946,-0.0003650859
89791.669158,-0.00250672212,0.00610509368,0.0574801291,-0.000246844487,0.00140998664,0.000276735984
89791.679185,-0.00518880081,0.0074897073,0.0528425324,0.00120005081,0.000187063124,-0.000700910576
89791.689213,0.0030493411,0.0137269303,0.0655611442,-0.00221598591,-2.51908787e-05,0.000967826694
89791.699241,-0.0236477829,0.000201440856,0.0745364778,0.00109006232,-0.00061747781,0.00124639319
89791.709268,0.0283596869,-0.0114982762,0.0526888031,-0.00927282963,-0.000498967245,0.001174754
89791.719296,-0.041708121,0.00359818889,0.0597159253,0.00337612,0.00165366591,0.00206611399
89791.729323,0.038070824,0.0299825115,0.0450496866,-0.00743072154,-0.000673404196,-7.42357224e-06
89791.739351,-0.00573127366,-0.0254514804,0.0727279671,-0.00102794962,0.00248670275,0.00283363694
89791.749378,0.00844955618,0.010114375,0.0549210922,-0.0048549124,-0.00272723404,0.00050470233
89791.759406,0.0171882315,-0.0239360892,0.0815565857,-0.000673749193,-0.000846775947,-0.000785332173
89791.769433,-0.0102470706,0.0213797649,0.0523790065,-0.00409910688,-0.00339302444,0.000305231661
89791.779461,-0.00921531638,-0.00450564999,0.0728828654,0.00115424464,0.0008464618,-0.000312355347
89791.789488,0.00160696027,0.0167167963,0.0392097284,-3.77863762e-05,-0.00051973993,-0.00145884603
89791.799516,0.00646514089,0.0043161827,0.0642038844,0.00229407754,0.000934878772,0.000821352936
89791.809543,0.00825838099,0.00898649433,0.0574649315,0.000472209009,0.000366560183,0.00121416897
89791.819571,0.0164834808,0.00222277235,0.0495353075,6.04842789e-05,-0.00106009515,-0.000280397013
89791.829599,0.0092858974,-0.00284959901,0.0573158784,0.000609628099,0.000231537852,-0.00170438923
89791.839626,0.00803735865,0.00396978955,0.0495341385,0.00122215529,0.00126963807,-0.00138374511
89791.849654,0.0144451433,0.00930105844,0.0588081628,0.00248582521,0.000130071421,-0.000469215214
89791.859681,-0.0237091212,0.0130867693,0.0589601385,-0.00061515969,-0.00124172284,-0.00217843242
89791.869709,0.0197514696,0.00559223965,0.0573147094,-0.00121756666,0.00160546275,-0.00192676298
89791.879736,-0.00293400763,0.00760474852,0.0571621492,0.0011846046,-0.000690182205,0.000816558488
89791.889764,-0.000367554671,0.00934744573,0.0635971506,-0.00165885244,4.56492417e-05,-0.000421544537
89791.899791,0.00574588671,-0.00443111432,0.0523731613,-0.00423013465,-0.00219060713,-0.0021075923
89791.909819,0.0128186016,-0.00677509276,0.0649450581,0.00232363865,-0.00014423416,-0.00204127934
89791.919846,0.00931318727,0.012058166,0.0442903926,-0.00248762826,0.000815302832,-0.000790658407
89791.929874,-0.0108360495,0.00972065382,0.0628407793,0.000126264349,0.000305307447,-0.00105883926
89791.939901,0.000429952382,0.00563152135,0.0540133297,0.00115983724,0.00130559073,-0.00140691455
89791.949929,0.00202872935,-0.00712559583,0.0517664276,-0.000690527144,-0.00118100271,-0.000288386829
89791.959956,0.0119302379,0.00294864807,0.0620931758,-0.000376806769,3.75555828e-07,-0.00151796825
89791.969984,0.00126059452,0.00895664718,0.0549070637,-0.00109799078,0.000206770492,-0.000161353499
89791.980012,-0.00672792002,-0.00453696758,0.0623883594,0.00198834669,0.000139658805,-0.00142102875
89791.990039,0.00879482595,0.00784579073,0.0498170471,-0.00189693901,-0.00151336519,-0.000141113997
89792.000067,0.000693608287,-0.00851708672,0.069268182,-0.000172275992,-1.427182e-05,-0.00174779911
89792.010094,0.0147894998,7.49649324e-05,0.0581949993,-0.000168014958,-0.000633723103,0.0012663668
89792.020122,0.00849036311,0.000213268291,0.0486176082,-0.000448712119,-0.00142175239,0.000749980099
89792.030149,0.0102262835,-0.0016431367,0.0625309827,0.00110950344,0.000966836698,0.00185625674
89792.040177,0.00160400113,-0.00542254564,0.067464932,8.29459168e-07,0.000354309683,-3.59192491e-05
89792.050204,0.00380454338,-0.0128277256,0.0721013596,-0.00249828096,0.000335933873,-0.000752842054
89792.060232,-0.00504343753,0.00138328932,0.0545914219,-0.000957109558,-0.00174000021,-0.000690523535
89792.070259,-0.00888707081,0.027232336,0.0741927789,0.00732265832,0.00399591587,0.000520149246
89792.080287,0.01314608,-0.00352451173,0.0640121612,0.000657032419,-0.000476330286,-0.00169187225
89792.090314,-0.0188907246,-0.0102713191,0.0717979928,0.00237104297,-0.00138739776,0.000941460952
89792.100342,0.0333295477,0.0157168712,0.0641658904,-0.000401041529,0.000740734278,-0.0013776198
89792.110369,-0.0234902908,-0.0197369022,0.0716454325,0.00232497021,-0.000962623628,5.8889389e-05
89792.120397,0.0117390992,0.0152704334,0.0566816722,0.00188208651,0.00116684008,-0.000469481573
89792.130425,-0.00293528627,0.00163808606,0.0580295796,0.00121789426,-0.00125503866,0.000286855735
89792.140452,0.00974770623,0.00489986434,0.0574351209,0.000254895014,-0.00167981279,0.00328131439
89792.150480,-0.00923106194,0.0229504848,0.0487578934,-0.00332226278,-0.00151522947,-0.000367748551
89792.160507,5.81233954e-05,-0.0121920215,0.0728489631,0.00536310393,-0.000308018527,-0.00145964511
89792.170535,0.0110292339,0.0201899432,0.0457744937,-0.00139360165,-0.00330913463,0.000602707267
89792.180562,0.0375547642,0.00925443369,0.0492173276,-1.03557832e-05,0.000792665931,0.00249115471
89792.190590,0.0376500048,0.00921825726,0.0492202502,-0.00042447733,0.000265093753,-0.000489988364
89792.200617,-0.0367717972,-0.00585024213,0.0673252313,-0.000798917783,-0.000239308923,-0.000327268615
89792.210645,0.0109852487,0.0246569051,0.0424859736,0.000618150167,-0.000567144016,-0.000327801332
89792.220672,-0.00815663764,-0.00947561129,0.0739098703,0.0035609433,0.000249114819,-0.000777343288
89792.230700,0.0136068659,0.0061227846,0.0559510198,-0.000915830547,-0.000241705799,0.000747316517
89792.240727,0.015247838,0.0176084297,0.0641822571,0.0035532203,-0.00117620896,-0.000405299477
89792.250755,0.00579319645,-0.00207680627,0.0715197603,0.000471676409,9.09230439e-05,0.00113427406
89792.260782,0.00877140854,-0.0121746411,0.060295771,-0.00113207917,-0.00103346352,0.00109912036
89792.270810,0.010000037,0.015811856,0.0579027384,0.000792587234,-0.000527462922,0.00200779084
89792.280837,0.00086680943,0.0100885373,0.0664314973,-0.000291851931,0.00126377912,0.000458629802
89792.290865,0.00269639948,-0.00741952814,0.0590986702,-0.00155445654,-0.000921078259,0.00129406387
89792.300892,0.00377451357,-0.00776624095,0.0667307725,0.00052041217,0.000958580873,0.000101766549
89792.310920,-0.01018818,0.0168468981,0.064782561,-0.00192064117,-0.000867548632,0.000567553565
89792.320947,-0.00475428186,-0.00398679548,0.0746603964,0.000492448977,4.69808001e-05,-0.000382662751
89792.330975,0.00113609136,0.00220320913,0.0459270539,0.00110178022,0.000754316396,0.000596848316
89792.341003,0.00251786457,0.00748985343,0.065675126,0.00105197914,0.00158016267,-0.000205029733
89792.351030,0.0151824446,0.00855659675,0.0548936197,-0.00043566263,0.00124780019,0.000627740286
89792.361058,0.00469707178,-0.00132964117,0.0658165803,0.0016208305,0.000794263848,-0.000751776621
89792.371085,0.00120806062,0.0172566936,0.0513005636,-0.00282105594,-0.00173067907,-0.000687061809
89792.381113,0.00609970511,0.0013367011,0.0688110859,0.00125038461,-0.000387380831,0.000611228868
89792.391140,0.017570728,0.00928268253,0.0495119267,-0.00133767526,-0.00100683188,-0.00039304886
89792.401168,0.00165218765,-0.00140859729,0.0430745871,0.000958569697,0.000892869954,0.000417642295
89792.411195,0.0141762267,0.00162894378,0.0629810646,-0.00091949146,0.000472889515,-0.000521655194
89792.421223,0.0179088739,-0.00884982581,0.0483083961,0.000340183731,0.00138582103,-0.000703549013
89792.431250,0.00755662592,0.000193476745,0.0429196888,-0.000709368032,0.00133894943,-0.000436433591
89792.441278,-0.00325754049,0.00722536641,0.0773345841,0.00092101912,-0.000340972445,1.8434599e-05
89792.451305,0.0114373398,0.00392892781,0.0542915622,0.00091995392,0.000582878012,0.0001806207
89792.461333,0.00458491664,0.00182140674,0.0701560708,0.00110530993,-0.000251490274,0.000535620376
89792.471360,-0.000994563995,0.000302106485,0.0448655622,-0.000374076073,-0.00103419332,-2.15135515e-05
89792.481388,0.00235598854,0.00231595793,0.0658177493,0.0012160975,0.000286201946,0.000798207708
89792.491415,0.00717135293,-0.00209183945,0.0631190117,-0.00323910476,0.00160047191,-0.000435634516
89792.501443,0.00581018412,-0.0190748124,0.0598252309,0.000942857121,-0.00161928975,-0.0001352299
89792.511470,0.0104926794,0.00883531322,0.0610235008,-0.00181298202,-0.00111142511,-0.00136108324
89792.521498,0.0101234442,0.000662528162,0.0548842674,-0.000978613622,0.000700057135,-5.77326864e-05
89792.531525,-0.00843340876,0.00917496611,0.0625157851,-0.000879544066,-4.03017038e-05,-0.000178906135
89792.541553,-0.00475577969,0.0130257689,0.0509925206,0.00238522515,-0.0013124937,-0.00218666345
89792.551580,0.0248278595,-0.00259059188,0.0605710808,0.00198308774,0.000975161674,-0.00340026617
89792.561608,-0.0158946115,0.0103994573,0.0351332727,-0.00228915503,-0.00137241476,0.000543076545
89792.571635,0.0293314911,0.011436938,0.0569815319,-0.000356499193,-0.00057320029,0.0017854413
89792.581663,0.00254464298,0.00165733875,0.0478548071,0.00154020404,0.000521359034,-0.000125642866
89792.591690,0.00404817941,-0.00033932409,0.0589274053,-0.00118394336,-0.00197375659,0.00103682652
89792.601718,0.00503032232,0.0115605643,0.0547357988,-0.000570883683,0.00163642457,-0.00106600486
89792.611745,-0.0105328653,0.00379480744,0.0548860209,0.00110983732,-0.000103152241,-0.00165110175
89792.621773,0.0388718747,0.00205726132,0.0695540132,0.00088400126,0.000393260969,-0.00214272086
89792.631801,-0.0244016335,0.00681452059,0.0472545031,-0.00776141882,-0.00245179376,0.000115373172
89792.641828,0.0420517469,0.00144333068,0.0414180521,0.00143953669,-0.000323928311,0.000496204942
89792.651856,-0.0100606812,-0.00242889851,0.0646101271,0.000579069252,0.000124281738,-0.000980251469
89792.661883,0.0169665516,-0.00775329014,0.0608721096,0.000913828611,-0.000474396977,0.000350263901
89792.671911,-0.0275081847,0.00534291366,0.0682037677,-0.00026834858,0.000161565957,-2.5507994e-05
89792.681938,0.0215016742,0.00581502469,0.0511444963,-0.0020297633,-0.000977734453,0.00046424754
89792.691966,-0.0136892835,-0.00438837115,0.0768862558,-0.00135225512,-0.00267683109,0.00110979751
89792.701993,0.0231236494,0.0151516385,0.0629693741,-0.00235786475,0.00125426101,-0.000198613852
89792.712021,-0.00485328525,0.001910455,0.0683557433,0.00190585619,-0.000809955294,0.000719111413
89792.722048,-0.00170903241,0.0119757849,0.0623708237,-0.00196318422,-0.000153752277,0.000161978416
89792.732076,0.00594634118,0.0112183176,0.0553384409,0.0011255499,0.000112563837,-0.000330706127
89792.742103,0.00793356948,6.63432345e-05,0.0583282703,-0.000953047303,0.000281141838,-0.000839636661
89792.752131,-1.7316461e-05,-0.000880235167,0.0598234773,0.000360423815,0.000557045336,-0.000773057342
89792.762158,-0.00229896112,0.0244905265,0.0598228928,-0.000120010518,-0.00112820289,0.000711388886
89792.772186,0.00137713357,-0.000608788681,0.0703010322,0.00229068287,0.000267559779,-0.000300878659
89792.782213,0.00972531173,0.017637811,0.0489016858,-0.00167875865,-0.000899437466,-0.000593028031
89792.792241,0.00242667916,-0.00217348071,0.0650631315,0.00250986102,-0.000193167129,-0.000495289452
89792.802268,0.0149244878,0.00523643935,0.0617693507,-0.00196291786,0.00103987649,-0.000341358595
89792.812296,0.00345258814,0.00586006027,0.0562274987,-0.000102966267,-0.000434982241,0.000938289799
89792.822323,0.00385948844,0.0150548545,0.0610147329,0.000162284588,0.000893402612,6.2642619e-05
89792.832351,0.000278122822,0.00480124454,0.0689449414,0.000359624857,-9.59617319e-05,8.60784203e-05
89792.842378,-0.00143514737,0.0139759092,0.064459905,0.000809166348,-0.00173274043,-0.000154937617
89792.852406,0.000700914811,0.0105506932,0.0683522362,-0.000215884298,0.00025451032,0.000143069774
89792.862433,0.0120349769,0.00651447819,0.0608686025,0.000969488639,-7.19933305e-05,0.000151592307
89792.872461,-0.00292684723,-0.00258903925,0.0596720862,-0.000612961594,-0.00105549872,0.000453328714
89792.882488,0.00293941445,0.00688785982,0.0493429998,0.00028771942,4.73163091e-05,0.000804333016
89792.892516,0.00156673786,0.00783982678,0.0497901591,0.00147548923,0.000114960596,0.00160514563
89792.902543,0.0046670785,0.00437044277,0.0625070173,-0.00126010971,-0.000817145803,0.000250661746
89792.912571,0.00367108973,-0.0211446958,0.0812146404,0.00206324901,-0.000967880595,0.000984628685
89792.922598,-0.00146134126,0.00512394628,0.0599637626,-0.00228489423,0.000342660933,0.000274896622
89792.932626,0.0022609672,0.00497162353,0.0720832394,0.00104272563,-0.00125923043,-0.00110568572
89792.942653,0.0099806382,0.00591755348,0.0571159719,-0.00452194922,6.96869101e-05,-0.00148625206
89792.952681,-0.000499802748,-0.00579132415,0.0590606763,0.00303743337,0.000110433204,-0.000298482366
89792.962708,-0.00279748523,0.0122053559,0.0611544337,-0.00254268805,0.00231899275,-0.000541095622
89792.972736,-0.00426416025,-0.00704593646,0.0539659835,0.00231545023,0.00169341615,-0.00103697646
89792.982763,0.00318166224,-0.00120627052,0.0503752655,0.000801975839,-0.000192101812,0.000723639503
89792.992791,0.00526358308,0.00379545589,0.0687806908,0.00178335072,-0.000118332333,0.000909527764
89793.002818,0.0114179045,0.0088912812,0.0554652821,-2.52019381e-05,-0.00209759362,-0.000149611384
89793.012846,-0.00750511493,0.0101775855,0.0641413405,0.000545513467,0.00215733889,-0.000178373419
89793.022873,0.000338438174,-0.00674181154,0.0572562572,0.00202702987,-0.00151223072,0.000551599078
89793.032901,0.00481127274,-0.00457699819,0.0744680887,0.00323610497,0.000557578052,0.00147864548
89793.042928,0.0120653721,0.00848829902,0.0457370843,0.001902394,0.000430811546,0.00044800248
89793.052956,-0.00195858672,0.0116070886,0.066543141,0.00445530005,-0.000124191283,0.00298892381
89793.062983,0.00463149573,0.0164229097,0.0557668954,0.00383212068,0.00127077254,0.00152498437
89793.073011,0.026377975,-0.00360585161,0.0598088643,0.00518314168,0.00161139085,0.004830766
89793.083038,-0.0144551898,0.00546155334,0.0457440986,0.00541217439,0.00136638002,0.00395059166
89793.093066,-0.00539400453,0.019991772,0.074033789,0.00576690678,0.000588736963,0.00351862656
89793.103093,-0.00407550581,-0.023071563,0.0725415046,0.00277564442,0.00101990276,0.00792216323
89793.113121,-0.0252468521,0.0258177382,0.0486105939,0.00961357635,-0.0034640613,0.0157209635
89793.123148,0.0809315126,0.0494102199,0.0761585261,0.00078892638,-0.000380653539,0.0408683978
89793.133176,-0.0312996128,0.118467536,0.0387719215,0.03216682,-0.00726945186,0.0961199328
89793.143203,-0.0386991485,0.335464821,0.065983169,0.0676092356,-0.0275885724,0.0453417078
89793.153231,0.0556088918,-0.305374237,0.168038937,-0.0180934183,-0.0307494793,-0.0269561894
89793.163258,0.0529442757,-0.501895264,0.0535784455,-0.0424901061,0.0041632317,-0.0295836665
89793.173286,-0.171328553,0.128259675,-0.0791886875,0.0503956266,0.0080783451,0.00526033435
89793.183313,0.0684155838,0.327166364,-0.0107598789,0.0175700374,-0.00658209017,0.00522012031
89793.193341,0.0248661092,-0.162438122,0.151894443,0.00584227405,0.00838700496,0.00118729565
89793.203368,-0.0100767555,0.0180890163,-0.0148053549,0.00629154965,-0.00483585568,0.00059261173
89793.213396,0.00657079323,0.0123548474,0.127068045,0.00549100339,0.00230541057,0.00038888026
89793.223423,-0.00751165427,-0.0196489043,0.0175233817,0.00640979409,0.00182897109,-0.000158399343
89793.233451,0.00872910377,0.0182834703,0.0497007272,0.00810169987,-0.000422465266,0.00302807242
89793.243478,0.00735854607,0.00987498587,0.0911491744,0.000175600406,0.0031144789,0.000678631477
89793.253505,0.0096181981,-0.00521235522,0.0499994179,-0.000422811921,-0.00259374036,-0.000413796864
89793.263533,0.0147960026,-0.00986395302,0.0814338361,-0.00669748615,-0.0031950823,-0.000989039429
89793.273561,-0.00723641753,0.00856924617,0.0615320348,-0.00428359676,-0.000603293884,-0.00137626287
89793.283588,-0.00738996412,0.00290322889,0.0664712448,-0.0036795917,-0.00173487107,-0.000484903343
89793.293615,0.00581204728,0.0105749234,0.0392360318,-0.00179513881,-0.000363343046,-0.0011917064
89793.303643,0.000446172865,0.0108516854,0.0530061985,-0.00586231798,-0.00142248219,-0.00196775142
89793.313670,-0.00351447439,7.51293291e-05,0.0598883593,-0.00243030256,-6.29385468e-05,9.48673114e-05
89793.323698,-0.00726524176,0.00981627795,0.0461199461,0.00028665422,-0.000164671335,0.0011505438
89793.333725,-0.027383718,0.0100176366,0.057945993,0.00406301674,-0.00238867709,0.0133366361
89793.343753,0.127143156,0.0158364059,0.0751636698,-0.0225755181,-0.0067091235,0.00480386848
89793.353780,-0.148346833,-0.0129084353,0.0883335325,0.00937682204,0.00108461757,0.00156919286
89793.363808,0.0787791203,0.0155869338,0.0405973833,0.00381081528,0.00226413156,0.00430532452
89793.373835,-0.0589904971,0.0158911957,0.0537689996,-0.00759204105,-0.00453625014,0.00754932128
89793.383863,0.0331552506,0.0216656418,0.0893850874,-0.00307425507,-0.001462696,0.00384592917
89793.393890,-0.0337849268,-0.0297125994,0.0780219818,-0.020036459,-0.011225312,0.00776556972
89793.403918,0.0616692879,0.00999773547,0.0888081643,0.00178835331,0.0014983532,0.0043800897
89793.413945,0.0124854972,-0.0596005462,0.0907435162,-0.00902621169,0.000151326298,-0.00415374339
89793.423973,0.0125258292,-0.0601175284,0.0907394246,-0.00481788395,4.6664034e-05,-0.00281071104
89793.434000,-0.0071167732,0.033322159,0.0594628273,0.00468587223,0.00216361089,0.00143703073
89793.444028,0.0100492465,0.0244156072,0.0382119495,-0.00712604588,0.000278625404,-0.00330579281
89793.454055,-0.0212083539,-0.0256908696,0.0748597184,-0.00201623864,0.00383394537,-0.00579638127
89793.464083,0.0231686211,0.0248330746,0.039975452,-0.00489831157,0.00282860221,6.89644367e-05
89793.474110,-0.0053495078,0.0344611547,0.0589642301,0.0100428211,0.00729072839,0.00337581197
89793.484138,-0.000287365574,0.0325326709,0.0393371541,0.00263150991,0.00900340732,-0.000753419474
89793.494165,-0.00662270608,-0.0332688945,0.0669838705,0.00412234757,0.0128311692,-0.00344720669
89793.504194,-0.0127524045,-0.00572815926,0.0482411761,0.00205893046,0.00869155116,0.00130600296
89793.514221,0.0269153699,0.0343106312,0.0756079064,0.00784571283,0.00468748854,-1.78543851e-05
89793.524249,-0.00545439295,0.000373920479,0.0529985997,-0.00030861987,0.00587845407,-0.00226263236
89793.534276,-0.0162564671,-0.0176789559,0.0613537556,0.000182999647,0.00435459334,-0.000363798812
89793.544303,-0.00894249079,0.0117043567,0.0797504131,0.00783026684,0.00307387928,0.00265809009
89793.554331,0.0136405489,0.0148564549,0.06104279,-0.00218188739,0.000671175367,-0.000395757146
89793.564358,0.000701024409,-0.0271439636,0.0680722502,0.00208849157,0.00102723995,-0.00024901703
89793.574386,-0.00148727942,0.0246516536,0.0565478167,0.00185786164,6.63715182e-05,-5.540438e-05
89793.584413,-0.00343424876,-0.0025350075,0.065528411,-0.000411684188,-0.000407937565,-0.000991505571
89793.594441,-0.0078012118,-0.0087666867,0.0631318712,-0.00213581463,0.00120886764,-0.00148152746
89793.604468,0.00905329422,0.00222564929,0.0584919365,0.00149567192,-0.000220450922,0.00129748089
89793.614496,-0.00177292796,-0.00271529597,0.0727110159,-0.00109931245,-0.00192700454,0.000872174278
89793.624523,0.00590436521,-0.00945349992,0.0400917719,-0.00103885867,-0.000555210398,-0.000203476287
89793.634551,0.000789981334,0.00216075823,0.0562508795,-0.000809826772,0.000710323802,-0.00164957345
89793.644578,0.00535330719,0.0110127486,0.064328972,0.000594458019,0.00114282116,-0.000426116399
89793.654606,-0.0129012018,-0.00567693139,0.0583422989,-0.000323000946,-0.00149024616,0.000417572446
89793.664633,-0.00142809657,0.00594616765,0.069869655,-0.000883862667,-2.49749282e-05,-0.000309736468
89793.674661,0.00623447394,0.00956282378,0.061190674,-0.000153357571,-0.000518192421,0.000143533573
89793.684688,-0.00056220046,0.00424421344,0.0752548552,0.000348115631,0.00044800248,0.000337678008
89793.694716,-0.00167761436,-0.00560901725,0.0715168377,-0.00091182586,-0.000461200834,0.00074780453
89793.704743,0.00150718969,0.00812538399,0.0420399834,-0.00139146112,-0.000864669564,-0.000407741405
89793.714770,0.0130472958,0.00458875256,0.0556581743,0.00200140616,0.000531359459,-0.000107070431
89793.724798,0.0101390802,0.00892619724,0.0550567013,-0.000650303438,0.000786756573,-0.000354478136
89793.734825,0.00160769092,-0.00355719016,0.0514648143,0.00117289671,-0.00151261676,-0.00056060683
89793.744853,-0.00271623669,0.0145837846,0.0468272176,-0.00151263503,0.00133909611,-0.000608277507
89793.754880,0.00189739459,-0.00244333803,0.0656792176,0.000454642053,-0.000183965662,0.00105779618
89793.764908,0.0217042476,0.00995723906,0.0673269848,-0.00106309343,0.000650669041,-0.00132253673
89793.774935,-0.00688186847,0.0045357346,0.0601443798,0.000152373337,0.000768647064,0.00129295373
89793.784963,0.000163154672,0.00328224567,0.054607204,-0.00146922539,-0.00208359864,0.000478825532
89793.794990,0.00381550317,-0.000479253151,0.0635877983,0.00256919209,-0.000629512477,-0.000291893259
89793.805018,-0.00498374323,0.0084960622,0.0574538256,-0.00417339941,-0.000946695101,0.000118499622
89793.815045,-0.00244527426,-0.00382678261,0.0625409196,0.00043200521,-0.000513931387,0.00186020695
89793.825073,0.000618131898,0.0134184124,0.0567062221,-0.00102634181,-0.000225510914,-0.0017140219
89793.835100,-0.00811151986,0.00384177012,0.0471276619,-0.00055975595,0.00137451617,-0.000606679358
89793.845128,-0.000904438026,0.00408715058,0.0529641129,-0.000450566353,-0.00154350942,-0.000617598183
89793.855155,-0.00463525859,-0.00803250894,0.0547597642,-0.000550434925,5.4120901e-05,0.000207715668
89793.865182,0.0117636492,0.0103037601,0.0602934329,0.000106034335,0.000478362548,0.0011885576
89793.875210,-0.00370612451,0.00460145678,0.0670265406,0.000530808524,-0.00046626071,0.0021680682
89793.885237,0.00968585651,-0.0138592149,0.051311085,-0.000789054146,0.00182379154,0.000570171513
89793.895265,-0.00495101,-0.00769005218,0.0730097066,0.00125572109,-0.00106493931,0.00116139324
89793.905292,0.0025827465,0.0123553223,0.0625368279,-0.00171876373,0.000268239062,5.59156761e-05
89793.915320,-0.0090746658,-0.00347916562,0.0584977817,0.00185493217,0.000505260425,-0.000242625363
89793.925347,0.00395556923,-0.00649254949,0.0570014056,-0.00122900831,-0.000214059372,0.00113635976
89793.935375,0.0128163,-0.00624389023,0.0529623594,-0.00017705973,-0.000815134845,-0.000531578436
89793.945402,-4.25605001e-05,-0.00348666394,0.0622393063,-0.00132142007,0.000832296617,-0.000617065467
89793.955430,0.00674191201,0.00898145283,0.0613806436,-0.00778917316,-0.0345720351,-0.00391033012
89793.965457,0.0141668378,-0.0177165388,0.234161223,0.0127294175,0.00156706269,0.00133929262
89793.975484,-0.0208341868,0.0249636969,-0.144014503,-0.0239510983,-0.00251103612,-0.000449020416
89793.985512,0.00248202607,-0.0329529147,0.132106039,0.0300093386,-0.00650631031,0.000169632025
89793.995539,0.0259493744,0.0743695237,0.0504033225,-0.0197092164,0.00559030008,0.000838086009
89794.005567,-0.017851335,-0.050237775,0.0372299527,0.0129549876,-0.00464848895,-0.000695362687
89794.015594,0.0250797885,0.0418899256,0.114312608,-0.00667916751,0.000117237912,0.00098109711
89794.025622,-0.020861915,-0.0116526174,0.0373930343,0.00262618368,-0.00228040619,-0.000786975026
89794.035649,0.00829294084,0.0210477565,0.0809527746,-0.000287847215,-0.00344260968,-0.000367260538
89794.045677,-0.0161293701,0.00483118302,0.063299629,-0.00174140045,-0.00101593707,-0.000218124129
89794.055704,0.00546509701,-0.00456895188,0.059415481,-0.00125004724,-0.00153072632,-0.00185863115
89794.065732,-0.0206939381,0.00568758065,0.0577753126,0.000259965018,-0.00448949821,1.5434809e-05
89794.075759,0.0207709123,0.00665170384,0.0703559773,-0.00183700793,-0.00179970555,0.00190574676
89794.085786,0.00772270321,-0.0116364243,0.0552449174,-0.00147401914,-0.0014654788,-0.00236117002
89794.095814,0.0100555301,-0.0136623589,0.0565945784,-0.00200638501,4.95936256e-05,-0.00217874348
89794.105841,0.00435410356,-0.000601619155,0.0618242958,0.000153971196,0.00403208472,0.000764315948
89794.115869,0.00812222392,0.0116056547,0.0197556708,-0.000363214669,0.0065200096,-0.00101813767
89794.125896,0.0143124203,0.000780181459,0.0577367342,0.000107898552,0.00934535731,-0.000897762366
89794.135924,0.0111490609,-0.00546398276,0.0526174915,-0.00389376725,0.0077290847,-0.0011678068
89794.145951,0.0116453931,-0.0153503942,0.0584235474,-0.00404636655,0.00699218782,0.00383041333
89794.155979,0.0217575122,0.0388551154,0.0639484483,0.0063665933,0.000972378883,-0.00196915213
89794.166006,-0.0443526442,-0.0294877411,0.101058574,-0.00351426681,-0.000926188543,-0.00132599939
89794.176033,0.0283275382,-0.00258070981,0.0419493825,-0.00328390347,0.00150128268,-0.00144983642
89794.186061,-0.0180128092,0.0141652578,0.0651437956,0.00205120724,-0.000965603511,-0.00126181636
89794.196088,-0.000579736117,0.00471656193,0.0593102671,-0.00323223812,-0.00125988282,-0.00158246141
89794.206116,-0.00828234638,0.0124371554,0.0660451283,0.00106157642,-0.000867599039,0.0013656579
89794.216143,-9.7578623e-05,0.0177509891,0.0626081396,-0.000892384793,-0.000916867633,-0.000449818559
89794.226171,0.0111984165,-0.00624860293,0.0699368751,-0.00052380329,0.000832296617,0.00119388383
89794.236198,0.012721096,0.00961965027,0.0527297197,0.000131068053,-0.0011621447,-0.000321720727
89794.246226,0.00273556244,0.0107479328,0.0611170243,-0.000111013302,-0.00149211043,0.000445801765
89794.256253,-0.0146571056,0.0113749421,0.0566273116,0.00185759552,-0.000614066259,-0.00150949042
89794.266281,-0.00705766343,-0.00297399258,0.0735404525,0.000216022891,-0.00136214809,-0.0006032167
89794.276308,0.00379782138,0.0179157603,0.0513970098,-0.000683592923,-0.000449216575,-0.000655415468
89794.286335,0.00152768449,-0.00143325681,0.0451163221,0.000392590475,-0.000264659408,0.00063861534
89794.296363,-0.00357880833,0.00863449342,0.0505026913,6.87500578e-05,0.000222965376,-0.00156674907
89794.306390,-4.67617512e-06,0.00118567525,0.0648679012,0.00150605803,0.000332154916,0.00141013274
89794.316418,0.00386781788,0.00133406162,0.060228551,-0.00169665948,-0.000303008943,0.000641544349
89794.326445,0.00144815298,0.010319122,0.0644172349,-0.000396237854,0.000769712322,-0.000540899113
89794.336473,-0.00105951899,-0.000757558635,0.0534936898,-0.00213235267,-0.000712336856,0.000657789409
89794.346500,-0.00115549018,0.00251276827,0.0635229164,0.00130525581,-0.000318455277,0.00056031812
89794.356527,0.00957954659,-0.00884646481,0.0521475359,-0.00114751561,0.00203098543,0.00107537303
89794.366555,0.00976407284,-0.00418760615,0.0647130029,0.00037128519,-0.000322450069,0.00108229741
89794.376582,0.00795055715,0.00968068714,0.045408583,-0.000337115693,0.000552930986,0.00215901341
89794.386610,0.0114141781,-0.0099773594,0.0623176322,0.000800320355,-0.000832711696,0.000218368135
89794.396637,-0.0046908247,0.010660218,0.063218965,-0.00261172163,-0.000845228438,-0.00114064291
89794.406665,-0.00777764826,-0.0189696624,0.0659130264,0.00172300334,-0.000102907885,0.00145012233
89794.416692,0.0142903912,0.0140420242,0.0490063152,-0.00321582891,-0.00149041472,-5.66942617e-05
89794.426720,0.00409885015,-0.00412776572,0.0668131901,0.00112539018,0.00103639241,-0.000347511843
89794.436747,-0.000964643781,0.00615827603,0.0614268209,-0.000399003329,-0.00182464148,-0.00045270659
89794.446774,0.0189118769,-0.00179202538,0.0665203446,-8.39513959e-05,-0.000315694488,0.000718818046
89794.456802,-0.00157883016,0.00717392848,0.0641249739,-0.00215722225,0.000482188538,0.000314816833
89794.466829,-0.00461260836,-0.00773738019,0.0539484478,0.000268651114,-7.22815748e-05,0.000242112204
89794.476857,0.00112242816,-0.00519914868,0.0521475359,-0.00101392716,0.00132694328,0.00191777339
89794.486884,0.00550904575,-0.00706815742,0.0490080688,0.00102871726,-0.000874691992,0.00057953503
89794.496912,0.00538235063,0.00107647926,0.0534971969,-0.000875709171,2.94512138e-05,-0.000146443024
89794.506938,-0.0107208986,-0.00521102178,0.0731014766,0.0026548435,-0.00142436835,0.00101549458
89794.516965,-0.00723316612,0.000475819085,0.0614332506,0.00127026602,0.000114139752,-0.000304368325
89794.526993,-8.64727071e-05,-0.000670053882,0.0584393295,0.000961073034,-1.50236301e-05,-0.00136750191
89794.537020,0.00130666215,0.00442909589,0.0584416676,0.000940034108,-0.000949793146,0.000689789653
89794.547048,-0.00229435801,0.0104664307,0.0557481907,0.0011458965,0.000533054932,0.00119259488
89794.557075,0.00700874625,0.00505595908,0.0584440057,0.000904081331,-0.000936743687,0.000902043656
89794.567103,0.0125028867,0.00241311642,0.0603881255,-0.00133324019,-0.000649921247,-0.00141943339
89794.577130,-0.00425078931,0.000325176834,0.064727616,0.00217760494,-0.00057854841,-0.000111022964
89794.587157,-0.00635360681,-0.00026135435,0.065182374,-0.00187173137,-0.000733810826,1.62888318e-06
89794.597185,0.00173613961,0.000741730879,0.0650327364,-0.00101366092,-3.04699643e-05,0.000711627305
89794.607212,-0.000361599854,-0.00555967082,0.0627875878,-0.000704467879,-0.000478946255,0.00017633196
89794.617240,-0.00483750316,0.0091616317,0.0642851329,-0.000564119313,-0.000293856603,-0.000719288364
89794.627267,0.00403546606,0.00853398306,0.0713181003,-0.000442146527,-0.000814238214,0.000345443375
89794.637295,-0.010561726,0.00542249084,0.0575543633,-0.000495942368,-0.00216499344,-0.00191451516
89794.647322,0.00118113608,-0.000919662995,0.05486264,-0.000876508071,-0.000705847633,0.00122055784
89794.657349,0.00125171709,0.00393210615,0.0586041647,-0.000938559766,-0.000906117377,0.000720416196
89794.667377,-0.00442892236,-0.00136721497,0.0653431175,-0.00249411212,-0.00171678362,8.29808414e-07
89794.677404,0.00305781667,-0.00601469371,0.0554652821,0.00162420003,0.00133786222,-0.000460429117
89794.687432,-0.00292907572,0.0249104598,0.0464881949,-0.00105307566,-0.00154447707,0.00149193406
89794.697459,0.00394829923,-0.0144462941,0.0702858346,-0.000552135054,-0.00107709214,-0.00022980012
89794.707487,0.0240361246,0.0104859756,0.0592132365,0.00123591116,-1.98172638e-05,0.00268982397
89794.717514,-0.00521042812,0.00656190667,0.0470972667,0.00173765072,-0.00234236009,0.00193854608
89794.727541,0.0117571098,0.00490968248,0.0595247866,-0.0013454908,-0.00127762824,0.00343843829
89794.737569,-0.00807476805,0.0145643675,0.0571323385,-0.000477566588,-0.000243522809,0.00883320346
89794.747596,0.0225162216,0.0166782544,0.0405272407,0.00525542023,0.000915218552,-0.00109878927
89794.757624,-0.0140577514,-0.050841988,0.0530921232,-0.00532744918,4.86259814e-05,0.00263496256
89794.767651,0.00314410671,0.00670205492,0.0439595532,0.00203033211,0.00110590085,0.00118939904
89794.777679,0.00694276834,0.00187105457,0.0550286443,0.00288866903,0.00310247275,-0.00139839482
89794.787706,-0.00646167029,-0.0159837237,0.0593646276,-0.00306962128,-0.0026036161,-0.00246445835
89794.797733,0.0132047513,-0.00234881902,0.0659510203,0.000821523427,5.21645416e-06,0.000914826989
89794.807761,0.00746047207,0.0220279357,0.0429044912,-0.000522840302,0.000357019948,-1.48825347e-05
89794.817788,-0.00240983762,-9.84188732e-05,0.0436532638,0.00113897212,-2.94046476e-05,-0.000349908136
89794.827816,0.00565137683,0.00561088042,0.0535287611,-0.00119422318,0.000353291631,-8.94507393e-05
89794.837843,-0.00687858053,0.00315522176,0.0467956534,0.00210250379,-0.000775356195,-0.000814097002
89794.847870,-0.00420969012,0.00333510837,0.0471001893,-0.00054254767,0.000561284483,0.000781136565
89794.857898,0.00745641695,-0.00684506186,0.0599684388,0.000268384872,-0.00108801119,-0.00125990994
89794.867925,0.000966689608,-0.00545167127,0.0668558602,0.0017104866,9.7894459e-05,-0.000461228192
89794.877953,0.00624802754,-0.0113052105,0.0548866054,-0.00446245447,0.000995912356,0.00148527604
89794.887980,-0.0159496296,-0.0130874999,0.0623667321,0.00398056488,-0.000461635762,-0.000844190829
89794.898008,0.00191430919,-0.000624716903,0.0726940648,0.000455338799,-0.000695194933,-9.85059887e-05
89794.908035,-0.00377250428,-0.0051675023,0.0460597404,-0.00139289501,0.00108912296,3.86470929e-05
89794.918062,-0.000443213723,-0.00690017131,0.0722469056,-3.9210252e-05,-0.000599587453,0.00015715789
