t,ax,ay,az,gx,gy,gz
94632.052413,-0.0306794263,-0.0481578103,-0.0482424211,0.00729283511,0.000421751036,-0.00529295217
94632.062440,-0.00103868663,-0.135599481,-0.0212895323,0.00563501759,-0.00238575323,-0.00469187658
94632.072467,-0.0347371773,-0.257791398,-0.0404133349,0.0141294366,0.000280070912,-0.00604369688
94632.082494,0.0481432044,-0.331718293,0.0135994103,0.00410822692,0.00150219547,-0.00307853344
94632.092521,0.0498774077,-0.494634846,0.0634030134,-0.00287005392,0.00178555583,0.00264486613
94632.102549,0.0848177882,-0.477218139,0.0241710732,-0.00566397601,0.00290994251,0.00788596728
94632.112576,0.0540088085,-0.230746703,-0.0183388658,-0.0132840787,-0.000968685279,0.0159074076
94632.122603,0.0542106877,-0.232119416,-0.0183084706,-0.0181834976,-0.00219879954,0.016332182
94632.132630,-0.0410227604,0.1222063,-0.033967812,-0.00949333509,-0.00377539082,0.00767371327
94632.142657,-0.101715203,0.370957135,-0.0170318748,0.00116649952,-0.00160145238,-0.000621235103
94632.152685,-0.129997075,0.360586072,0.00782550307,0.000152101455,-0.00123473503,-0.0019946267
94632.162712,-0.192177491,0.20987103,0.0269703485,-0.00123194343,0.00297492368,-0.00943683005
94632.172739,-0.103428655,0.182650156,0.0706089992,0.014759807,0.00187983175,-0.0206205092
94632.182766,-0.200683307,0.199787279,-0.0151497143,0.00472474896,0.000660636615,0.0069855525
94632.192793,-0.260309581,0.117129764,-0.0438526617,-0.00518966693,-0.00292317944,0.00471946866
94632.202821,-0.259997958,0.117457343,-0.0438152523,0.0103144581,-0.00407686087,0.00320998895
94632.212848,-0.259829031,0.118122949,-0.0437971321,-0.00176990189,-0.000918351485,-0.000372761965
94632.222875,-0.28467903,-0.0275592566,0.0501554093,0.00269941503,0.00427800834,0.000455747254
94632.232902,-0.247383172,-0.00448134373,0.0180815241,0.00276892336,0.00468600446,-0.0026561563
94632.242930,-0.21223894,-0.00625867843,-0.0543834081,-0.000371742347,0.000607639704,-0.00117490544
94632.252957,-0.173747077,-0.112242315,-0.0774036337,-0.00389510457,-0.00304089116,-0.00111818045
94632.262984,-0.165425239,-0.0341964661,-0.0645044046,-0.00102235254,-0.00296578978,-0.00277786247
94632.273011,-0.203380876,0.0036522327,-0.0212340027,-0.00128893501,-0.00159426187,-0.00281860876
94632.283038,-0.261433398,0.0252809423,-0.00163030754,8.60550271e-05,0.000965035964,-0.00449719942
94632.293066,-0.291405854,0.0677911895,-0.00659231386,-0.000973883079,0.00290861072,-0.00286574672
94632.303093,-0.351526926,0.0477742328,-0.0420874056,-0.00611271889,0.00265268095,-0.000771969662
94632.313120,-0.379242323,0.117742343,-0.0539298191,-0.00149612891,0.000433202695,-0.00372035532
94632.323147,-0.433512697,0.262070132,-0.119914742,0.00703743805,-0.00121050039,-0.00661148328
94632.333174,-0.455904853,0.206832996,-0.0986434056,0.00702305703,-0.00124592045,-0.00630921415
94632.343202,-0.478514452,0.0661198724,-0.0525573617,0.000224805734,0.00235174385,-0.00657845951
94632.353229,-0.528815337,0.0627288098,-0.0334247912,3.70528495e-05,0.00217890481,-0.00685356475
94632.363256,-0.588823962,0.109244875,-0.0744272482,0.0078137499,-0.000396904674,-0.0103020921
94632.373283,-0.616497859,0.0996372709,-0.0927017406,0.00173029054,0.00162363562,-0.0112717479
94632.383310,-0.655252098,0.0355475806,-0.0756804631,-0.00122741603,-0.000294372927,-0.00889594211
94632.393338,-0.713404647,0.0885352,-0.122491314,0.00857061992,-0.00359509468,-0.0173546738
94632.403365,-0.7538266,0.207147615,-0.15897191,0.0105687902,-0.00249920415,-0.0188519034
94632.413392,-0.758446808,0.0470725325,-0.0546721619,-0.00190119579,0.00218689416,-0.0173943556
94632.423419,-0.7889126,0.0234255762,-0.0560469574,-0.000850046105,0.00237864184,-0.0197464592
94632.433446,-0.780701309,0.161845232,-0.102923275,0.0101450813,0.00299090238,-0.0223555594
94632.443473,-0.776683525,0.155939406,-0.12103527,0.00470717211,-0.00240226511,-0.024550005
94632.453501,-0.804719314,-0.0246993029,-0.120258441,0.010677713,-0.00444517613,-0.0197190299
94632.463528,-0.748520238,-0.147540021,-0.0657786623,-0.00543680827,0.00101963073,-0.0157381362
94632.473555,-0.802658217,-0.151492768,-0.0329828927,-0.00316246895,-0.00355647926,-0.0167317606
94632.483582,-0.855464509,-0.00388623423,-0.119734124,0.00538760989,-0.000883197783,-0.0157778162
94632.493609,-0.774246946,-0.0436059831,-0.0332476811,-0.0055896737,0.0024481504,-0.0111814673
94632.503637,-0.719698705,-0.188797065,-0.000500426725,-0.00805309781,0.000798055706,-0.00751589156
94632.513664,-0.707949815,-0.0256040971,-0.106601671,0.00516230619,-0.000161481228,-0.00900326773
94632.523691,-0.691550031,0.0540611036,-0.141157436,-0.00138427613,-0.00401108062,-0.00698858603
94632.533718,-0.660037433,-0.0710954173,-0.137348107,-0.00989627087,-0.0073783817,-0.00586446665
94632.543745,-0.637330292,0.0705744041,-0.0596324147,-0.0037893771,-0.000185715988,-0.0119700293
94632.553773,-0.567967271,0.184633129,0.031469998,0.00441102876,0.00361088661,-0.0135673928
94632.563800,-0.530084188,0.110688598,0.00147116561,-8.0126215e-05,0.00895425256,-0.0139189298
94632.573827,-0.540668418,0.0266640603,-0.0565245118,0.000332663773,0.00661546455,-0.0186079583
94632.583854,-0.468586421,0.0515648618,-0.161425148,0.00231378928,-0.00707318357,-0.0167221735
94632.593881,-0.489363471,-0.00233161607,-0.173112663,-0.00973488384,-0.0104319616,-0.0182934395
94632.603909,-0.487073022,0.103822283,0.0583094896,-0.00431322067,-0.00286032867,-0.0214050758
94632.613936,-0.495633929,0.320473294,0.190962056,0.000645052531,0.0164129683,-0.0273007817
94632.623963,-0.401757449,0.314128638,0.187434467,0.0189452302,0.0181663935,-0.023857846
94632.633990,-0.395542082,0.125445319,-0.105550701,0.0175574572,0.0068817809,-0.0199547197
94632.644017,-0.299460638,-0.162849718,-0.181751897,-0.00731407053,0.000822290465,-0.0149253394
94632.654045,-0.370334794,-0.117353621,-0.212248742,-0.0100193088,-0.0065823626,-0.0259454987
94632.664072,-0.435390546,0.264355229,-0.284988399,0.0146220569,-0.0154290428,-0.037849744
94632.674099,-0.289402989,0.196929204,-0.104369382,0.00523760968,-0.00651091572,-0.0367740925
94632.684126,-0.23598653,-0.185572185,0.249716443,-0.0211220923,0.0222749267,-0.0418900262
94632.694153,-0.269127825,0.0044412756,0.126658803,-0.00710001675,0.00759105475,-0.0499239835
94632.704180,-0.338672047,0.121833558,-0.370392893,0.000346714375,-0.0159616745,-0.0481892015
94632.714208,-0.219377121,-0.154575044,-0.298565089,0.00416195865,-0.0261019259,-0.0429148126
94632.724235,-0.154629777,-0.241264645,0.113808674,0.0158545674,0.00694923287,-0.0330994661
94632.734262,-0.195757906,-0.325665861,0.398013154,-0.0103264357,0.0325121176,-0.020771959
94632.744289,-0.294701534,-0.31821865,0.0847304636,-0.0035449629,-0.000344632448,-0.0141042006
94632.754316,-0.260832728,-0.0534833983,-0.436644942,0.0304564126,-0.0347116585,-0.00431921437
94632.764344,-0.21083521,-0.163831094,-0.124212147,0.0144686588,-0.00908885572,0.00844345231
94632.774371,-0.303216484,-0.390408894,0.511109371,-0.0206544417,0.040079758,0.00322791784
94632.784398,-0.322506583,-0.0238026942,0.308775366,-0.0143153183,0.028643344,-0.0209762204
94632.794425,-0.178228314,0.316911473,-0.469936386,0.0277312007,-0.0280508283,-0.0289188336
94632.804452,-0.00908872209,-0.183152063,-0.541035875,-0.00915837375,-0.0313747186,-0.0149492213
94632.814480,-0.0579532177,-0.609622686,0.26245902,-0.0303592663,0.0187872504,-0.0111994912
94632.824507,-0.201635055,0.00871822227,0.269460424,-0.00721373356,0.028063307,-0.0258921507
94632.834534,-0.166556581,0.262705818,-0.333178138,0.0156015671,-0.0210837326,-0.0152056833
94632.844561,-0.0105433779,-0.384573648,-0.433449945,-0.00433112814,-0.0413192283,0.00764530328
94632.854588,-0.0260910026,-0.542282732,0.239191542,-0.0244422554,-0.00935890016,0.0137250339
94632.864615,-0.326408997,0.0671936437,0.607643162,-0.00403551704,0.0282204342,-0.00320042028
94632.874643,-0.270145477,0.440484296,0.473218325,0.00950798864,0.051180609,-0.0130695627
94632.884670,-0.0560977991,0.0891990068,0.140174118,0.00310441765,0.0368203153,-0.0128695593
94632.894697,0.0405067181,-0.391190948,-0.38128312,0.00567942818,0.00602112149,0.000906706683
94632.904724,0.160938905,-0.593226664,-0.587353974,-0.0302093308,-0.0198235247,0.00769244124
94632.914751,0.149247956,-0.433834742,-0.29553902,-0.0231138709,-0.0281032915,0.00254561602
94632.924779,-0.0621342297,0.12880884,-0.0531956596,0.0189313163,-0.00845502366,-0.0091712271
94632.934806,0.0102525227,0.0917389006,0.230434235,0.00935485686,0.016393336,-0.00293783295
94632.944833,-0.0311555194,-0.512059589,0.273742631,-0.0179619863,-0.00322617267,0.0134730981
94632.954860,-0.172189034,-0.542564362,-0.0477414858,-0.0188869014,-0.00658282128,0.0168561105
94632.964887,-0.206289018,-0.0574135135,-0.0269728386,-0.0100707728,0.0074584293,0.00984800317
94632.974914,-0.209465018,0.120235713,-0.0503379321,-0.00838152965,-0.00607602161,0.0120413833
94632.984942,-0.235310822,-0.104838752,-0.135999615,-0.018709002,-0.0274963579,0.0219004051
94632.994969,-0.498358678,-0.083243965,0.0382913685,-0.000840256508,-0.012840983,0.0148978894
94633.004996,-0.591419531,0.148488268,0.335002863,0.0122443867,0.0162372743,0.0230365087
94633.015023,-0.599365157,-0.176009735,0.487375445,-0.0274026263,0.0559189063,0.0264189904
94633.025050,-0.259209511,-0.0892770986,0.431388185,-0.0210453942,0.087908261,0.00893027791
94633.035078,0.162365796,0.386257653,-0.466917915,0.021608593,0.0309741427,0.00153095172
94633.045105,0.297650099,0.0111791074,-1.42383286,0.00236698852,-0.086457416,0.0124813373
94633.055132,-0.242209788,-0.745558183,-1.31626212,-0.0248766168,-0.111298315,0.043489321
94633.065159,-0.372940081,-0.500773604,0.0425607164,-0.0382411572,-0.027721928,0.0266466913
94633.075186,-0.267817107,0.497446758,1.05126137,0.0049659671,0.0242166375,0.00907169179
94633.085213,-0.495382804,0.632229396,0.600783213,0.0220189859,0.0360320178,0.0131098431
94633.095241,-0.518391632,0.104626448,0.163325277,-0.011070257,0.0249423482,0.021580561
94633.105268,-0.440392446,-0.113348057,-0.169291059,-0.0158687401,0.0162042514,0.0262099308
94633.115295,-0.113868801,0.293825197,-0.408037272,0.0218546689,-0.00218141454,0.0156856523
94633.125322,-0.0568858807,0.457481024,-0.529568725,-0.00812133861,-0.0469009499,0.00995506243
94633.135349,-0.661312056,0.288678938,-0.484876766,0.00575905626,-0.0630484964,-0.00131676636
94633.145376,-0.824241176,0.466522189,0.0181768012,0.025209453,-0.0203284598,-0.0125726164
94633.155404,-0.545148048,0.116380462,0.910110443,0.0393758733,0.0503142853,-0.000820353732
94633.165431,-0.529682256,-0.468840114,0.802179061,-0.0169840734,0.0715335463,0.00945758437
94633.175458,-0.418877364,-0.635513754,-0.03264387,-0.062617069,0.0159627017,0.00679255918
94633.185485,-0.330613828,0.129979729,-0.953588502,0.00519712928,-0.071863025,-0.019045164
94633.195512,-0.552358199,0.824360499,-1.00081729,0.0763903503,-0.0714180093,-0.022097678
94633.205540,-0.605799281,-0.399298741,0.280739358,-0.0163768734,0.0364059252,0.0222679217
94633.215567,-0.346389563,-1.40075608,1.10114038,-0.0784615482,0.0609522802,0.0427958322
94633.225594,-0.352795557,0.0354311854,-0.0578595598,-0.0343670565,-0.00562275157,0.00953268529
94633.235621,-0.342632256,1.37500014,-1.01059634,0.09948981,-0.0607861388,-0.00416368536
94633.245648,-0.328800495,0.57035958,-0.614187621,0.0602044557,-0.00721745242,0.0260594626
94633.255675,-0.210951165,-1.15078281,0.583609375,-0.107912911,0.0509955217,0.0458198515
94633.265703,-0.128589035,-0.470531392,0.202374262,-0.0271248575,-0.0365005057,0.00666099869
94633.275730,-0.104249105,1.21431675,-0.888171735,0.0877260958,-0.0829242016,-0.0077424423
94633.285757,-0.217668125,0.223535033,0.0418183736,0.0106510176,-0.00255745326,0.0121226095
94633.295784,-0.347988084,-0.825478765,1.22004967,-0.0663774516,0.0659869839,0.00689029683
94633.305811,-0.309131407,0.3229726,0.384446985,0.0101175868,0.0342716691,-0.0291875462
94633.315838,0.0350261678,0.745567313,-0.673980703,0.0238986444,-0.000759020353,-0.00931929994
94633.325866,0.396354073,-0.307774852,-0.439616651,-0.0348120722,-0.0321590188,-0.00377752736
94633.335893,-0.10185673,0.236687707,-0.501190772,-0.00139579194,-0.0749978344,-0.0210904713
94633.345920,-0.454495863,0.646145327,-0.201478342,0.0252291598,-0.0351766492,-0.00837227899
94633.355947,0.0294280556,-0.0215075005,1.02541674,0.0197419823,0.0549071734,0.00370968356
94633.365974,0.137675007,-0.220770905,1.12246725,-0.0227737855,0.0958175813,0.00652251429
94633.376001,-0.0633606297,0.0722880351,-0.232929711,0.0138209779,-0.00801400423,0.00925704826
94633.386029,-0.105458188,0.274781675,-1.39645619,-0.00588428362,-0.0887666415,0.0144464838
94633.396056,0.195101287,0.178894274,-0.296701634,-0.0309579465,-0.0636367868,-0.00561750504
94633.406083,-0.0320235344,0.904941737,0.926446661,0.0396222156,-0.0105474689,-0.043296707
94633.416110,-0.394922196,0.896508401,1.09202827,0.0763618518,0.0431996514,-0.0382968905
94633.426137,-0.3480583,-0.531276879,1.1301806,0.026045153,0.136380196,0.00767726068
94633.436164,-0.0740758658,-1.06844866,0.646045081,-0.0894763823,0.181950614,0.00163454831
94633.446192,0.470500748,0.571699852,-0.986571319,-0.0211628395,0.058471546,-0.0634584363
94633.456219,0.771515785,1.73963249,-2.72327879,0.104420388,-0.174363032,-0.078672276
94633.466246,0.401451396,-0.0460359456,-2.20774685,0.0601985958,-0.17325595,-0.015773737
94633.476273,0.317139155,-1.93566828,0.718099679,-0.0600756164,-0.0468484829,0.0187155296
94633.486300,-0.327340214,-1.03561687,1.71839023,-0.0406886022,0.0538030271,0.00862081897
94633.496327,-0.391843446,0.604588525,0.830925263,0.0152718677,0.0501931091,-0.0232351172
94633.506355,-0.209491321,0.710296459,-0.045809641,0.00740702038,-0.0245703417,-0.012999788
94633.516382,-0.108547752,-0.0743693655,-0.207256925,-0.0226906947,0.0152769373,-0.017924239
94633.526409,0.0571229219,0.578714517,0.37923948,0.0334221107,0.0329813664,-0.0598032485
94633.536436,-0.160734085,0.719092636,-0.238482084,-0.00956024409,-0.00852453199,-0.0454432155
94633.546463,-0.306240727,-0.629673065,-0.331397684,-0.0271112751,-0.0557373162,-0.0219216432
94633.556490,-0.663467627,-0.177016063,0.131481693,-0.00275080808,0.00623843537,-0.0388500291
94633.566518,-0.451865515,0.627902253,0.947628565,0.073585244,0.0893809874,-0.0343093398
94633.576545,-0.261005309,0.0174058866,0.755356519,0.0229913053,0.123595685,-0.00842234689
94633.586572,0.182385305,-0.8668852,0.0067581661,0.019707894,0.0837438782,0.0276573588
94633.596599,0.176879109,-0.77814126,-1.36438815,-0.0323065686,-0.0154639301,0.0243763466
94633.606626,-0.0371343016,-0.0815070765,-1.71812268,-0.0423597376,-0.118175663,0.00515604661
94633.616653,-0.0856966724,0.845770586,-1.01223826,-0.016299108,-0.124730773,-0.0376827653
94633.626681,-0.356452326,1.25238659,0.519587277,0.0857798551,-0.0494349445,-0.0601292188
94633.636708,-0.594648065,0.529471543,1.33685877,0.0866136943,0.00643471021,-0.0441702242
94633.646735,-0.985807776,-0.973641182,1.54349252,-0.0122476406,0.120876328,-0.00611658219
94633.656762,-0.302693921,-1.27348053,1.41812894,-0.0398888569,0.163103149,-0.0142240432
94633.666789,-0.12355221,0.0532773602,-0.346609866,0.00881749398,0.0730273579,-0.0357827629
94633.676816,-0.0880640591,0.416377152,-1.96357628,0.00958555012,-0.0905224229,-0.024127436
94633.686844,0.23842941,-0.268394096,-1.50846578,-0.0409173052,-0.0820391844,-0.0142500383
94633.696871,0.33755972,0.0248535038,0.10433299,0.0469323863,-0.0445490699,-0.0373226005
94633.706898,-0.606534025,0.255897946,0.200381627,0.000966228726,-0.0257146615,-0.0114340113
94633.716925,-0.948309893,-0.844774783,0.605793734,-0.0225484184,0.0296841473,0.00574630675
94633.726952,0.0534488365,-0.012055293,1.14905422,-0.00528527557,0.107587733,-0.0252249251
94633.736979,0.559880574,0.45419981,0.706395797,0.0147696594,0.0489113708,-0.0138393791
94633.747006,-0.239299965,-0.176769029,-0.980533792,-0.0438174884,-0.00657958446,-0.0230890709
94633.757034,-0.413178495,0.137767716,-1.17432384,-0.000237786409,-0.0420725974,-0.0380203511
94633.767061,-0.0545496198,0.443884679,-0.833364625,0.0125214188,-0.086454175,-0.0367489579
94633.777088,0.127020049,-0.180326174,0.212903255,-0.0230397712,-0.0516266856,-0.0125938189
94633.787115,-0.583701578,-0.0617915002,1.05537407,0.000163551979,0.0268963505,-0.0342221494
94633.797142,-0.94861852,0.605650783,0.834521241,-0.00314542575,0.0928854872,-0.0365675959
94633.807169,-0.102345536,0.129652232,0.634583775,-0.00307778146,0.0842973222,-0.0305227536
94633.817197,0.133902137,-0.000359025937,-0.458133136,0.0242686216,-0.0234855968,-0.0183371912
94633.827224,-0.167511982,-0.181953921,-1.04785902,-0.0392246004,-0.0267532948,0.000186691887
94633.837251,0.143652035,-0.264359013,0.117090764,-0.04610488,0.0371447284,-0.0314263637
94633.847278,0.0066062021,1.00576314,-0.0368272931,0.0587512311,-0.0324489991,-0.0594555969
94633.857305,-0.495352409,0.775036569,-0.836435118,0.0451155771,-0.0633222233,-0.0422635648
94633.867332,-0.171028758,-0.670035325,0.411580491,-0.00900331413,0.0227103946,-0.0124105924
94633.877360,0.110385506,-0.776357519,1.3573486,-0.0458846334,0.155860723,-0.0110406616
94633.887387,0.245255895,0.29638617,0.191556515,0.0179329627,0.0410641026,-0.0401452865
94633.897414,-0.155116026,0.530792344,-1.99902285,-0.0686964671,-0.135820403,-0.0408563512
94633.907441,0.252356375,-0.165528509,-0.98274387,0.00443046872,-0.109763756,-0.0502764817
94633.917468,-0.103803992,0.732936087,0.564212601,0.0764514004,-0.0326109189,-0.0676895614
94633.927495,-0.653212994,-0.0974754108,1.28763969,-0.00755348981,0.0948112164,-0.0140873195
94633.937522,-0.236058426,-1.15949196,1.49607143,-0.0616177897,0.128972382,-0.0242526057
94633.947550,-0.000423623472,0.270491046,-0.131282523,0.0102050016,0.0209644255,-0.0362671885
94633.957577,0.0816667768,0.395978507,-1.36215294,0.013622636,-0.0445282976,-0.0249777856
94633.967604,0.43317866,-0.133867387,-0.626699896,0.0398252104,-0.0420025545,-0.0296777311
94633.977631,0.178450231,-0.0888490824,-0.0453320866,0.00428213046,-0.00436356759,-0.00809360865
94633.987658,-0.323929601,-0.77263353,0.345565174,-0.111058576,0.028829806,-0.011408711
94633.997685,-0.0124742729,0.478981237,0.0635696021,0.00258889265,-0.0342532876,-0.0695196848
94634.007712,-0.0620564152,1.43666574,-0.517895238,0.0818799902,-0.00281999961,-0.0536605614
94634.017740,0.698070755,-0.610380299,0.688560865,0.0400651601,0.056017485,-0.0138140787
94634.027767,0.574150288,-1.42342866,0.562896842,-0.0581117402,0.0509012867,0.0248728645
94634.037794,-0.38285613,-0.683316612,-0.782920385,-0.128677791,-0.0540056895,-0.00318433727
94634.047821,-0.0932344475,1.34368175,-1.09942321,0.0664331187,-0.0973358522,-0.0587197702
94634.057848,0.536571157,1.69718203,-0.023018548,0.146050179,-0.0369425486,-0.0482745852
94634.067875,-0.0216164144,-0.6959181,1.34646831,-0.0510109532,0.0504919593,0.0136961088
94634.077903,-0.103031181,-1.40671718,1.64778934,-0.0320633631,0.164576173,0.00733301825
94634.087930,0.332347757,0.734134211,-0.108371019,0.0539388974,0.0757251461,-0.0183100264
94634.097957,0.255025886,0.580810795,-1.93259369,-0.0342801753,-0.12322817,-0.00570475321
94634.107984,0.400489638,-0.110749793,-1.49628551,0.024345588,-0.105324804,-0.0228880021
94634.118011,0.48988627,1.17617034,0.203970591,0.0824698751,-0.0209191083,-0.0583562489
94634.128038,-0.078997394,0.253626165,0.795405037,0.0158234724,-0.0120750177,-0.015638345
94634.138065,-0.0983598277,-1.41426482,0.830550584,-0.0571207795,0.0457158466,0.00641422801
94634.148093,0.279070121,-0.215306649,0.915613132,0.0132330154,0.0464135934,-0.0466609757
94634.158120,-0.0165155111,1.05947003,-0.457289086,0.0540392977,-0.0184442322,-0.0567532937
94634.168147,0.0398921664,-0.22121348,-0.631462581,0.0439110306,-0.00288950794,-0.0282968815
94634.178174,0.397495133,-1.35889803,0.0684456837,-0.0386227276,-0.00797774412,0.00563498669
94634.188201,0.0654869917,-1.0809876,-0.00671038728,-0.0398946534,-0.00505519055,0.00747656253
94634.198228,0.233140802,0.224575372,-0.172054679,0.0506190006,-0.0275708861,-0.0183081637
94634.208255,-0.105472875,0.581779202,-0.253300883,0.0414811616,-0.0337685938,0.00784301375
94634.218283,0.16464039,-0.690542472,0.561118142,-0.0134257599,0.0408449252,0.0249215987
94634.228310,-0.0216346807,-0.230011192,0.767048126,-0.0471267346,0.0699415584,-0.00195688672
94634.238337,-0.0184304048,0.755366092,-0.242151128,0.00954959734,0.0223202412,-0.0418390568
94634.248364,0.462484176,0.884360209,-1.1062323,0.109055149,-0.0794665735,-0.029691578
94634.258391,0.108949848,-0.599885501,-0.900883333,-0.0297562628,-0.0818389203,0.034602723
94634.268418,-0.259688381,-1.33736833,0.751108214,-0.0739093404,-0.016928894,0.0260768783
94634.278445,-0.424173279,0.892368378,0.839490262,0.0456727129,0.0303600584,-0.0287301774
94634.288473,-0.220486982,1.39936666,0.476520873,0.104108596,0.0476881829,-0.022601978
94634.298500,0.00278927416,-0.598611499,0.359469196,-0.0162833314,0.0299866837,0.00775140094
94634.308527,-0.146806609,-1.40710866,-0.0297516557,-0.0607432108,0.0229269103,0.0163944241
94634.318554,-0.241620371,0.0678691135,-0.668276354,0.00330714725,0.00319448321,-0.0185867298
94634.328581,-0.1196704,1.04982499,-0.958074123,0.0258316305,-0.0524245682,-0.0320460807
94634.338608,0.298307029,0.309924354,-0.315757047,0.0225085393,-0.0605807672,-0.0174564841
94634.348635,-0.33650106,-0.360346933,0.308493042,0.0298625921,-0.0407197098,0.00596681692
94634.358663,-0.733040564,-0.511960659,0.79782145,0.00520864415,0.0873391856,0.0161693868
94634.368690,-0.0320747531,-0.152400823,1.17929271,-0.0115607483,0.104278222,-0.0180519681
94634.378717,0.058002262,0.239327664,-0.264706074,-0.0173118449,0.0058603077,-0.0236643116
94634.388744,0.204115564,-0.174709466,-1.21574774,0.000846386486,-0.0942095663,-0.0259093578
94634.398771,-0.418522706,0.128176004,-0.722277408,0.00226318819,-0.0550557743,-0.0328684646
94634.408798,-0.281940179,0.390080133,0.650691445,0.0528842863,0.0349785131,-0.0444305773
94634.418825,-0.232456529,0.0938863061,0.709769657,0.0187755861,0.0448290114,-0.000599739247
94634.428853,-0.61540831,-1.15591381,0.233166875,-0.0665819179,0.0462322314,0.0358631973
94634.438880,0.0775483817,0.0807086437,-0.20603995,0.0552558322,0.0208051693,-0.0349417339
94634.448907,0.190788976,1.08686913,-0.92116858,0.0449217018,-0.0415317076,-0.0106515755
94634.458934,-0.223839653,-1.12026112,-0.476204799,-0.0824194755,-0.0337566096,0.0162902948
94634.468961,0.0796949653,-0.53297634,0.481996674,-0.0247252862,0.00179765523,-0.0276555914
94634.478988,0.0527417111,1.17382992,0.376496318,0.0498863664,0.0176866078,-0.0527489605
94634.489016,-0.149355344,0.229713009,0.159673184,-0.0299970134,0.0265647867,-0.031089739
94634.499043,-0.219278556,-0.609288376,0.106966845,0.00196331629,0.0121751944,-0.0134135393
94634.509070,0.0920097456,0.0276696686,-0.324453564,0.000444515469,0.00435455607,-0.0121535977
94634.519097,0.133828414,0.00651258828,-0.337285573,-0.0278148185,-0.0575085427,-0.000222901918
94634.529124,-0.154054754,0.0272717393,-0.302005585,0.023791384,-0.0453533451,-0.00861665244
94634.539151,-0.347269707,0.424722883,0.454140699,0.0114811883,0.0385330324,-0.0155190342
94634.549178,-0.426084227,0.170188223,0.746516795,-0.00377126847,0.0808032607,-0.0174080144
94634.559206,0.242992188,0.133052378,0.0969241747,-0.00662830792,0.0288266097,-0.00971227709
94634.569233,0.303626251,0.174351169,-0.737822768,0.00769550406,-0.0629698853,-0.012336556
94634.579260,-0.441106586,0.345775201,-0.953445879,-0.000867890304,-0.0666074972,-0.0139791948
94634.589287,-0.286062739,0.212456535,0.303362109,0.0153720659,-0.005646945,-0.0273277584
94634.599314,-0.177771291,0.163885853,1.0190624,0.0282146279,0.0331587759,-0.0169134635
94634.609341,-0.315073803,-0.395019895,0.940850449,-0.0436627585,0.10091199,-0.0157145086
94634.619368,0.23187502,-0.0300381934,0.6259159,0.0200951826,0.100849934,-0.0402683254
94634.629396,0.258980469,0.597493561,-0.921606387,0.0649348293,0.00138193576,-0.0257040273
94634.639423,0.166889922,-0.64611932,-1.56840265,-0.028956782,-0.0962125282,0.0126188601
94634.649450,0.423850129,-1.18512741,-0.432076903,-0.052254917,-0.0363039221,0.0155653813
94634.659477,0.192892232,0.285206988,0.54430963,0.0371050556,-0.0190333235,-0.0285797092
94634.669504,-0.309040295,0.828115467,0.204181019,0.0307234359,-0.00596739447,-0.0251893449
94634.679531,0.015674767,-0.688935402,0.821674619,-0.019513104,0.0477815871,0.000855571486
94634.689558,-0.0607385376,-0.929386372,0.845871487,-0.0327375624,0.0715279286,0.00136849646
94634.699586,-0.207381636,-0.116505361,-0.161671816,-0.0478605907,0.025643528,-0.0151367114
94634.709613,0.291033458,0.0783456775,-0.510644829,-0.0547512527,-0.0412018146,-0.0270849812
94634.719640,0.226859676,0.349317477,-0.281049891,0.0368622859,-0.051025949,-0.0414660509
94634.729667,0.0246284002,0.018514574,0.537723238,-0.0428104381,0.0403907825,-0.0252830881
94634.739694,-0.119784016,-0.781697199,1.32352407,-0.00892890331,0.0773900826,-0.0194861862
94634.749721,-0.299646662,-0.362179263,0.0424882357,0.0365549569,0.10105946,0.019580257
94634.759748,0.533750912,-0.897079701,-0.424282304,-0.0292022153,0.0768760894,0.0602959943
94634.769776,0.563689392,-0.765520044,-1.09705355,-0.0967948417,-0.0796498726,0.0410993983
94634.779803,0.00924743732,0.508569041,-1.72249782,0.0228274298,-0.106821835,0.0135718993
94634.789830,0.12357042,1.23948663,-0.266394174,0.0873619486,0.0054511749,-0.016363361
94634.799857,0.664573486,-0.347151059,1.18339547,-0.00815339007,0.0416185003,0.0387981598
94634.809884,0.622821965,-2.05713748,0.845821803,-0.135159006,0.0266249035,0.0810313661
94634.819911,-0.0233722451,-0.405291552,-0.150136277,-0.0868093203,-0.0309827323,0.0337887545
94634.829938,-0.344176417,2.11949442,-0.938900052,0.106779853,-0.0517543252,-0.0245019804
94634.839966,0.174743851,1.45540975,-0.218743365,0.0727774073,-0.0111893206,-0.00250507157
94634.849993,0.236299705,-1.17826483,0.998186201,-0.0470451321,0.0235297777,0.0572735731
94634.860020,-0.326831753,-1.49312398,0.668156959,-0.118340617,0.0853039254,0.0612573986
94634.870047,0.373465949,0.496192557,-0.0604028145,-0.013951092,0.0145043251,0.00036768046
94634.880074,0.144575068,1.81787133,-1.38578165,0.0818822254,-0.0981849428,-0.0148237889
94634.890101,-0.126326278,0.400695014,-1.03603356,-0.00155274587,-0.0684257145,0.0103806331
94634.900128,0.333412902,-0.617618397,0.850952152,-0.0034670261,-0.0359535213,0.0337304314
94634.910156,-0.632003179,0.0775828673,0.70260751,0.0371983778,0.0209214785,0.033421236
94634.920183,-0.6864511,0.188961531,0.679833369,-0.0333753917,0.101527371,0.0311090824
94634.930210,0.373171496,-0.181441898,0.719809405,0.00166861382,0.0715220724,0.0288544473
94634.940237,0.169857248,0.346929339,-0.96691677,0.0601561573,-0.0173537391,0.0222490103
94634.950264,0.171402577,-0.187328527,-1.25903801,-0.0336105469,-0.0255714557,0.0415372205
94634.960291,0.440172464,-0.708871032,-0.398468064,0.00260604645,-0.095379829,0.0419747782
94634.970318,-0.17697773,0.0550680157,-0.435271315,0.0273324326,-0.0845844443,0.0370612469
94634.980346,-0.167696983,-0.314696942,0.897755404,0.0133977077,0.0119599406,0.0496028726
94634.990373,-0.185134733,-0.588814364,1.49440963,0.0115971445,0.111162954,0.0477767427
94635.000400,0.145136209,-0.494582129,0.663268603,-0.0674018021,0.0724866693,0.0600211573
94635.010427,-0.15572466,-0.446149595,-0.853156536,-0.0515485349,-0.0485465448,0.0477964495
94635.020454,-0.130030247,0.9164688,-1.5306706,0.0914999638,-0.0837218459,0.0120064932
94635.030481,0.359170005,0.502046872,-0.31443895,0.0178712868,-0.0346829291,0.0601990585
94635.040508,-0.215495822,-1.42209317,0.926005931,-0.112169003,0.0520242681,0.0882277627
94635.050536,-0.130481059,-0.04275765,0.651537248,0.0163895041,0.0293202889,0.0350265902
94635.060563,0.158197205,1.45752776,-0.616010744,0.0521429722,-0.0540334578,0.0308033516
94635.070590,-0.217384851,-0.0999767078,-0.362372083,-0.00437356618,-0.030000824,0.0534066659
94635.080617,-0.370705235,-0.402828961,0.539461021,0.00294293633,0.036318012,0.034075844
94635.090644,-0.176594576,-0.0288323476,0.542164435,-0.00599569774,0.0738480766,0.0623634075
94635.100671,0.284390805,-0.577907917,0.0292289411,-0.0342632885,0.0297309481,0.0653088604
94635.110699,0.407641191,0.137032771,-0.911859485,-0.0216516218,-0.0449464838,0.0481035103
94635.120726,-0.0153439831,0.657724341,-1.22220437,0.0108109797,-0.0916548665,0.0346761186
94635.130753,-0.367277306,0.700708985,-0.647273313,0.0455852058,-0.0803084742,0.0181022015
94635.140780,-0.451146115,0.0162925734,0.330966155,0.0238354356,-0.0834304909,0.048855855
94635.150807,-0.899623165,-0.964409974,0.897222905,-0.015497324,-0.0218350399,0.0817655985
94635.160834,-0.930126074,-0.592810485,1.69070786,-0.0450903717,0.124846548,0.0720264231
94635.170861,-0.514510187,0.727956472,1.38834989,-0.0119356121,0.163842679,0.016330934
94635.180889,-0.0281378521,1.31487169,-0.435480574,0.0636747275,0.0721979816,0.00374456857
94635.190916,0.231468485,-0.0172442605,-1.78519832,0.0319420975,-0.075745679,0.0307242562
94635.200943,-0.0926711145,-1.50788403,-1.52128727,-0.0695664193,-0.097263753,0.0845962752
94635.210970,-0.160288314,-0.841444396,-0.176198354,-0.0348110999,-0.0605736482,0.0562149686
94635.220997,-0.347031441,0.904427942,0.357104805,0.0575414655,-0.037369791,0.041796348
94635.231024,-0.605714307,0.0730086227,0.680013986,0.00473284681,0.018797074,0.0762193044
94635.241051,-0.591963429,-0.750920587,1.07000231,-0.0277507938,0.0888155703,0.0740554844
94635.251079,-0.554381302,-0.0412355459,0.289640457,-0.0224769357,0.0729103763,0.0657549416
94635.261106,-0.0486754671,0.566411537,-0.839687398,-0.00507024902,-0.00112843062,0.0329077792
94635.271133,0.289683504,0.73705514,-1.15521699,0.0513959546,-0.076562732,0.024251175
94635.281160,0.0538970187,-0.0223310896,-0.823874327,-0.0270498487,-0.0670299526,0.0380394262
94635.291187,-0.369902394,-0.722094817,0.280360003,0.0234828331,-0.0743544395,0.0541523498
94635.301214,-1.23489484,-0.281180092,0.249192712,-0.0603401642,0.00726052651,0.0689131831
94635.311241,-0.434523627,0.00695521063,1.48139116,-0.0117566473,0.0924755563,0.0440512475
94635.321269,0.299335568,0.988129211,1.02368538,0.0789410268,0.0769218956,0.0283367288
94635.331296,-0.354265118,0.136894988,-0.592647404,-0.0295074134,0.0173512441,0.0679965232
94635.341323,-0.596243298,-0.793354538,-0.810649519,-0.0536337923,-0.0160301491,0.0561699596
94635.351350,-0.041394224,0.639559739,-0.784187044,0.0588325654,-0.0301544885,0.0244698216
94635.361377,0.335719864,0.396020228,-0.312815733,0.00287236256,-0.0247796974,0.0383890969
94635.371404,0.264471614,-0.902417993,0.329264027,-0.0384079683,-0.0369213145,0.0563627732
94635.381431,-0.698289934,-0.842513925,0.0781703744,-0.0214500203,-0.0163939367,0.0715925907
94635.391459,-1.01915497,-0.250581723,0.000653419485,0.00267182646,-0.0270425859,0.0592246045
94635.401486,-0.534440045,-0.160686293,0.53696862,0.014047253,0.0332876001,0.0968662565
94635.411513,0.366278522,-0.615281844,1.37183481,-0.0333197321,0.127707571,0.0858208005
94635.421540,0.227002007,0.0796883242,0.536551271,0.0191128515,0.093830571,0.089699692
94635.431567,-0.504615839,-0.107631424,-1.5551042,-0.0905428062,-0.0492770518,0.0881215026
94635.441594,0.0733908237,-0.0824086741,-1.50788652,-0.0639820378,-0.0772160064,0.063183396
94635.451622,0.448042029,1.06340672,-0.538118526,0.054980835,-0.0741112973,0.0328217585
94635.461649,-0.649031543,0.765498414,-0.139079461,0.0441739951,-0.0568292435,0.0693211843
94635.471676,-0.24125088,-1.09861342,1.03758005,-0.0628533866,0.0149440127,0.130311831
94635.481703,0.0256704566,-0.835569878,1.83758009,0.00253653789,0.119956717,0.134434937
94635.491730,0.186078607,1.07270113,0.625918823,0.027054133,0.158821822,0.0839698975
94635.501757,-0.078688328,0.996231635,-1.02328748,-0.0490656699,-0.00821084112,0.0719441314
94635.511784,0.048549374,0.255053513,-2.1861663,0.0351458807,-0.223985478,0.0418040705
94635.521812,-0.0667899466,0.540797532,-1.16653918,0.0546798986,-0.16858986,0.0523166311
94635.531839,-0.699183594,-0.930653981,1.93588031,-0.00450885476,-0.0168354879,0.0913375382
94635.541866,-0.668442127,-1.08118349,2.85659522,-0.0271015148,0.287596316,0.0738786523
94635.551893,-0.202178368,-0.122618866,1.88845513,-0.00363081059,0.276604385,0.0731494789
94635.561920,0.0756634448,-0.460880752,-1.67083895,-0.0898980554,0.0963110407,0.0664143403
94635.571947,1.49800087,-0.603753429,-2.87973718,-0.0217869095,-0.181916847,0.0611636554
94635.581974,0.241987541,-0.0872459033,-3.256482,-0.0454898457,-0.319609999,0.069520383
94635.592002,-0.430651973,-0.331140858,-0.477007347,-0.0219424385,-0.222793176,0.0794111033
94635.602029,-1.31084162,0.12391325,2.0535773,-0.0399280991,-0.0375226583,0.0928962816
94635.612056,-1.11519571,0.63332837,3.02800802,-0.0228188857,0.23014474,0.0783096169
94635.622083,0.713599968,0.995916212,3.1012907,0.0124168657,0.278354615,0.0199328595
94635.632110,0.200000311,1.10061051,-0.193040768,0.0642947127,0.123891004,0.0252610472
94635.642137,-0.640809147,-0.314960708,-2.72580802,-0.0497828591,-0.0465616915,0.0646864836
94635.652165,-0.074904864,-0.502811576,-2.25508786,-0.054657245,-0.143890902,0.0355632183
94635.662192,0.211382413,0.63687576,-0.912449852,-0.0183698087,-0.115633972,0.0253278901
94635.672219,-0.199551819,0.495994367,0.55918279,0.0904332344,0.0615862985,0.0447953706
94635.682246,0.513778529,-0.0839755307,1.35328208,-0.00663419387,0.136841909,0.0532969785
94635.692273,-0.376166715,-0.469046523,-0.225477057,-0.142808279,-0.0817335765,0.0476755788
94635.702300,-0.582216819,0.532252151,-1.66662747,0.0298662931,-0.123461313,0.0257223424
94635.712327,0.498062635,1.83532852,-0.085985584,0.177258948,-0.0730929445,-0.00874322477
94635.722355,-0.649486667,0.125123795,1.17383503,-0.0168708506,0.0709648882,0.04402092
94635.732382,-0.428358967,-1.78107597,1.70978783,-0.0789443459,0.138719708,0.054934821
94635.742409,0.0709692956,0.144409182,-0.0779086606,0.00925209473,0.03058737,0.0010489527
94635.752436,-0.33103125,0.548284782,-1.8359845,0.0875713994,-0.105000011,0.0539007177
94635.762463,0.127750921,-1.33908039,-1.04777836,-0.0939113106,-0.0435369234,0.0946958204
94635.772490,0.184700889,-0.79570512,0.839703612,-0.0752297621,0.00244441673,0.0671518062
94635.782517,-0.26546163,1.39637976,0.0471246633,0.0816471968,-0.0445880736,0.0167243172
94635.792545,-0.292719201,0.85462938,-0.328936847,0.0620985348,-0.0172142401,0.0473272343
94635.802572,-0.116690142,-1.43927227,1.02494561,-0.0994014125,0.0504865092,0.0820625787
94635.812599,0.272025536,-0.879608999,1.0450631,-0.0337243992,0.0875699674,0.0490977046
94635.822626,0.440256197,1.01780502,-0.343753892,0.031528907,0.0172926043,0.0269987945
94635.832653,0.101760155,0.463505252,-1.24120834,0.00760333153,-0.0859016846,0.0567777295
94635.842680,0.73657197,-0.411629997,-0.451117119,-0.0485619362,-0.0455337609,0.0494183515
94635.852707,0.303580805,0.659883857,0.765216819,0.0733762179,0.0275902492,0.0183049057
94635.862735,0.147015447,0.801560857,0.254385019,0.0466615204,0.0518913273,0.0165386972
94635.872762,0.452712797,-1.09461274,0.00850237942,-0.0645555462,-0.0279457136,0.0748254423
94635.882789,0.0590706219,-1.42426452,-0.387230046,-0.107328316,-0.0974510159,0.0578368668
94635.892816,-0.132618217,1.08940494,-0.178162932,0.0842991789,-0.0524992603,0.00845839911
94635.902843,-0.041173567,1.42832344,0.886276563,0.0432414879,0.0432325904,0.00254271961
94635.912870,-0.209964053,-0.385168472,1.46223988,-0.0185936502,0.0510042277,0.0390179072
94635.922898,-0.367837863,-0.593625601,0.621985575,-0.123673728,0.132245288,0.0174646777
94635.932925,0.322819612,0.490489486,0.460489191,0.11127487,0.200232864,-0.00393435463
94635.942952,1.33934556,0.585713034,-1.78105055,0.102135966,0.0390495662,0.004361126
94635.952979,0.774989087,-1.48926993,-2.64816539,-0.155731803,-0.220040842,0.0656282072
94635.963006,0.734749139,-1.67087562,-1.66567236,-0.0411437023,-0.233054384,0.088591053
94635.973033,0.45148289,1.1286143,0.443850191,-0.000466845429,-0.115595936,0.0255588245
94635.983060,-0.516614904,1.35180704,2.04521279,0.0409551655,0.0275732041,0.0187635002
94635.993088,-0.369627304,0.250965221,2.07576984,0.0980602597,0.165172354,0.0407817204
94636.003115,0.335859126,-0.589668826,1.24077389,-0.0511119123,0.134713769,0.0675177266
94636.013142,0.523687198,-1.02287225,-0.41458041,-0.122232696,0.00473766492,0.0738773559
94636.023169,0.354668018,0.832635283,-1.6776346,0.0485907142,-0.0985591631,-0.00054921034
94636.033196,-0.309056807,2.0511717,-1.73847865,0.0783374254,-0.140762537,-0.0254178058
94636.043223,-0.116707824,-0.698638027,0.542864692,-0.112366481,-0.0425885725,0.0312555906
94636.053251,0.453030704,-1.09734523,2.31277009,0.0261815433,0.0952595775,0.00453742723
94636.063278,0.13050285,0.9703086,1.12060321,0.0582185742,0.180470884,-0.000799814344
94636.073305,0.365553277,-0.579934819,-0.0876643309,-0.129787808,0.0996207674,0.0463317473
94636.083332,0.612397747,-0.506650351,-1.62427769,-0.0625179651,-0.123981699,0.00883044292
94636.093359,0.471093818,1.83650311,-2.28964188,0.124035934,-0.211089164,-0.0142346622
94636.103386,0.168177186,0.540264156,0.0763788148,0.0573860687,-0.0661255862,0.0475797047
94636.113413,0.168687619,-1.26737636,2.66744628,-0.0832642596,0.119797945,0.0570333925
94636.123441,-0.256261986,0.117123535,1.85410394,-0.00760704645,0.183570266,0.016923257
94636.133468,0.0535097729,1.27750496,-0.598947966,0.0166676678,0.0174835534,-0.0106207525
94636.143495,0.0902178937,0.438411509,-1.77730844,0.0127413683,-0.112716525,0.00413848589
94636.153522,0.677104101,-0.249075739,-0.655606842,0.0508288351,-0.0728751044,0.0102760064
94636.163549,0.195845748,-0.291332726,0.883051171,-0.0413112137,0.0915521909,0.0149237559
94636.173576,0.226897378,-0.213588976,1.19472701,-0.0556672494,0.0931783174,-0.0251986283
94636.183604,-0.128568065,0.66395001,-1.00170225,0.059329642,-0.0829250734,-0.0297220099
94636.193631,-0.022320398,-0.344926953,-1.47109437,-0.00538304069,-0.044752657,0.0301458527
94636.203658,0.544784785,-1.09173638,0.672751886,-0.0290654655,-0.0112708626,0.00673879579
94636.213685,-0.155439705,0.30276113,0.492684072,-0.0138819869,-0.0218502707,-0.000815260329
94636.223712,-0.257408745,0.0480642378,0.435090546,-0.00217872549,0.0208031838,0.00380186214
94636.233739,-0.321127111,0.213161797,0.602116507,0.0160333031,0.0503008892,-0.0147302766
94636.243766,-0.298323305,0.329227386,0.214628763,-0.0198717005,0.0709214811,-0.0178056966
94636.253794,0.248409829,-0.432119426,-0.242078063,0.00906434196,0.0259470795,-0.002398776
94636.263821,0.370681579,-0.717531674,-0.962171037,-0.00573910534,-0.0495988126,0.0227838092
94636.273848,0.1210995,-1.07394265,-0.821861234,-0.061969621,-0.0458954196,0.0459802103
94636.283875,0.315147031,-0.261434431,0.0641061932,-0.0383612308,-0.0575534064,0.0128510174
94636.293902,-0.561057346,0.810244953,-0.0259347277,-0.0105791343,-0.0768735702,0.00981847559
94636.303929,-0.581894163,0.336447656,0.640449453,0.0565716755,0.0201102295,0.00493157505
94636.313957,-0.416360778,-0.0885848329,1.30525601,-0.00613911211,0.139821992,0.0263372649
94636.323984,0.163535643,-0.923417235,1.02071017,-0.0350687634,0.127602339,0.0491301966
94636.334011,0.35704103,-0.545825154,-1.02514918,0.012085964,-0.0239842623,0.0508122471
94636.344038,0.0421307391,-0.260493259,-1.98541401,-0.0670655798,-0.0974669974,0.0624731657
94636.354065,0.427578648,-0.015859181,-0.575087198,-0.0294460318,-0.092208318,0.022717229
94636.364092,-0.0669550009,1.23891672,0.256567624,0.0539740269,-0.0665578167,-0.00290797196
94636.374119,-0.402741565,0.398870868,1.02210776,-0.0296617485,0.0340380301,0.0155131136
94636.384147,-0.0747325761,-0.434802381,1.97658934,-0.00373294617,0.162680969,0.0102962469
94636.394174,0.438672581,0.288860706,0.763642702,0.0224951972,0.144331515,0.00790419512
94636.404201,0.229416229,-0.0988329172,-1.46507497,-0.0413184035,0.00338637687,0.0277399522
94636.414228,0.74872418,-0.263610277,-1.92787836,-0.0324996132,-0.151251658,0.00366044826
94636.424255,0.55893606,0.842734725,-1.29944134,0.0133704069,-0.153631195,-0.00575116287
94636.434282,0.233728247,0.808420806,0.658591843,0.0961225425,-0.00544546407,0.00126733155
94636.444310,0.351727726,0.00590157796,1.91074821,-0.0235434025,0.147466585,0.00273313549
94636.454337,0.365939499,-0.79341321,1.16142855,-0.0645009558,0.0694127981,0.0260057029
94636.464364,0.636189396,-0.243332957,-0.902120765,-0.0183494388,-0.0415275689,-0.0105930568
94636.474391,0.150084626,0.915152822,-1.44015797,0.0665188451,-0.126597181,-0.0227005827
94636.484418,-0.0558817452,0.249206997,-0.483259394,0.0550086629,-0.017147928,0.00941580524
94636.494445,0.635718563,-0.992526865,1.43107844,-0.0443496126,0.0922842924,0.0314601202
94636.504473,0.229041696,-0.666798608,0.72289685,-0.0646903049,-0.00220173413,0.0107343363
94636.514500,-0.265504593,0.584859121,-1.11673967,0.0830288474,-0.0987285371,-0.0093642735
94636.524527,-0.0803935245,0.485510346,-0.447072812,0.0486130845,0.00889672383,0.0142028377
94636.534554,0.415651625,-0.981228495,1.41958148,-0.0893256123,0.10840121,0.029591116
94636.544581,0.364032351,-0.365792704,0.408668403,0.01991486,0.0158337247,0.00696436585
94636.554608,0.322304502,0.584981249,-1.46441153,0.0618239586,-0.0691282968,0.0190865424
94636.564636,0.327729157,-0.715916202,-0.644776236,-0.0473033245,-0.0551283318,0.0432768342
94636.574663,0.0091974607,-0.567630524,0.34464689,0.00713594683,-0.039397839,0.0131495575
94636.584690,-0.17958835,0.451961968,0.360025076,-0.00072357413,-0.00118467272,0.0301013765
94636.594717,0.0516935173,-0.352608155,0.945884936,0.00619585073,0.0113175367,0.0480609377
94636.604744,-0.453928366,-0.0705059453,0.461709673,-0.0193364061,0.0469389115,0.0486969006
94636.614771,-0.167590454,0.283502138,0.445900694,-0.0746119152,0.12422172,0.0110240885
94636.624798,0.767008025,1.07012463,-0.117450397,0.0802040343,0.0173599818,-0.0341055702
94636.634826,0.287260369,0.712278792,-1.95713192,0.0672991519,-0.122303105,0.010740728
94636.644853,0.00451792458,-1.48738383,-0.965575293,-0.0524581391,-0.082518145,0.080435655
94636.654880,0.128445771,-0.980846656,0.876639551,-0.0482921581,0.0159517028,0.0382463884
94636.664907,-0.173269523,1.25160318,0.593624573,0.074547479,-0.0171668357,0.000977047614
94636.674934,-0.206635567,0.654512539,-0.00166830146,0.00060921227,0.0164858852,0.0199845758
94636.684961,0.131472718,-0.680860232,0.897086126,-0.00697440508,0.0397675079,0.0160745223
94636.694989,-0.478153656,0.151572881,-0.074167136,0.0341378768,0.021149347,0.0058317379
94636.705016,0.0536246314,-0.0253514512,-0.507567321,-0.0151316672,-0.00417518432,0.0287248035
94636.715043,0.571627199,-0.641686817,0.0339472018,-0.0603870283,-0.0215978488,0.0174132929
94636.725070,-0.146391818,0.51278337,-0.24747963,0.0297780168,-0.0476289164,-0.0171934209
94636.735097,-0.551400167,1.08890042,-0.299119801,0.081934156,0.00212851816,-0.0135214544
94636.745124,-0.114642781,-0.37158612,0.647141644,-0.00459060998,0.0396942687,0.0270984107
94636.755152,-0.117442129,-1.24993219,0.609176947,-0.0762695949,0.0311910626,0.0474492227
94636.765179,-0.0103051121,0.109447512,-0.135053859,-0.0130490753,0.0303601571,-0.000758254074
94636.775206,-0.0906137436,1.54484466,-0.728624732,0.0440661442,-0.0495293471,-0.0424628268
94636.785233,-0.701844046,0.763457775,-1.08487796,0.0189863556,-0.078825451,-0.0161222975
94636.795260,-0.158177533,-0.53822816,0.383789398,-0.0275401323,0.0290147275,-0.00501984461
94636.805288,0.175958195,-0.0163706286,1.12625904,0.0701584612,0.0150816007,-0.00399426102
94636.815315,-0.591042296,-0.0678693588,-0.186397092,0.00395360968,0.0118021839,0.023351875
94636.825342,-0.424420459,-0.928175316,-0.00423669064,-0.0290818363,-0.0152781685,0.0221891393
94636.835369,-0.437830706,-0.10897176,-0.135885633,-0.0499429087,0.0114740827,-0.0112191505
94636.845396,-0.528164765,0.900233413,-0.201407614,0.0678548236,-0.0126067526,-0.0489215191
94636.855423,-0.397385591,0.617295957,-0.321519849,-0.025086563,0.0233685602,-0.0368448879
94636.865451,0.376004236,-1.02407658,0.547747204,-0.0285401493,0.00195860849,-0.00731415778
94636.875478,-0.226658072,-0.319473217,-0.19966457,0.0456485917,-0.0323996316,-0.0225642166
94636.885505,-0.439892972,-0.128524054,-0.262784751,-0.0148693462,-0.0172265372,0.0181810808
94636.895532,-0.422119415,-1.03104693,0.604963129,-0.0734197478,0.0449468237,0.0235441559
94636.905559,-0.134925617,0.328707746,0.452548461,0.0193797053,0.0276019205,-0.0119483239
94636.915586,-0.49196094,1.17677605,-0.69199216,-0.0277590453,-0.0319037508,-0.0102686687
94636.925614,-0.501121859,0.340982377,-0.424264184,-0.00726309179,-0.0285385805,-0.0130490094
94636.935641,0.0598389759,0.741314624,0.346142681,0.012032575,0.0395105113,-0.0465944494
94636.945668,0.0660109426,0.576930081,0.513234693,0.0799455736,0.0246165176,-0.0304013669
94636.955695,-0.450531051,-0.645144556,-0.467555628,-0.0454096775,-0.00918219287,0.0126816545
94636.965722,-0.323051065,-1.13294649,-0.137968285,-0.105860775,0.00227765527,0.00631403633
94636.975749,0.447961657,0.739513493,0.0849251094,0.00912999648,-0.0150600565,-0.0596782948
94636.985777,0.0708395318,1.41236512,-0.364870914,0.0362497662,-0.0388474087,-0.0608663271
94636.995804,-1.18611488,0.171654423,-0.406658384,0.0683168863,0.00787162499,-0.0342280652
94637.005831,-0.185675123,-0.81541929,0.541506263,-0.0292741171,0.0635873531,0.00522347157
94637.015858,0.875405417,-1.41186345,0.961505115,-0.126199072,0.0151055692,0.0316010182
94637.025885,-0.0592944762,0.0779939232,-0.197742662,0.00245717966,-0.0300946641,-0.00181233335
94637.035912,-0.618579633,2.15628832,-0.850173721,0.114564808,0.015163626,-0.0636179085
94637.045940,0.0164911248,0.676665846,0.152748353,0.00649213518,0.0499322605,-0.0246454767
94637.055967,0.364928861,-1.68957302,0.237798042,-0.0404873583,-0.0358396354,0.0258746882
94637.065994,-0.311461896,-0.733832674,-0.685039857,-0.0454291198,-0.0347320284,0.00131102175
94637.076021,-0.140800647,0.705147478,0.186136244,-0.0440091211,0.0282458742,-0.0325212414
94637.086048,-0.119772764,1.12319059,0.280939849,0.0708434228,-0.0223821509,-0.0703152279
94637.096075,-0.586194563,0.595916485,-0.506747821,0.0388724451,-0.0320169325,-0.0202669754
94637.106103,-0.28660744,-1.42124898,0.759477399,-0.0905547868,0.0751361479,0.0105567182
94637.116130,0.119898454,-0.324838032,0.990942806,0.013745254,0.0337029551,-0.0309515773
94637.126157,-0.72441872,1.03331429,-0.95118261,0.0400503632,-0.0511892955,-0.0141574173
94637.136184,-0.412399181,-0.400302073,-0.218403757,-0.144497653,-0.0133079621,-0.00714770994
94637.146211,-0.218470308,0.391990461,1.15433246,-0.0813218783,0.0459228721,-0.0765781785
94637.156239,-0.159162087,2.291784,0.464439975,0.148623446,0.0781577755,-0.151773081
94637.166266,0.0595832476,0.549339077,-0.230433802,0.0887779538,0.129674748,-0.0880974169
94637.176293,0.338359126,-2.60675932,-0.348354664,-0.043901531,0.0614653458,0.0129389156
94637.186320,-0.0607895371,-2.33434815,-1.7857466,-0.166907882,-0.128390088,0.0526455854
94637.196347,-0.26791633,0.430479839,-1.89261357,-0.0553643088,-0.140062183,0.0156225831
94637.206374,0.277061631,2.34037516,-0.199178833,0.0947101433,-0.108843006,-0.0795627843
94637.216402,0.0857703397,1.86160891,1.2193874,0.177592779,0.0358715695,-0.059417301
94637.226429,-0.176198708,-1.19701878,1.73508886,-0.0155021138,0.136855692,0.0122353089
94637.236456,-0.695197009,-2.05378437,0.663872998,-0.133643931,0.0751071204,0.0603450452
94637.246483,-0.222291912,0.132622398,-1.32470846,-0.0129159176,-0.0169975045,-0.0140660695
94637.256510,0.830691393,2.00271279,-1.60677827,0.103818955,-0.150066077,-0.0760812397
94637.266538,-0.502698826,0.459399169,-0.961893389,-0.021451082,-0.148747548,-0.0346011753
94637.276565,-0.422241434,-1.37170782,1.39949906,0.0181951319,0.0166651164,-0.0113174218
94637.286592,-0.77444108,-0.124249536,1.84854806,-0.0716253053,0.163551763,-0.0426806743
94637.296619,0.194064053,0.479725552,1.22310906,-0.0228990428,0.105115623,-0.0599787022
94637.306646,0.0768434483,0.782815751,-1.01082021,0.105975049,0.018312816,-0.0560870181
94637.316673,0.313247628,-0.0863479498,-1.58085297,0.0126142093,-0.0491589043,-0.0235586419
94637.326701,0.230438704,-1.4768693,-0.694910678,-0.113442531,-0.0376005168,-0.00235242221
94637.336728,-0.189488398,-0.229983591,-0.409633601,0.0616214332,-0.0890906076,-0.0242254987
94637.346755,0.0391515041,1.0244362,-0.412173933,0.0282051545,-0.0750251184,-0.015515362
94637.356782,0.113838423,-0.67536105,1.29532674,-0.0186070911,0.0204907474,0.037483937
94637.366809,-0.427520617,-0.258530398,1.24620468,0.0355405641,0.106975042,-0.00185707501
94637.376837,-0.241199442,0.900194469,-0.118445254,-0.0234287455,0.0219698683,0.00909437601
94637.386864,-0.372775027,0.121189872,-1.05733529,-0.0925886463,-0.0987653355,-0.00474953383
94637.396891,0.038293426,1.20520669,-0.555194749,0.051806355,-0.0477170679,-0.051410244
94637.406918,0.385936505,1.89223947,0.62925352,0.169545496,0.0596802276,-0.0829745616
94637.416945,0.200457991,-0.00861872438,0.86510518,0.0607055743,0.110587351,-0.0351580392
94637.426972,0.658861685,-2.11573025,0.206186513,-0.126294946,-0.0168582215,0.0163091448
94637.437000,0.424300211,-1.36582388,-1.00622704,-0.055741677,-0.122365742,0.0154212479
94637.447027,-0.563255513,1.55251812,-1.181123,0.0981544052,-0.0600522976,-0.0605398278
94637.457054,-0.165513575,1.50651289,0.478189683,0.0823879634,0.0283119199,-0.0662131618
94637.467081,0.355955646,-1.10362278,1.27798046,-0.0791511367,0.0342774023,-0.000998738327
94637.477108,-0.122313096,-1.43197904,0.507680566,-0.0883574168,-0.0015586283,0.00265378774
94637.487136,-0.143087297,0.939914047,-0.254495646,0.102849292,0.0256711286,-0.0626266833
94637.497163,-0.175402005,1.360402,-0.602207844,0.121492485,-0.00447425714,-0.0351351361
94637.507190,-0.0366202876,-1.59067367,-0.111292459,-0.116380794,0.00713259771,0.0326071595
94637.517217,0.615079242,-1.64348011,0.570016903,-0.0751508008,-0.0301599126,0.0172471114
94637.527244,-0.574279888,1.34730432,-0.57106861,0.0991549586,-0.0395108047,-0.0466021757
94637.537272,-0.168762421,1.01989564,-0.0109610305,0.0775561874,0.0555278291,-0.0201569862
94637.547299,0.0841908885,-1.34275791,0.690670989,-0.0821168329,0.0543022421,0.0302646429
94637.557326,-0.0658989891,-0.938892963,-0.39756147,-0.0904320161,-0.0646976526,-0.0203716374
94637.567353,-0.512307416,1.00530656,-1.24469209,0.0751470943,-0.103638656,-0.0268963828
94637.577380,-0.453646845,1.13055067,-0.192533988,0.0709976201,0.016794546,-0.0516081165
94637.587408,0.292364779,-0.19228456,1.49229425,0.0043317788,0.0391736221,-0.0087751682
94637.597435,-0.338280344,-1.02066348,0.593170984,-0.0273707564,0.029266397,0.00330945792
94637.607462,-0.10269961,-0.396949073,-0.0125269646,-0.0573294553,0.0317420703,-0.0131137232
94637.617489,-0.0777930597,0.653181802,-0.420762898,-8.66716956e-05,-0.0176212169,-0.0473273556
94637.627516,-0.626053842,0.98700408,-0.865108255,0.030017702,-0.0446070279,-0.0505910601
94637.637544,0.0876629485,0.140721753,-0.0225684661,0.0217824095,-0.0104961968,-0.0232675589
94637.647571,0.243305273,-0.313260955,0.81869648,1.82568682e-05,0.0259670061,-0.0161814197
94637.657598,-0.265079134,0.133899487,0.363655542,0.0243329183,0.0446565379,-0.0303840554
94637.667625,-0.155323239,0.0638212355,-0.329724198,-0.0147577598,0.00888336029,-0.0192472498
94637.677652,-0.0447943879,-0.508986246,-0.652099126,-0.00810265255,-0.0710504796,-0.0110869353
94637.687680,-0.167194733,-0.258970452,-0.599629518,-0.00144741352,-0.0697085108,-0.00513583618
94637.697707,-0.419550514,-0.0287927553,0.599528244,-0.0603906232,0.018415757,-0.0126326346
94637.707734,-0.288844186,0.52734034,1.10851471,0.0401716699,0.068483979,-0.0410466987
94637.717761,-0.0534730035,0.885804709,0.253158108,-0.00354704976,0.0518749174,-0.036504143
94637.727788,0.0494851936,-0.10688867,-0.177784162,0.0550297108,-4.60733645e-05,-0.0302063014
94637.737816,-0.0949118792,-0.290845326,-0.959482237,0.0453786832,-0.0319233123,-0.00722162436
94637.747843,-0.192373159,-1.24717193,-0.365231564,-0.128652504,0.0281679877,0.0326403034
94637.757870,0.271613668,-0.752094892,0.388751989,-0.0692480336,-0.0430252324,-0.00965042609
94637.767897,-0.225346989,1.70096783,-0.821363221,0.046797881,-0.0590846236,-0.0568994294
94637.777924,-0.312347081,1.35374955,-0.0112287415,0.124914246,-0.015010376,-0.0490609492
94637.787952,0.0272640094,-0.746913032,0.987735535,-0.0749456044,0.0334093575,-0.0173722628
94637.797979,-0.574488343,-1.89470834,1.08937045,-0.0945970695,0.0404616748,0.0348757607
94637.808006,-0.417758516,0.0726562382,-0.0200708041,0.026618043,0.0367295188,-0.047342145
94637.818033,-0.126071426,1.47566504,-0.313807082,-0.0141405714,0.00602167237,-0.0456060293
94637.828060,-0.354608817,-0.534291953,-0.21191498,0.0683284719,0.0584872779,-0.00401198223
94637.838088,0.705334536,-0.74388404,-0.048759723,-0.0613477621,0.0653550331,-0.0108805412
94637.848115,0.550450848,-0.893483284,-0.370739514,-0.0683201905,-0.0432356219,0.022427081
94637.858142,0.0746418466,-0.193146912,-1.56338161,-0.0130279026,-0.153935506,-0.0101271329
94637.868169,-0.277088721,1.23411619,-0.656173243,0.102561275,-0.107756562,-0.010086652
94637.878196,-0.363999015,0.0986701703,1.21361525,0.0303075854,0.0189113715,0.0232774288
94637.888224,-0.973118536,-0.982854928,1.90841889,-0.146852007,0.193831519,0.0248287198
94637.898251,0.138875103,0.441026331,1.18045766,-0.00374518887,0.103161805,-0.046427616
94637.908278,0.514400314,1.92143531,-1.45905147,0.136738965,-0.0522195283,-0.0687864508
94637.918305,0.245843486,-0.380173039,-1.36989961,0.00938366267,-0.0270065847,0.0274276984
94637.928332,0.375349863,-1.77774581,0.21582411,-0.0778172891,0.0217279312,0.021460886
94637.938360,-0.0622637013,0.330414696,-0.250129268,-0.0638455431,-0.0662344168,-0.0182993087
94637.948387,0.013557994,1.37688624,-0.71838157,0.104271287,-0.026516031,-0.0419164869
94637.958414,1.1580029,0.532574113,0.535964411,0.102985518,-0.0100403843,-0.0234898078
94637.968441,-0.724792521,-1.1251551,0.273287873,-0.0904585178,0.00433322878,0.0285273184
94637.978468,-0.44327202,-1.28802197,0.227272556,-0.0799446236,0.0131765217,0.0102167548
94637.988496,0.551165718,1.03904691,0.178932011,0.0743243118,-1.89091297e-05,-0.0533992398
94637.998523,0.403958045,1.05946543,-0.259097002,0.0710483585,-0.0316117215,-0.0254472318
94638.008550,-0.156905248,-1.32090176,0.0733924925,-0.0472713578,0.0618511182,0.0270982672
94638.018577,0.0935037835,-1.10831912,0.335321427,-0.0522599946,0.0509425443,-0.0105481782
94638.028604,0.577690883,0.566410404,-0.937012046,0.00264826191,-0.0589799616,-0.0209385018
94638.038632,0.713410363,0.296308063,-1.18766555,0.0853311513,-0.194005161,0.00865241409
94638.048659,-0.546583999,-0.425867526,-0.195720216,0.00235131948,-0.104136526,0.0467388135
94638.058686,-0.872956545,-0.46158269,1.92365737,-0.0703913327,0.106218577,0.0371751365
94638.068713,-0.0618983751,0.908030935,2.08215399,0.0431325716,0.197966084,-0.0271806839
94638.078741,0.354716679,1.3984022,-0.102724537,0.0881586318,0.0564339799,-0.0368942964
94638.088768,0.255120433,-0.702432451,-1.7458372,-0.022763621,-0.0581229585,0.0221378625
94638.098795,0.463203577,-1.39870134,-1.24138545,-0.0192722175,-0.0953986938,0.0328746614
94638.108822,-0.0580040711,0.0234129176,-0.5087539,-0.0245300959,-0.032453015,0.000948155194
94638.118849,0.628405756,0.28152598,0.480261229,0.000463937241,-0.054848868,-0.00267028167
94638.128877,-0.159374999,0.102398698,0.176870403,0.0541905482,-0.0702738981,0.0138927166
94638.138904,-1.03163086,-0.109949519,0.267459021,0.00911308552,-0.00599717304,0.0235256356
94638.148931,-0.477179039,-0.546784647,1.31439793,-0.0592808853,0.112788327,0.0310051245
94638.158958,0.70270258,-0.0569281046,1.28520866,-0.0248893573,0.0851188828,-0.0124928189
94638.168985,0.203109675,0.820981378,-0.701548509,0.077842081,-0.0511686462,-0.0110483208
94638.179013,-0.704964224,-0.30606655,-1.47223887,0.01317414,-0.067020319,0.0321084698
94638.189040,-0.29387407,-1.16953595,0.231574053,0.00171722082,0.0840269928,0.0631976788
94638.199067,1.22757854,-0.377877548,1.01686168,0.0115512098,0.0161768389,0.0494858649
94638.209094,-0.0183960641,0.25715412,-0.734077736,-0.0382357854,-0.118975922,0.079089566
94638.219122,-0.652733174,0.530201502,-0.42463594,0.0745277722,0.0399958868,0.04912101
94638.229149,0.179250441,1.59415245,0.902283111,0.081716979,0.185642302,-0.00416777759
94638.239176,0.462278059,0.550433667,-0.399367643,0.0278862399,-0.0155113158,0.00295990695
94638.249203,0.635037084,-1.54677169,-1.89351724,-0.0901796799,-0.150113865,0.0642653395
94638.259230,0.747053032,-0.973201914,-0.594913596,-0.0400041248,-0.163486927,0.0226510529
94638.269258,-0.489335048,1.10886849,0.368061668,0.0719271992,-0.0598963569,-0.0146044382
94638.279285,-0.718251868,0.407745846,1.42109013,0.00151695108,0.0749663864,-6.83731516e-05
94638.289312,-0.192782544,-0.980468982,1.90487785,-0.0171440858,0.110934236,0.0329247293
94638.299339,0.567772131,-0.944424951,0.660444777,-0.0405854936,0.062424228,0.0404984941
94638.309367,0.330879365,-0.212565807,-0.67446644,0.00450901228,-0.0736537199,0.0271478024
94638.319394,-0.709366404,0.382133705,-1.56721841,0.0387175847,-0.0642141397,0.0287174684
94638.329421,-0.507922845,-0.210129283,-0.166803919,-0.0980605091,0.0215399121,0.040625262
94638.339448,-0.0469260661,0.181638568,0.745908892,-0.0135994171,0.0347577152,-0.000173567899
94638.349476,0.461484863,1.47650675,-0.121417547,0.0353574735,0.0117200385,-0.031312843
94638.359503,0.430125264,0.730582802,-0.239451806,0.0636418407,-0.0659185644,-0.0209222558
94638.369530,-0.216961949,-0.661909521,-0.291175564,-0.0339062865,-0.022056568,0.0299204168
94638.379557,-0.616886273,-0.923496364,0.695643517,-0.0945640411,0.0415895213,0.015679431
94638.389584,-0.366500038,1.06895434,0.35868126,0.00800121582,0.00649438377,-0.0332966345
94638.399612,0.241174983,1.73365605,-0.0886352218,0.0728531797,0.00709998652,-0.0353595178
94638.409639,0.338967833,0.216070853,0.564141873,-0.00455665396,0.0506661054,-0.00106546107
94638.419666,-0.19042904,-0.204749434,0.283623973,-0.04187393,0.00906966019,-0.0332303207
94638.429693,-0.514997678,0.55426203,-0.600548387,0.0510765147,0.0494248089,-0.0254935707
94638.439721,0.864254128,0.0629570884,-0.120303449,-0.0251540746,0.0417631608,-0.0399904895
94638.449748,0.535970268,-0.0961549028,-0.602968892,0.0925150309,-0.0365353744,-0.016595685
94638.459775,0.148426848,-0.814330764,-1.32560921,-0.0712142493,-0.0664072554,0.00817331102
94638.469802,-0.292830772,-1.00367538,-0.179244298,-0.113793133,-0.138746693,0.0042078643
94638.479830,-0.169460705,0.701987918,0.385539457,0.0924351384,-0.0514354925,-0.037034114
94638.489857,-0.145303292,1.17948801,1.49515957,0.0861961488,0.0853852038,-0.0430099788
94638.499884,-0.311341776,-0.948492055,1.84251287,-0.0792684461,0.163958848,0.00930808381
94638.509911,-0.037287154,-1.41769888,0.492067402,-0.078190131,0.13641724,0.0144391962
94638.519938,0.354651797,0.845992412,-1.61667715,0.0342005958,-0.0741887461,-0.0309578451
94638.529966,0.165144759,1.00270784,-2.33610611,0.0293669571,-0.185673192,0.00525848138
94638.539993,0.207448362,-0.484666665,-0.0641379094,-0.0157216898,-0.047286022,-8.40864261e-05
94638.550020,0.235272773,0.162506984,1.87295945,0.039725056,0.132137537,-0.0339046317
94638.560047,0.0574910246,-0.0199087875,0.847823791,0.0129491026,0.132849932,-0.00154802586
94638.570075,0.292123445,-1.25576162,-0.976815064,-0.0840347017,-0.0366229932,0.0159002066
94638.580102,0.102248815,-0.658284316,-1.74671281,-0.0483302343,-0.177095949,0.0106830745
94638.590129,0.221312417,0.895868276,-0.630230993,0.055470733,-0.103958092,-0.0100810603
94638.600156,0.790527213,0.621030322,1.70199381,0.0847862755,0.046035402,0.00148797816
94638.610184,-0.500466976,-0.509006851,1.62497019,-0.0723120029,0.11875248,0.0332815935
94638.620211,-0.196211276,-0.486766633,0.583897544,-0.0617102216,0.0890694191,-0.00335311621
94638.630238,0.272971658,1.21192788,-0.918417236,0.0505657215,-0.0365454923,-0.0424627002
94638.640265,0.700527209,0.476625869,-1.13586873,0.0625765715,-0.0495638247,-0.00696063425
94638.650292,0.838753265,-1.08870454,0.169954924,-0.0529819745,0.0117019289,0.00440680272
94638.660320,-0.19474683,-0.627912559,0.201172485,-0.0215329751,-0.0126167261,0.0100092943
94638.670347,0.00658165218,0.351129312,-0.568502559,0.024334116,-0.0328626069,-0.00369906063
94638.680374,0.470715048,0.300384902,0.139532313,-0.0026899678,-0.0138012697,0.0239359279
94638.690401,0.292635924,-0.145695562,0.622734932,-0.00851296906,0.0388076124,-0.00769416998
94638.700429,0.0698397071,0.828694071,0.0472836532,0.0398188774,0.012494517,-0.0289888057
94638.710456,-0.377302368,0.182983699,-0.767277995,0.0252218247,-0.0316702831,-0.00523980159
94638.720483,0.6300289,-0.869019436,-0.344357119,-0.0443258266,-0.0535817067,0.0181491439
94638.730510,0.516684188,-0.61950443,0.616792683,-0.0851254593,-0.0224629357,0.0110771199
94638.740538,-0.28325908,0.835915766,0.462573596,0.0846827496,0.0169427939,-0.0233397084
94638.750565,-0.616661452,1.53101751,-0.187919187,0.0753912498,0.0766162504,-0.0263349648
94638.760592,0.339115498,-0.374276747,0.100753378,-0.0486092548,-0.0313725393,0.0123834004
94638.770619,0.445590836,-0.854625949,-0.467799374,-0.00898621318,-0.0764340232,0.0179001381
94638.780647,-0.155202536,0.516855625,-0.161354421,0.056950992,0.0061436761,-0.0087487829
94638.790674,-0.29571641,0.720452892,0.430958561,0.014267711,0.0403594379,-0.0179324272
94638.800701,0.0473088724,-0.282481621,0.111401613,-0.0295346304,-0.0109639378,0.000578938879
94638.810728,0.267120083,-0.363856914,-0.292006754,0.0362052341,-0.0526530626,-8.47206567e-05
94638.820756,-0.34001316,0.432997557,-0.319479283,0.0355631468,-0.0265972275,-0.00734130117
94638.830783,-0.638901341,0.0227892008,0.376009412,-0.0336396265,-0.0032721963,-0.00506483215
94638.840810,-0.227192105,-0.117944007,0.733849036,-0.0109793227,0.0289704283,-0.0186608034
94638.850837,-0.00201622643,0.458541748,0.624169933,0.0166118257,0.0660339077,-0.0360917236
94638.860865,0.139400223,0.483394377,0.0695095136,0.0890508686,0.0883264323,-0.0328594457
94638.870892,0.0953887935,-0.294684265,-1.01377205,-0.023519881,0.000478600014,-0.0104223137
94638.880919,0.00766710933,-1.1535115,-1.4337294,-0.0776004325,-0.145732134,0.00865524159
94638.890946,0.398828208,-0.174431033,-0.846023615,0.0553762634,-0.122578881,-0.00610426358
94638.900974,-0.120626239,0.843913048,0.618706407,0.0401195493,-0.0135940756,-0.0304511461
94638.911001,-0.683064527,-0.0832803424,1.5297697,-0.0188162065,0.0404976536,-0.0074973629
94638.921028,-0.572510687,-0.542376073,0.955763356,0.0258463361,0.0289919995,0.00576411363
94638.931055,-0.561717125,-0.119366696,0.244286235,-0.0406200382,0.0796104376,0.0148060777
94638.941083,0.246012413,0.170238309,0.539084589,-0.0111116822,0.102689125,-0.0326852734
94638.951110,-0.0596191051,1.26890328,-0.887934419,0.0772456099,-0.00157309919,-0.0511742692
94638.961137,0.0142687726,-0.034810052,-1.7631519,0.00372878282,-0.102016344,-0.00837886903
94638.971164,0.382312834,-1.34350523,-0.486989812,-0.0431154202,-0.0983244027,0.0179139868
94638.981192,0.029300849,-0.411428264,0.902748974,-0.0412317681,0.0372866806,-0.018700217
94638.991219,-0.198208441,1.07671372,0.940334901,0.112126889,0.0389133398,-0.0555474433
94639.001246,-0.614150711,0.485591924,-0.497122499,0.0115073445,0.037886959,-0.0214707042
94639.011273,0.487230057,-1.79611134,0.082272549,-0.112458816,-0.043500043,0.0281719518
94639.021301,-0.462419277,-0.397842697,-0.568907632,-0.00753931788,-0.112771786,-0.00531916331
94639.031328,-0.791034268,1.707678,-0.21321028,0.0324043688,0.0121285985,-0.0343289758
94639.041355,0.083860999,0.896347146,1.80205578,0.0637918506,0.119077154,-0.0352389786
94639.051382,0.0926182328,0.0098155411,0.77407934,-0.022757152,0.0869810064,-0.0185801062
94639.061410,-0.289300625,-0.653227252,-0.697368593,-0.0378993544,0.000703104459,0.00751940337
94639.071437,-0.0235046393,0.0583547959,-1.30967339,0.0126394537,-0.0827800702,-0.0425861078
94639.081464,-0.324796155,0.8061476,-1.05610721,0.0169766788,-0.0504415739,-0.0372685726
94639.091491,0.0488236609,-0.518866456,0.544618842,-0.0229736678,0.00255932773,-0.00658549658
94639.101519,-0.185146569,-0.31122744,0.717787544,0.00254873612,0.0167174903,-0.0258348222
94639.111546,-0.311979051,0.374271629,0.0622345541,-0.0130304889,0.0017318836,-0.0199958432
94639.121573,-0.391406808,0.00376914393,0.0174993403,0.000439512724,-0.0237500402,-0.0204477842
94639.131601,-0.520211029,0.169730085,0.0286718917,0.00835789001,0.0194933028,-0.0293400782
94639.141628,-0.375675132,0.309219092,0.365094634,0.00143287186,0.0465717916,-0.0370097133
94639.151655,-0.273097678,0.00169542237,0.191420906,0.0219583866,0.0591584225,-0.0209231573
94639.161682,0.415796367,-0.241919181,-0.374990742,0.0299207066,-0.03717903,-0.0104257745
94639.171710,-0.0895370543,-0.612546063,-0.826507598,-0.0482449363,-0.0470947768,0.0239369933
94639.181737,-0.539901672,-0.353074129,-0.155855239,-0.0320124346,-0.0310380492,-0.0242292035
94639.191764,-0.357456243,1.0842824,0.319828675,0.0430724603,0.0057135755,-0.0466737944
94639.201791,0.11086686,0.397647025,0.679247093,0.085403936,0.0412478675,-0.0297510038
94639.211819,-0.24327296,-0.97808501,0.54498826,-0.0288366172,0.0846150522,0.0222530764
94639.221846,-0.0104529962,-1.39730608,0.164821068,-0.144750168,0.0468431678,0.0158590925
94639.231873,0.139483444,0.582781511,-0.821878769,-0.00106330908,-0.019815221,-0.0281136903
94639.241900,0.79939178,2.03410512,-1.24457811,0.148314456,-0.102281861,-0.0714632954
94639.251928,0.525906189,0.11882022,-0.295754124,0.0188997463,-0.0414020042,-0.0148197246
94639.261955,-0.349909992,-2.27302289,1.05647122,-0.109421214,0.00275879863,0.0448729013
94639.271982,-0.88680628,-0.744132461,0.486077222,-0.0904259513,0.0411578533,-0.0157797943
94639.282010,0.134569953,1.60272022,0.285652849,0.0714761336,-0.00113074821,-0.0744971718
94639.292037,0.279063034,0.949031711,0.275564586,0.0533107166,-0.023811027,-0.0453592586
94639.302064,-0.174645414,-0.974748705,0.843748504,-0.123939967,0.0923749734,-0.0340607959
94639.312091,0.743795784,-0.716741985,1.73349019,-0.0327123161,0.34689194,-0.0576124611
94639.322119,1.10140292,1.02607228,-1.06583833,0.144644359,0.106378668,-0.105500625
94639.332146,0.276618563,-0.249038804,-4.78712855,-0.0729295145,-0.341855585,-0.046066058
94639.342173,0.673153245,-2.61392351,-2.38439404,-0.179212278,-0.381421357,0.0940178101
94639.352200,0.469612275,-0.476808682,1.64022095,0.0620197859,-0.123198598,0.0626774643
94639.362228,-0.0716633978,1.92587519,3.11102708,0.0666267817,0.18306546,-0.048929223
94639.372255,-0.905158587,1.25645252,2.53994978,0.00372185844,0.252648265,-0.00993948254
94639.382282,-0.0421920233,-0.709191789,0.0794440476,-0.0510463137,0.112757743,0.0064887599
94639.392309,0.784517378,0.2008729,-1.69707054,-0.00878461164,-0.0946327294,-0.017494605
94639.402337,1.04378243,1.16421891,-1.83688174,0.0346651283,-0.112548351,-0.0160631548
94639.412364,0.201559742,1.11076424,-0.370851158,0.0525679608,-0.0506341192,-0.060353649
94639.422391,-0.839468994,0.668116409,0.0558322859,0.110135915,-0.0375489439,-0.0392204049
94639.432419,-0.350731684,-1.12667866,0.429685472,-0.00939234526,0.0202307333,0.00427460753
94639.442446,0.944759086,-1.81087797,1.78313129,-0.0490268412,0.0667481725,0.0456848991
94639.452473,-0.00631260845,-0.154625806,0.573220667,-0.0224162675,0.0470101503,-9.56394826e-05
94639.462500,-0.625502638,1.4718012,-0.754266538,0.0515421127,0.0491673094,-0.0455683145
94639.472528,0.209435955,0.911777647,-0.992570267,0.0665692632,-0.0702938359,-0.0375383507
94639.482555,0.40112136,-0.676653209,-0.726231115,-0.0105404341,-0.0822200026,-0.000267147191
94639.492582,0.334928202,-1.12366011,0.692694604,-0.00197357748,-0.00209694311,-0.00325894273
94639.502609,-0.259979253,-0.0934716459,0.821372421,0.0479242076,0.0614460786,-0.00795809004
94639.512637,-0.0443749934,-0.240652194,0.0823847772,-0.0502217989,0.0412089866,0.00286606177
94639.522664,0.396546381,-0.631491075,-0.289956251,-0.0491898264,-0.085594229,0.00810609747
94639.532691,-0.448405218,0.603381048,-0.972967157,0.0496930797,-0.0737032141,-0.0183255087
94639.542719,-0.213212242,1.25466213,0.319086916,0.0696041976,0.0495902193,-0.0451818901
94639.552746,0.294846075,-0.0143959858,1.28717558,-0.00827488297,0.0722252284,-0.0175039257
94639.562773,0.279134638,-1.12440991,0.29026648,-0.0266735963,0.0288074431,0.0181107958
94639.572800,0.362790461,-0.328074566,-0.52997146,-0.0588901247,-0.0356828678,-0.012515558
94639.582828,-0.0582596533,1.01977698,-0.656308268,0.0836648886,-0.0226248554,-0.030351014
94639.592855,0.272064115,0.711785601,-0.180177779,0.0524395984,0.0166232143,-0.0122218114
94639.602882,0.586411219,-0.735758162,0.438673665,-0.0300720576,-0.0124217519,0.0237614912
94639.612910,0.133012787,-0.785327007,0.0143709792,-0.0241790134,-0.0153805246,0.0199249414
94639.622937,0.097753696,0.472604359,-0.146726761,-0.0032779937,0.00283629655,-0.0257115188
94639.632964,0.109136237,0.540206946,-0.0246037714,-0.056002723,-0.0316367257,-0.0268380354
94639.642991,-0.631510354,0.527085927,-0.407030725,0.080443794,-0.0728147845,-0.0567133772
94639.653019,-0.286231374,0.570668829,0.122245663,0.0551245977,0.0116777257,-0.0156836557
94639.663046,0.276695282,-1.21932136,1.74166356,0.0118197334,0.14320086,0.0192383778
94639.673073,0.670661647,-1.03741267,1.03051085,-0.0408908817,0.0941038956,0.0316793349
94639.683101,-0.0787592013,-0.208020675,-1.18793326,-0.0760635491,-0.0371871474,0.00369574119
94639.693128,0.0359668097,1.05713808,-1.82974941,0.0944613163,-0.110156163,-0.0352817523
94639.703155,0.147992183,0.878603984,-0.820581131,0.00930753357,-0.0615848969,-0.00687168177
94639.713182,0.0737475282,-0.893568113,1.06167288,-0.0844328012,0.0156318568,-0.00928876746
94639.723210,-0.227999915,0.314626979,0.783466761,0.0982323532,0.00343324754,-0.0317850235
94639.733237,-0.398955616,0.57948952,-0.016543799,-0.00313289038,0.0432200772,0.00082538639
94639.743264,0.570811718,-1.01887945,1.00600594,-0.0518634114,0.0285524488,0.00616076299
94639.753292,0.0143560856,0.0604077738,-0.172489563,0.0114471177,-0.034210268,-0.0174516226
94639.763319,-1.11682317,0.786435622,-0.99498142,0.0601323639,-0.0111624724,-0.0179959732
94639.773346,-0.312388509,0.123803616,0.0832796802,-0.0395779851,0.0496910256,-0.0217749971
94639.783373,0.544520216,-0.343524868,0.830817126,-0.0287847239,0.0318843317,-0.022589394
94639.793401,0.470723597,0.246928896,-0.138967233,0.0247442797,0.0245097694,-0.0408855762
94639.803428,0.376357214,0.411296926,-0.3644296,0.0037929265,-0.000456831789,-0.036682577
94639.813455,-0.214338907,-0.262813556,-0.731650217,-0.0180937312,-0.090965956,-0.0290776539
94639.823483,-0.677095901,-0.321684646,-0.542773074,0.0136578074,-0.0680124383,-0.00876518908
94639.833510,0.393489989,-0.365386169,1.2045651,0.0254465566,0.0724972714,-0.00207612767
94639.843537,0.0706599374,-0.0883989458,1.51558861,0.006981263,0.137108475,-0.00687381263
94639.853565,-0.296375678,-0.21578108,-0.326945381,-0.0236416272,0.0341613334,0.012837042
94639.863592,0.146834099,-0.292654805,-1.43390884,-0.0642002355,-0.0577451545,-0.00148224282
94639.873619,0.567349157,0.692045201,-0.970415718,0.0118489881,-0.118481203,-0.037863155
94639.883646,-0.133428292,1.02707035,-0.243037848,0.0522930828,-0.0600961927,-0.0316515985
94639.893674,-0.469755611,-0.0411588913,1.04559619,0.0116444575,0.0328276236,-0.0239694427
94639.903701,-0.178276976,-0.424778087,1.47342763,-0.0539515968,0.0808790405,-0.0108176881
94639.913728,-0.181010492,-0.274562683,0.668715762,-0.015273177,0.0669134189,-0.0140435753
94639.923756,0.0779237179,0.813503005,-0.425059133,0.065066943,0.0552000408,-0.0497568335
94639.933783,-0.0998025008,0.31294805,-0.989719554,-0.0120659321,-0.0292567886,-0.0214676681
94639.943810,-0.112716051,-1.04628154,-1.00320155,-0.0329312663,-0.0958035882,-0.00670123949
94639.953837,0.174996364,-0.397846496,-0.00788118463,0.0185742696,-0.0806017365,0.00380839304
94639.963865,-0.727130097,-0.0571071418,0.936498099,-0.0123026864,0.0697542135,0.00848144189
94639.973892,-0.132676377,0.0072490813,1.76897067,-0.0182953327,0.243713752,-0.0308840732
94639.983919,0.254971964,0.516079453,-0.0497925732,0.0462381226,0.0695102666,-0.0262586969
94639.993947,0.0873284559,-0.409447247,-2.63411641,-0.0963658969,-0.159677654,-0.00842670175
94640.003974,0.122000029,-0.685031234,-1.52894918,0.00534954394,-0.160028129,0.00153911336
94640.014001,-0.146558407,0.7478875,0.208450367,0.0927978997,-0.0288653034,-0.0274099792
94640.024029,-0.352809367,0.0546594623,1.57821779,-0.0470042098,0.071080469,0.0222981878
94640.034056,-0.587251379,-1.16109574,1.42749356,-0.0644026379,0.0619559479,0.0156421502
94640.044083,-0.104383107,0.510664953,0.0640132542,0.0528624673,0.0557838049,-0.0122507346
94640.054110,0.25026744,0.519013059,-0.311528616,-0.020995777,0.0909034391,0.0106995887
94640.064138,0.150780937,-0.358042309,-0.735630227,-0.0219401344,-0.0488640438,-0.00341995909
94640.074165,-0.178024389,0.408133823,-1.87343423,-0.0100078405,-0.136381119,0.000697288557
94640.084192,-0.318179733,0.392467577,-0.56375098,0.00973736781,-0.108350008,-0.0109468513
94640.094220,-0.0758742935,0.327297806,1.2204185,0.0828057249,0.0446190354,-0.00125960271
94640.104247,-0.00292954188,-0.347277754,1.94630116,-0.0314510818,0.146137655,0.0186115735
94640.114274,-0.563243896,-0.595296712,0.673239962,-0.118470667,0.0913625737,0.00178945054
94640.124302,0.589414054,0.874753738,-0.876311201,0.0819468518,-0.0143806371,-0.0383055071
94640.134329,0.407595233,1.16135023,-1.67638781,0.0711288248,-0.074911892,-0.0265551071
94640.144356,-0.10248173,-0.803573588,-0.759770981,0.0133459513,-0.0646651085,-0.000834828347
94640.154384,-0.0873958045,-1.23136645,0.100137292,-0.0371811371,-0.0436708811,0.0246577476
94640.164411,-0.321984897,-0.800765107,0.547235747,-0.0484798643,-0.00586251591,0.0163726536
94640.174438,-0.242175155,0.164731309,0.677919644,-0.00693162338,-0.0485916021,-0.00993857729
94640.184465,-0.862558193,0.604464789,0.360568681,0.0410351027,0.0120677487,-0.00282793782
94640.194493,-0.468423997,0.120649235,1.08112401,0.0307334644,0.173997254,8.18314846e-05
94640.204520,0.102765679,-0.117968967,0.664427125,-0.00323941692,0.181101501,0.010553914
94640.214547,0.384605475,-0.309435223,-1.61713483,-0.00618034595,-0.0564495246,0.0152887477
94640.224575,0.417595306,-0.222730241,-2.83488039,0.0245709085,-0.217802211,0.0265848105
94640.234602,0.261021985,-0.291008006,-0.955760586,-0.0499717686,-0.14651151,0.0206558172
94640.244629,-0.147958191,0.0772604897,1.37506955,0.0259469636,-0.0824470367,-0.0027176832
94640.254657,-1.04353896,0.375634807,1.37391337,0.029073516,0.0838529919,0.0160727826
94640.264684,-0.691908416,-0.375924039,1.86960313,-0.00519231328,0.116684176,0.0204765861
94640.274711,-0.226508215,-0.32944242,0.508251059,0.00499081618,0.0743753318,0.0451459763
94640.284739,0.0659032444,-0.302672049,-0.620633143,-0.0401231329,0.0310161398,0.048509552
94640.294766,-0.124464356,0.273078506,-0.82831494,-0.0273383613,-0.0203956529,0.00847718016
94640.304793,-0.452783068,1.1057367,-1.34791106,0.0872057994,-0.0355303954,-0.0132603386
94640.314820,0.708459755,0.246566785,-0.269352439,-0.0189786981,-0.0126152276,0.0106612387
94640.324848,0.179805006,-1.15124677,0.456883276,-0.0166822559,-0.105626128,0.0407312577
94640.334875,-0.67868317,-0.415951441,0.00554411414,0.0127518001,0.0120781348,0.0352486064
94640.344902,-0.117493786,0.202989399,1.47810965,-0.044690987,0.117399499,0.00810300641
94640.354930,-0.356688035,0.506851204,0.517281923,-0.0490319374,0.0117023629,-0.0184476423
94640.364957,-0.499049291,0.758125328,-1.07887259,0.0587158297,-0.066018797,-0.0145804678
94640.374984,0.115691212,0.426117114,-0.273507221,0.0574865137,0.0428807889,0.00775812696
94640.385012,0.565452091,-0.39143378,1.01292901,-0.00674440333,0.0900040944,0.0306376097
94640.395039,0.135370748,-0.582785131,-0.188879557,-0.0491509828,0.0282672238,0.0394012731
94640.405066,0.00513561809,0.105592234,-1.37675079,0.0136796451,-0.133575215,0.0276407552
94640.415094,0.0733881203,0.787447211,-1.11154736,-0.0356317106,0.0212519248,0.021391115
94640.425121,0.842324986,0.81606869,1.23817511,-0.0158367007,0.127131209,-0.0465152311
94640.435148,0.312840435,1.48622866,-0.94586463,0.0860150997,-0.15341629,-0.0976631056
94640.445176,-0.539923299,-0.388403801,-2.18993296,-0.0339280869,-0.238064602,-0.0123141185
94640.455203,-0.0975395243,-2.1722465,1.34582124,-0.0392730515,-0.124985456,0.041284128
94640.465230,-0.0447612893,-0.287815091,3.1806489,0.0183524285,0.191776783,-0.0136467629
94640.475258,-0.256360625,0.894495746,2.79858318,0.0905073155,0.309168667,-0.0269199583
94640.485285,-0.161196369,-0.462484827,-0.478089297,-0.0105679035,0.157573015,0.0261126337
94640.495312,0.666153449,-1.65045038,-2.34805549,-0.142365878,-0.162064373,0.0707149868
94640.505339,0.90909894,-0.0253972448,-2.36771705,-0.0124717978,-0.178442016,0.0438029458
94640.515367,0.60734514,1.93343862,-0.316161536,0.0861716886,-0.0583161335,-0.0533017638
94640.525394,-0.764796834,1.28424508,0.664099208,0.0411336404,-0.0493833604,-0.0528785895
94640.535421,-1.61698277,-1.3837535,0.739012118,-0.106650492,0.0451002684,0.0326323164
94640.545449,1.12138808,-1.30445916,2.31018942,-0.0579287614,0.0857632761,-0.00723680119
94640.555476,0.824191728,1.18746783,1.2432394,0.0759760459,0.0478840698,-0.0520404923
94640.565503,-1.07253628,0.606501117,-0.685682247,0.0439126474,0.108882979,0.0203024139
94640.575531,-0.0192960817,-1.16299486,-0.226584726,-0.081694005,0.14425321,0.0321697284
94640.585558,1.22303344,-0.0742235273,-0.81021522,-0.0782481413,0.0145069384,-0.0101700072
94640.595585,0.859700922,0.826153081,-2.31780823,0.0566076693,-0.202029109,-0.00684132251
94640.605613,0.0883507116,0.261249719,-1.91707288,0.0610556845,-0.182333961,0.0257661556
94640.615640,0.211716687,-0.958833124,1.33354161,-0.0910773929,-0.0393863875,0.050022493
94640.625667,-0.28549188,-0.216033593,2.46492639,-0.0176385957,0.113798373,0.00706810214
94640.635695,0.0793202868,1.37274374,1.31664951,0.0327401553,0.0954755549,-0.0398232426
94640.645722,-0.554776293,0.582395836,-0.275963382,0.0227700789,0.0197144826,-0.00414646893
94640.655749,0.376523583,-0.841097556,-0.346075613,-0.0105434022,0.0440640305,0.00966122177
94640.665777,0.536583359,-0.249835069,-0.0704098293,-0.0293570384,0.042620067,-0.0121623186
94640.675804,0.257409859,0.263038319,-0.817705868,0.00887530303,-0.0692835669,-0.0120230337
94640.685831,0.169244449,-0.192465232,-0.996398886,0.0128715411,-0.0270508263,-0.00348994146
94640.695859,0.893002157,-0.493833064,0.626981484,-0.0228800643,-0.00231219109,-0.00592806573
94640.705886,-0.0878490281,-0.534787883,0.334745089,-0.0123283546,0.0314931762,0.00634857396
94640.715913,0.0362158891,-0.394485605,-0.0805886934,-0.00511065492,-0.0264830399,0.00900347893
94640.725941,0.280264446,-0.235445327,-0.14257724,0.00917107898,-0.00302405401,0.0254050893
94640.735968,0.39095616,-0.172381809,0.343567862,-0.00175400677,0.033729699,0.0205227164
94640.745995,0.142640374,0.080502618,0.151503906,-0.0263634789,-0.0125877322,0.00737788611
94640.756023,-0.167731616,-0.0782222644,-0.523923412,-0.00279849854,-0.0466916408,0.0308006544
94640.766050,-0.17639708,-0.151150832,-0.00544372835,-0.0171409528,-0.00170871897,0.0198888843
94640.776077,0.0723180068,0.450620162,0.749936248,-0.0443752352,0.0215960708,0.0023234723
94640.786105,-0.382373023,0.907616582,0.391998423,-0.0089227035,0.00462774045,-0.0305955979
94640.796132,-0.100464983,1.10583731,0.0990892438,0.110774936,0.0579444882,-0.0248149383
94640.806159,0.284321685,-0.28366599,0.15711707,-0.00292286829,0.094536588,0.0141913173
94640.816187,0.381806931,-1.15111365,-0.252837357,-0.0157891306,0.0691201766,0.0327612747
94640.826214,0.738660905,-0.247743193,-1.55085122,-0.0324892829,-0.0657646652,0.0110144325
94640.836241,0.458575113,0.186668598,-1.88438408,0.0186050609,-0.181318953,0.0234474008
94640.846269,0.192313263,-0.041376233,-0.671867072,0.0255196915,-0.174298599,0.0216484357
94640.856296,-0.493279402,-0.358251166,1.37594107,-0.0657508354,0.0178239704,0.0278440107
94640.866323,-0.12296893,0.0027530508,2.5875509,0.0321957041,0.134128213,-0.0203400265
94640.876351,-0.184379457,0.77761884,0.887797489,0.0828263928,0.102740191,0.00628146239
94640.886378,-0.0101054979,-1.00613307,-0.555814927,-0.0498688053,0.0460311067,0.0628669773
94640.896405,0.335555979,-1.11287262,-0.762567918,-0.124789117,-0.0817449684,0.0249126692
94640.906433,-0.279022757,1.01772801,-1.25828924,0.0527297427,-0.106928348,0.0108357341
94640.916460,-0.0851828046,1.43248334,-0.0929232744,0.0743772481,-0.00254202194,-0.0169109414
94640.926487,-0.1984942,0.151939632,1.27179213,0.00848744537,0.0579924253,0.0242996112
94640.936515,-0.382428187,-0.929620546,0.796978569,-0.0443645845,0.103862979,0.0419656885
94640.946542,0.37187152,0.45663902,-0.0583756926,0.0150659858,0.0637416621,-0.00717176135
94640.956569,0.525942284,1.30944586,-1.30657776,0.0450193566,-0.059377342,-0.0101286695
94640.966597,0.142750776,-0.272730298,-1.56832491,-0.00584861723,-0.120115526,0.0130136673
94640.976624,0.11462139,-0.494460951,-0.341501145,-0.00741029478,-0.111974775,0.000274170085
94640.986651,-0.44918519,0.0737879685,0.717813847,0.00225751295,-0.0502403039,0.00529023389
94640.996679,-0.614973718,0.116469757,1.41876957,0.03134509,0.0591932465,-0.00586494907
94641.006706,-0.620201828,0.156717715,1.36403904,0.0396344457,0.143088684,0.0045815668
94641.016733,-0.17952113,-0.561363938,0.301119883,-0.0145438378,0.094213814,0.028009395
94641.026761,0.40116498,-0.723249321,-0.923410222,-0.0104976976,0.00456542194,0.0285694589
94641.036788,0.545477078,-0.122372637,-1.51794146,-0.0200368743,-0.11075931,0.0213525583
94641.046815,-0.240733066,0.292240668,-1.19539352,-0.0171774383,-0.139747276,0.0131801152
94641.056843,-0.674141435,0.537425498,0.185167106,-0.0301989633,-0.0950796823,0.0100122847
94641.066870,-0.850650825,0.837391391,1.44663841,0.0484479126,0.108420715,-0.00441379204
94641.076897,0.398788241,1.00626598,2.05639294,0.101882907,0.241387278,-0.0223749514
94641.086925,-0.088916292,0.0358809339,-0.194040301,-0.0421674754,0.0584901725,0.0141039648
94641.096952,-0.148990529,-1.09594391,-2.2173599,-0.151775991,-0.150325626,0.0313628455
94641.106979,0.144089331,1.21447384,-1.77655616,0.0771514644,-0.212664097,-0.031593484
94641.117007,-0.532917658,2.37913656,-0.247383184,0.113603214,-0.072039872,-0.0645804565
94641.127034,-0.353529205,0.0345367345,2.29830492,0.0247830619,0.119033143,-0.00570409383
94641.137061,-0.28454985,-1.02067846,1.99858548,-0.0407091285,0.154595405,-0.00962826248
94641.147089,-0.0329348771,0.0985993244,-0.0506524049,0.0346852262,0.0269636721,-0.0224953267
94641.157116,0.196824603,-0.0914680054,-1.35401113,-0.0170996729,-0.0681892107,-0.0173868473
94641.167144,-0.127716782,-0.447993214,-0.73208627,-0.00348506163,-0.0492229755,-0.0386426049
94641.177171,-0.0538690902,0.0652370526,-0.00369893051,0.0882533808,-0.0181529387,-0.0280112635
94641.187198,-0.643911862,-0.829923543,0.178856023,-0.100958621,0.0412587193,0.0249891047
94641.197226,-0.13589322,-0.832342221,0.77864504,-0.0575365777,-0.00496869397,-0.0190822157
94641.207253,0.396616962,1.53760741,-0.0872680251,0.100104177,-0.00965346165,-0.0472251746
94641.217280,-0.350925818,0.716466087,0.0874473213,-0.0395746212,0.0838538487,-0.0218761387
94641.227308,0.137240926,-0.403689085,0.491227444,-0.00447336066,0.0295096547,-0.0422762196
94641.237335,-0.129751722,0.514817616,-1.10455648,0.0360418428,-0.0293464712,-0.0335269357
94641.247362,0.151090807,-0.566308262,-0.772743275,-0.0177036784,-0.0515620294,0.00197592973
94641.257390,0.440886458,-0.639950568,0.17196451,-0.0504304673,-0.0755914669,-0.0232742998
94641.267417,-0.881182522,0.368240496,0.313730942,0.0120052146,-0.0125435232,-0.0144531113
94641.277444,-0.476884878,0.686096814,0.932848929,0.0229260401,0.117821403,-0.0526116836
94641.287472,0.333967906,0.578000085,1.15937279,0.0225129836,0.10620603,-0.0361094038
94641.297499,0.111887289,-0.548178804,-0.724057862,0.0197361056,0.000659363963,-0.00206142209
94641.307526,-0.147203281,-0.578729791,-1.55242709,-0.0614351797,-0.106667891,-0.00341750412
94641.317554,-0.293208884,0.310952528,-0.580836555,-0.0379471648,-0.0511729415,-0.0484520915
94641.327581,0.024717759,1.48096007,0.558599437,0.0925237556,-0.0220667212,-0.105865576
94641.337609,-0.468837254,0.257352474,0.60658167,0.0566560385,0.0333272931,-0.0487205359
94641.347636,-0.525771074,-1.81991292,0.977096067,-0.0588918607,0.109393567,-0.00426598742
94641.357663,0.19281756,-1.33886997,0.632156841,-0.105071342,0.101681583,-0.00534163798
94641.367691,0.580493958,0.496234241,-0.927605335,0.0166002326,-0.0476136278,-0.0539424616
94641.377718,-0.149298207,1.16148481,-1.97630424,0.0517520961,-0.132463544,-0.0345378752
94641.387745,0.013017019,-0.597488048,-0.324216248,-0.0515641737,-0.0267522852,-0.017929067
94641.397773,0.278715536,-0.595300731,1.34293254,-0.101698181,-0.0157302614,-0.0337375934
94641.407800,-1.35424749,0.898933217,0.0938390682,0.0647704248,0.000542717498,-0.0527006324
94641.417827,-0.233915495,1.09569059,0.458370884,0.0325453785,0.106704303,-0.0635788451
94641.427855,1.08982222,-0.0106496777,1.14972467,0.0285205413,0.0862312545,-0.0335232104
94641.437882,-0.0426573758,-0.707896196,-0.803017417,-0.0110748046,-0.0345508228,-0.00935182545
94641.447909,0.049749982,-0.884839667,-1.08140707,-0.110730825,-0.0120772044,-0.0193394768
94641.457937,0.894525055,0.367173524,0.0822503372,0.0384924804,-0.0402664985,-0.0591843623
94641.467964,-0.335709325,1.27422856,-0.785986787,0.111890266,-0.0663742642,-0.0608581576
94641.477991,0.183059259,-0.766009508,0.31762152,-0.0920681934,-0.00744463552,-0.0010728567
94641.488019,0.186339596,-1.41652852,1.54876491,-0.0497934389,0.0414102529,-0.00538344971
94641.498046,-0.376622204,1.21193417,0.115919967,0.0719116945,0.028845197,-0.0650622259
94641.508074,-0.406076627,1.10666097,-0.367732149,0.0374376048,-0.0214944068,-0.022158702
94641.518101,0.37778805,-0.725479564,0.267980999,0.0406166185,0.0453951438,0.00514242834
94641.528128,0.875715799,-0.332580682,1.03644959,-0.12826108,0.209037871,-0.0230178359
94641.538156,0.746760333,0.756495315,-0.172302516,0.0383297634,0.0317680132,-0.0963418494
94641.548183,-0.0484518875,1.57757175,-3.52934558,0.169519747,-0.214194625,-0.0833352368
94641.558210,0.555216236,-1.0866129,-1.91014805,-0.0201684348,-0.175329238,0.00292188477
94641.568238,1.15693549,-2.52402872,1.69529577,-0.135222038,-0.0532978769,0.0232577835
94641.578265,-0.0885402983,-0.204428605,1.74004794,0.0174559057,-0.00233003429,0.000119440153
94641.588292,-1.43307318,1.65752339,0.242646066,0.0922641028,0.0460004774,-0.0642518262
94641.598320,-0.222376303,0.688252969,0.792269077,0.0149096586,0.121772737,-0.0247877735
94641.608347,1.07483764,-1.23963729,0.917093142,-0.0546273421,0.0688642491,0.0003708423
94641.618375,0.207806089,-0.347287107,-1.1495407,-0.050766291,-0.0867288034,-0.0265657018
94641.628402,-0.515621582,1.09188258,-1.67885099,0.184225718,-0.10614565,-0.0317026722
94641.638429,-0.748141321,0.222988523,-0.373745126,-0.0147813921,0.0445165639,0.000928775303
94641.648457,0.82854532,-1.79835912,2.07262804,-0.097028328,0.0879122396,0.019170896
94641.658484,1.1782172,-0.224684553,0.605887258,-0.00185866904,0.00256671987,-0.0225661668
94641.668511,-0.00988812884,1.06152675,-1.10335529,0.060084859,-0.050593439,-0.030763642
94641.678539,-0.149697508,0.170157225,-0.58345346,0.0225523972,-0.0362160984,-0.0241443562
94641.688566,-0.326733041,-0.346720193,0.0227454243,-0.0440961737,-0.00594111953,-0.007924636
94641.698593,0.234311234,-0.167262256,0.644262289,0.0095976778,-0.0105886027,-0.00563644815
94641.708621,0.25150363,0.618254792,0.460535369,0.024392603,0.0371685331,-0.0252266611
94641.718648,0.256816277,0.549921626,0.550215055,0.00900033123,0.0421473128,-0.0279327008
94641.728676,-0.26163535,0.295824243,-0.438317259,0.0498524253,0.00344625672,-0.0305825445
94641.738703,-0.253785659,-0.117276866,-1.00286253,0.00329104678,-0.05391477,-0.010975021
94641.748730,0.415177943,-0.923416942,-0.135804969,-0.0469992849,-0.0220042407,-0.000125569396
94641.758758,0.550550071,-0.04536512,0.588812789,0.0305900444,-0.0121273766,-0.026509774
94641.768785,-0.187399463,0.7736183,0.14380926,0.014873134,-0.00310671751,-0.0465154397
94641.778812,-0.0224225432,-0.174324376,0.299652148,-0.0342155825,-0.00465454629,-0.0245952244
94641.788840,-0.0553196543,-0.344729604,0.257083172,0.0417228584,0.0219786619,-0.0328241262
94641.798867,-0.157551072,0.330423208,-0.101629728,0.0377206598,0.0217456356,-0.0183309383
94641.808895,0.00687201343,-0.416338139,-0.313544632,-0.0263557955,0.00647613497,0.00131253795
94641.818922,0.557186951,-0.633311714,-0.0506372073,-0.067488579,-0.000569790158,0.00232507138
94641.828949,0.531973308,0.48605987,-0.0582295621,0.0223315824,-0.0271819583,-0.043967859
94641.838977,0.313834999,1.38428921,-0.315456018,0.0817791988,-0.0234133206,-0.0514255065
94641.849004,0.139163053,-0.200689601,0.281947565,0.0238245503,0.0122357537,-0.00632700614
94641.859031,0.156962841,-1.2618275,0.564840377,-0.0421725753,0.0143527002,0.0108352032
94641.869059,0.114340528,-0.392883504,0.109688964,-0.0669748615,0.016539155,-0.0131476271
94641.879086,0.351466299,0.928399842,-0.15109197,0.0384660792,-0.00717656037,-0.0659099083
94641.889113,0.101075242,1.1769479,-0.579863326,0.0597639103,-0.0282874382,-0.0716010864
94641.899141,0.143227234,-0.834145691,-0.139575135,0.0137362304,-0.0580567862,-0.0127494848
94641.909168,-0.190466376,-1.76437881,0.398167467,-0.0530204269,-0.0194063275,0.0370082174
94641.919196,-0.13811528,-0.738897849,1.09850711,-0.024242578,0.0615250063,0.00681729139
94641.929223,0.0535750932,0.969558951,0.813288484,0.0080514467,0.103854351,-0.0348518576
94641.939250,-0.196826851,0.982254693,-0.421844263,0.0580011663,0.0319977407,-0.0227645683
94641.949278,0.252691233,-0.49718274,-1.16354,-0.0593177396,-0.0559203956,0.0121753056
94641.959305,0.373709841,-0.845990077,-0.477679548,-0.0304061975,-0.0687541734,0.00602899574
94641.969332,0.0684147158,0.766836604,0.0413834893,0.0493141991,-0.0121058054,-0.0177871204
94641.979360,-0.15505604,0.590158579,0.682958223,-0.00449630239,0.0612701406,-0.00511553428
94641.989387,0.0724480629,-0.271302531,0.731440222,-0.0450794156,0.0538921212,-0.0251760605
94641.999415,0.326039889,0.403354735,-0.323548139,0.066537926,-0.00404574771,-0.03634083
94642.009442,0.103750598,0.230623987,-1.16717631,0.0213613939,-0.037116881,-0.0201362959
94642.019469,0.232123807,-0.886609526,-0.378516578,-0.0808890741,-0.0604142132,-0.00496719602
94642.029497,-0.106314148,-0.291539007,-0.0887983034,-0.0227858275,-0.0929860096,-0.0157260998
94642.039524,-0.614508146,1.22954552,0.146250223,0.020848468,-0.018238531,-0.0399193215
94642.049552,-0.222485681,0.963595366,1.45001519,0.0674492587,0.0911936839,-0.0360300402
94642.059579,0.0389830888,0.0090083803,1.21211361,-0.00519431702,0.113861442,-0.00587000801
94642.069606,0.0713317722,-0.591376032,0.0331528366,0.0239119027,0.0463101011,0.0237984051
94642.079634,0.141639307,-0.191937573,-1.08080443,-0.0519884507,-0.00741118474,-0.000641956099
94642.089661,0.242528224,0.363182336,-0.841363807,-0.0220513287,-0.0648441236,-0.037736063
94642.099688,-0.0954833224,1.17333139,-0.734426111,0.0404996705,-0.0422344129,-0.0746815588
94642.109716,-0.253376275,0.680799219,0.104143605,0.0533163977,-0.0343903373,-0.0613756116
94642.119743,-0.537988312,-0.783769621,0.477741939,0.00449852372,0.0239129164,-0.0165261134
94642.129771,-0.136999501,-1.39698313,0.90776651,-0.0481777358,0.0465985206,0.00446092653
94642.139798,-0.136265926,-0.607854325,0.329861993,-0.0289340019,0.0194057827,-0.00961148284
94642.149825,-0.403512257,0.250576367,-0.689806048,0.0267297924,-0.0229230314,-0.0252093497
94642.159853,-0.351145817,0.0678891608,-0.653218485,-0.0446719508,-0.042208578,-0.0175461053
94642.169880,-0.501121275,-0.448599546,0.0315454014,-0.0135390665,-0.0272890176,-0.0161990776
94642.179907,-0.714040387,0.367072073,0.231403957,0.0292131901,-0.00888204903,-0.0356260399
94642.189935,-0.470416048,-0.0338140427,0.664387962,0.0694879089,0.0739313368,0.020343487
94642.199962,-0.0915611075,-1.11908572,0.738289649,-0.0132541078,0.158829719,0.0444118035
94642.209990,0.307307278,-0.826728839,-0.176802166,-0.139541468,0.086626627,-0.00172772735
94642.220017,0.371439266,0.229635706,-2.03241893,0.00769591478,-0.20573093,-0.0229238245
94642.230044,-0.307273139,0.606958797,-2.4525984,0.068774717,-0.210772559,0.0048545421
94642.240072,-0.140438243,-0.736639621,1.16438214,-0.0468842368,-0.020355213,0.0377773371
94642.250099,-0.188073782,-0.541403977,2.86529116,-0.0206579621,0.197056741,0.0239028026
94642.260127,0.101661809,0.500293709,1.43136135,-0.0862889047,0.255663574,0.003675294
94642.270154,0.434162849,0.680990066,-0.981810973,0.0410727803,0.00508809553,-0.0406863104
94642.280181,0.481645534,0.576664306,-3.56112955,0.141410569,-0.352082818,-0.000419582345
94642.290209,-0.197226664,-1.44912672,-1.51265213,-0.0920136328,-0.183584615,0.108254171
94642.300236,-0.0409312096,-1.99335708,3.21336517,-0.1479552,0.0967967068,0.112226537
94642.310264,-0.47197884,1.68181802,2.13125733,0.071576098,0.163605839,0.00277487923
94642.320291,-0.260611195,2.76690852,-0.0950024187,0.129876161,0.110516511,-0.043535893
94642.330318,0.46799746,-0.531014721,-0.499549434,-0.00698502681,0.0422908594,0.0578887303
94642.340346,0.936208846,-1.9688773,-0.92462252,-0.0985879134,-0.0480134706,0.0570437116
94642.350373,0.268689451,0.0551379254,-1.15802737,-0.04470524,-0.108466163,0.00885993604
94642.360400,-0.306631699,1.36096022,-0.798940377,0.116087372,-0.107320211,-0.00866739183
94642.370428,0.0869067233,0.497910467,0.619141292,0.047682481,-0.018983684,0.0165372965
94642.380455,0.468180415,-0.946764573,2.19635145,-0.068838274,0.162157074,0.0392015939
94642.390483,0.363785682,-0.215496399,1.33293604,-0.00396020844,0.172597737,0.00212986198
94642.400510,0.0124415572,0.983151934,-1.81525385,0.0650249888,-0.0535650957,-0.0223081029
94642.410537,0.444727205,-1.60734262,-0.544955679,-0.00546356284,-0.213052228,0.0393752371
94642.420565,0.462277402,-1.61005948,-0.542762553,-0.0509311761,-0.124815575,0.0709336986
94642.430592,-0.0655794017,0.140304103,1.36684182,0.00303485065,0.0123734385,0.0219991737
94642.440620,-0.242575918,1.13807983,1.37030745,0.0377800484,0.0900645037,-0.000133558281
94642.450647,0.104417611,0.0842762548,0.730287544,-0.0116865718,0.0551443402,0.0329152037
94642.460674,0.209523268,-0.421119637,-0.284170653,0.0058524749,-0.0214764024,0.0290656061
94642.470702,0.143382863,0.331546367,-0.791821485,-0.00635731959,-0.0521387081,0.0179988396
94642.480729,-0.227621437,0.146783884,-0.226723258,-0.0195498205,-0.0525038275,0.0118293603
94642.490757,-0.445664541,0.374164406,0.403295478,0.0502337907,0.00313919431,-0.0067677592
94642.500784,0.215845092,0.337758812,1.0474199,0.102781685,0.108661622,0.0130648007
94642.510811,0.605685244,-0.912863254,0.896466533,-0.0489449929,0.122861594,0.0542868067
94642.520839,0.148454321,-1.1645502,-0.651785238,-0.151017835,-0.0505495998,0.0289739919
94642.530866,-0.105421875,0.822614605,-1.89296311,0.0459242631,-0.114865213,-0.0331061567
94642.540894,0.195326035,1.63875687,-1.01331027,0.139269659,-0.0947423647,-0.036292893
94642.550921,-0.176481544,-0.912501508,0.695068347,-0.0289017781,-0.020602088,0.032971396
94642.560948,-0.127356863,-2.12185677,1.8428367,-0.12886033,0.0982523937,0.0647575547
94642.570976,0.11910913,-0.00344888856,1.22455107,0.0120778802,0.0954600652,0.00235463249
94642.581003,-0.0896372267,1.48890241,-0.951297176,0.110745335,-0.0583444047,-0.0169956285
94642.591031,-0.714379118,-0.564631452,-1.41740136,-0.0587089378,-0.0717699374,0.0589393479
94642.601058,-0.273801369,-1.72876609,0.562124688,-0.0614192392,0.0417401162,0.0785133158
94642.611085,0.481390756,0.519829745,0.960561112,0.0187352505,0.0980744888,0.0197373506
94642.621113,0.31374944,1.29851107,-0.210740675,0.0365153123,-0.00770093689,0.0209038154
94642.631140,-0.233036228,-0.0885267551,-1.3904438,0.0238799453,-0.101797081,0.0469772284
94642.641168,0.00731025872,-0.503068912,-0.468913473,-0.0189692526,-0.0488704774,0.0374505659
94642.651195,-0.0906129399,-0.199475914,1.00849951,-0.0202441066,0.0436826278,0.0189024498
94642.661222,-0.385082135,0.0428010658,0.651576411,0.0432160926,0.0537022357,0.0118775637
94642.671250,-0.0500322885,-0.279439605,-0.131241607,0.0373978858,0.0493988362,0.0475663197
94642.681277,0.783257003,-1.13244445,-0.406306502,0.0077260086,0.0413289261,0.0957543542
94642.691304,0.305906544,-0.756132769,-1.00379952,-0.222226417,-0.0877093743,0.0645084222
94642.701332,-0.532048328,1.20034661,-1.28919701,-0.0158644523,-0.156815737,0.0121666574
94642.711359,-0.105038648,2.66783908,-0.691839016,0.202081988,-0.142935872,-0.0728507648
94642.721387,-0.307726508,0.692473802,1.31641102,0.0692331289,-0.0175111122,-0.0219396475
94642.731414,-0.756825928,-2.40346962,2.66933662,-0.0855931993,0.141322479,0.0818812911
94642.741442,-0.879326007,-1.98251917,1.39288636,-0.109962454,0.162827775,0.0720294555
94642.751469,-0.00969530969,0.948851605,-0.442423525,0.0468066503,0.071789742,0.00952719793
94642.761496,0.390999414,1.20182691,-1.57400471,0.00900308049,-0.0893866341,0.0161344995
94642.771524,-0.0215143423,-0.875385098,-1.17982828,-0.0967803429,-0.119729623,0.0569327948
94642.781551,-0.549104604,-0.0645986118,0.1279278,0.00401657733,-0.0520392615,0.0297304698
94642.791579,-0.611326886,1.41272211,0.835224421,0.00918524067,0.0360115026,0.0041364272
94642.801606,-0.290037342,0.5683021,1.36440962,0.0702611078,0.137398571,0.0220555057
94642.811633,-0.213905265,-0.130091047,0.217500519,0.0204719846,0.140505687,0.0302681633
94642.821661,0.212577834,-0.855200681,-1.03679928,-0.11482512,0.00677585181,0.0419109714
94642.831688,0.484411054,-0.449867593,-1.82950215,-0.0613792072,-0.186668708,0.0256132231
94642.841716,-0.13114566,1.29244446,-1.40939107,0.0611981098,-0.144454941,-0.00720490991
94642.851743,0.0637290422,1.02401747,1.10266657,0.0740888734,-0.00346480126,-0.0108212168
94642.861770,-0.234070832,-0.622888812,2.19350132,-0.0741349514,0.0994410743,0.0225551155
94642.871798,-0.263874288,-0.926263126,1.52691665,-0.0415285359,0.0886352961,0.0127807817
94642.881825,-0.301671227,0.440210886,-0.101660708,0.0266590398,0.0943906535,-0.00594496924
94642.891853,-0.0823414437,0.192690069,-0.811936052,0.0481752512,0.0422393051,0.0342357372
94642.901880,0.65636826,-0.835410304,-0.919200495,-0.127617082,-0.0230491548,0.0394589965
94642.911907,1.11164929,-0.0645083854,-0.36017545,-0.0452135521,-0.0782346498,0.00753142488
94642.921935,-0.111116726,1.80138621,-0.794391043,0.10814804,0.00549966514,-0.0483736518
94642.931962,0.0629978783,0.861608133,0.0373269074,0.0168125332,0.0152287246,-0.0389950658
94642.941990,0.220810094,-1.53394859,0.241080132,-0.0654535796,-0.0525535192,0.0170269263
94642.952017,0.306260107,-1.52861717,0.178087962,-0.0165187902,-0.039208151,0.0478564788
94642.962044,0.202083181,0.011266418,0.773437535,-0.0142095638,0.0463163373,0.0332293314
94642.972072,-0.125179226,0.856421378,0.913355124,0.0135914405,0.0935789202,0.00657321968
94642.982099,-0.0167724815,0.706969433,-0.245096534,0.0108521134,0.0221281764,0.0150348813
94642.992127,0.540540499,-0.219151926,-0.74756441,-0.0673129986,-0.0531942765,0.0157358264
94643.002154,0.112453033,0.0497292073,-0.476467834,-0.00605176942,-0.042009532,-0.00738254293
94643.012181,-0.142687337,0.750728349,-0.0782763248,0.0982927476,0.0161693529,0.00295904361
94643.022210,0.024596836,-0.316041708,0.362134031,-0.0307797528,0.0302841072,0.0410505039
94643.032237,0.0746976685,-0.980189873,0.390544717,-0.13346166,-0.0609712373,0.032058603
94643.042265,-0.0278816854,0.821635677,0.0535883063,0.121168235,0.0591176194,0.0101208164
94643.052292,0.468538435,1.52462576,0.375646424,0.0853383337,0.168382585,-0.0162892184
94643.062320,0.236671314,-0.394732237,-0.59145498,-0.0589346904,0.0234720078,0.00807976992
94643.072347,0.536260483,-1.76386721,-2.00320452,-0.117305858,-0.249540343,0.0374384587
94643.082374,-0.0581088467,-0.166500952,-1.51500541,-0.0252659432,-0.256659507,0.0506807593
94643.092402,-0.352903255,1.24577755,1.3958873,0.0678972919,-0.00477294579,0.0078595261
94643.102429,-0.655206579,1.45300692,2.79143682,0.0873684604,0.202115253,-0.0339813988
94643.112457,-0.745880464,0.042862952,1.40059562,-0.0175773966,0.180400104,0.01395204
94643.122484,0.181667147,-1.27911956,-0.368820529,-0.127468219,0.0153192733,0.0160783072
94643.132511,0.672654721,0.21555419,-1.14258138,0.0369215292,-0.0185113955,-0.0255535591
94643.142539,0.467166562,1.49136851,-1.33107274,0.123402895,-0.00585898294,-0.0371590826
94643.152566,-0.120913093,-0.263430372,-1.13534091,-0.039380962,-0.0820363085,0.00994211797
94643.162594,-0.32451858,-1.55947671,-0.590940601,-0.118217459,-0.174062639,0.050672504
94643.172621,-0.394917155,0.152611184,0.524765556,0.0400398244,-0.0745136808,0.0436161932
94643.182648,-0.0086151863,1.59040347,2.00835459,0.0601341744,0.155692623,-0.0230986561
94643.192676,-0.00484684674,1.29018455,2.0743816,0.062368298,0.201334417,-0.0396203744
94643.202703,0.0222628401,0.00861692188,-0.645729591,0.0345712919,0.101326861,-0.0256667408
94643.212731,0.245878119,-0.741190636,-2.23268548,-0.0298748109,-0.126404047,0.013515015
94643.222758,0.153103389,-0.488379,-2.25685137,-0.0585541259,-0.188763558,0.0102827371
94643.232786,0.380655203,0.757791785,-0.11675657,0.0260337294,-0.130077332,-0.024838497
94643.242813,-0.084438416,1.47294175,1.28300501,0.0883588885,-0.0259144507,-0.0475033308
94643.252840,-0.625734912,0.331715038,1.74499183,0.0263064374,0.0906992485,-0.0215036879
94643.262868,-0.394399487,-0.626958473,1.71118776,-0.0337435845,0.173456714,-0.0232872079
94643.272895,0.0236807441,0.0286462129,0.20285883,-0.00190416216,0.100294084,-0.0420667539
94643.282923,0.197391736,0.455262873,-1.64298297,0.0269844775,-0.0387889701,-0.0507822159
94643.292950,0.821479108,-0.139491675,-1.61256854,0.0390611124,-0.107150986,-0.0346269469
94643.302978,0.280989837,-0.668367465,-0.577692412,0.00267620857,-0.0769853587,-0.0152798808
94643.313005,0.167227484,-0.84677056,0.743339918,-0.000573913211,0.0168204964,-0.00168710678
94643.323032,0.231853247,-0.290575806,0.959716478,-0.00748960947,0.00154353944,-0.00187885492
94643.333060,-0.501027459,0.0426275997,0.205165354,-0.0378208849,-0.00606857382,-0.002265812
94643.343087,0.113601107,0.543838105,0.489982412,-0.00598545645,0.0252419435,-0.0482194546
94643.353115,0.242459104,1.1033585,0.499558634,0.0586803538,0.0485387449,-0.052609143
94643.363142,0.158076501,0.0501319749,-0.00879420782,0.0562837776,0.0463376422,-0.0213127407
94643.373169,0.299350912,-0.892623745,-0.441197198,-0.0167539473,0.077037767,0.0193033953
94643.383197,0.954960746,-0.673386973,-0.550655936,-0.0396099965,0.00149959731,-0.000792550959
94643.393224,0.689507364,0.530758807,-1.56511472,-0.005037371,-0.222604081,-0.0202589269
94643.403252,-0.239923869,0.476599712,-1.05326527,-0.000316918181,-0.174651727,-6.12476026e-05
94643.413279,0.0110773562,0.356072869,2.109125,0.0241351613,0.0624020961,-0.0465264852
94643.423307,-0.040434293,0.819436852,2.74436001,0.0733884592,0.230251015,-0.0787597905
94643.433334,-0.0673371321,-0.303013501,0.683581907,0.0452079569,0.154836148,-0.0408001552
94643.443361,0.20599809,-1.78348245,-1.38759016,-0.0815475936,-0.0592628191,0.0164881674
94643.453389,0.635966035,-1.60010493,-1.60941856,-0.0847263391,-0.122167751,0.0356834334
94643.463416,0.575758381,0.71827869,-0.368549311,0.0231452641,-0.0153699308,-0.0291677351
94643.473444,0.233202762,1.74894349,0.376169571,0.0923826565,-0.00262563911,-0.0602649312
94643.483471,-0.200483108,-0.313388125,-0.0336013168,-0.10143288,-0.0349806505,-0.00839481048
94643.493499,-0.132397049,-1.39869827,0.571339092,-0.0653028394,-0.0373367476,-1.51741435e-05
94643.503526,-0.449095393,1.050135,0.28885486,0.139701167,0.034786981,-0.0458151522
94643.513553,-0.191199732,0.745640963,0.625178234,-0.00682089006,0.128148616,-0.0112190927
94643.523581,0.842939903,-1.35894011,0.912243364,-0.0786237101,0.078328066,0.0113682411
94643.533608,0.717396364,-0.232984783,-0.885191258,0.0213276577,-0.0608007941,-0.0262521031
94643.543636,-0.209488033,0.61843899,-1.79934082,0.0149472561,-0.105949632,-0.0211244553
94643.553663,-0.0124851596,-0.378260812,-0.131965829,0.0193539896,-0.0176730319,-0.0220062277
94643.563691,-0.001612541,-0.538927576,0.899565668,-0.00130388565,-0.00436601511,-0.00144848797
94643.573718,-0.696720931,-0.950708269,0.55716502,-0.0577581059,0.0206083101,0.0363678661
94643.583745,0.107460486,-0.45943892,1.08073764,-0.0530094224,0.103465908,0.0112321534
94643.593773,0.834473249,1.07121783,0.78169566,0.0600452256,0.111032218,-0.045215943
94643.603800,0.199070775,0.890298002,-1.16368788,0.0949233119,-0.0374086532,-0.0220546975
94643.613828,-0.725589006,-1.25293064,-1.92145504,-0.0797819178,-0.111255712,0.0564371821
94643.623855,-0.331203611,-1.60083003,-0.330003599,-0.0696097072,-0.0289906687,0.0651782145
94643.633882,0.373167551,0.834843095,0.685066593,0.049415486,0.00368738405,-0.0225734796
94643.643910,-0.327551372,1.09290323,0.248468489,0.0272864793,-0.0145627274,-0.00523710075
94643.653937,-0.461657426,-1.15963239,0.403833238,-0.0684445705,0.016060431,0.0357454856
94643.663965,-0.190578166,-0.783782262,0.755417894,-0.0309637766,0.0558821452,0.0121046052
94643.673992,-0.150167464,0.674719899,-0.0364584598,-0.013758691,-0.00406294737,0.0137275354
94643.684020,-0.247713427,0.275214129,-0.530312237,-0.0311376806,-0.0256843544,0.0101666226
94643.694047,-0.120618348,0.576387462,0.0230534673,0.0522015934,0.00856602702,-0.0197128869
94643.704075,-0.588019514,0.615069148,-0.0251117209,0.0112996977,0.053811003,-0.00523407954
94643.714102,-0.387444115,-0.75421108,-0.0101812783,-0.00231358216,0.0119373235,0.011254616
94643.724129,-0.0116316846,-0.968985904,-0.33871356,-0.0316331218,-0.0109466878,0.0393035625
94643.734157,0.483393766,-0.729439554,0.111330301,-0.0281393192,0.0251729679,0.0341130596
94643.744184,0.297683417,0.29522783,0.0716599696,-0.0193165335,0.0168021195,0.011077782
94643.754212,-0.553574881,0.726799923,-0.84854875,-0.0019900081,-0.0540416944,0.0103725771
94643.764239,-0.340157902,0.384488195,-0.770791556,0.0169810206,-0.102290988,0.0165242133
94643.774267,0.518563645,0.0230210962,0.823112543,0.0309194718,0.00378645209,0.0322800045
94643.784294,0.0832147369,-0.142001923,1.82925066,-0.00733790168,0.132487432,0.016198241
94643.794321,-0.542504548,0.170277947,0.628062265,-0.0127244107,0.105872333,-0.0165458555
94643.804349,-0.0565584754,-0.0807307949,-0.98733412,0.00893667533,0.0218964801,-0.000508566492
94643.814376,0.65408468,-1.21939968,-1.17558582,-0.055793317,-0.0568643767,0.0500171919
94643.824404,0.871772029,-1.15971204,-0.652884723,-0.100548809,-0.0361806709,0.0543336411
94643.834431,-0.15732888,0.942609131,-0.52901869,0.0328268279,-0.116437964,0.0269912341
94643.844459,-1.16181126,1.73355069,-0.84285083,0.000290190458,-0.127104461,0.0115816518
94643.854486,-0.377991081,0.475460223,1.40777881,0.0976745282,0.0265751206,0.0315747996
94643.864513,-0.00542165095,-0.22466647,2.31782152,0.0613151957,0.163700223,0.0383927588
94643.874541,-0.281213911,-1.17790411,1.30241231,-0.0799868088,0.182180152,0.0894375731
94643.884568,-0.0841956933,-1.06930783,-0.660243854,-0.0551914442,0.0406581838,0.0593209443
94643.894596,0.144300489,1.06489491,-2.34727223,0.0985863973,-0.141139581,0.0525384051
94643.904623,0.167386474,0.721199034,-1.8255315,0.0338449535,-0.0779803167,0.0907507677
94643.914651,0.301395862,-0.0231524844,0.732782284,-0.0561054404,0.0033156052,0.0521935251
94643.924678,-0.305791303,1.47002236,0.462225806,0.0659719948,0.0131179024,-0.0215267661
94643.934705,-0.377935625,1.67157252,-0.620909622,0.104342023,-0.0631763409,-0.0441274169
94643.944733,-0.488989523,-0.602204665,-0.167157554,-0.0103403497,-0.0801140438,0.000510890863
94643.954760,-0.188208368,-1.91304377,1.11979247,-0.0336595196,0.00403066396,0.0434820604
94643.964788,-0.433114199,-0.396947173,1.28352465,-0.0689706411,0.0962684457,0.0206254803
94643.974815,-0.56544126,1.35013414,0.552346806,0.0190795921,0.113865018,-0.0277212794
94643.984843,-0.15755319,1.73642829,-1.02844997,0.126373554,0.0279527739,-0.0415971476
94643.994870,0.555441496,0.0836015796,-1.39662102,-0.0271875057,-0.0474972422,-0.0253231014
94644.004898,0.870528751,-1.34962868,-0.447659672,-0.0140229686,-0.101268865,0.00964739815
94644.014924,-0.0319463045,-0.510873229,-0.345025812,-0.0108775086,-0.0637449245,0.000419278524
94644.024951,-0.609333228,0.156110579,0.594731073,0.054908963,-0.0363641638,0.0169276808
94644.034979,-0.440737241,-0.308963623,1.07094223,-0.052800456,0.10370905,0.0400180881
94644.045006,1.20601677,-0.317581814,2.22199676,-0.0364063028,0.144813881,0.0311721311
94644.055034,1.46615583,1.02629235,0.306956918,0.0668705423,0.112931841,-0.0428243327
94644.065061,0.55425477,1.14021355,-1.7269437,0.0597378035,-0.0574414837,-0.0145309094
94644.075089,0.254843515,-0.947897888,-2.09810808,-0.0888370256,-0.135582625,0.017756191
94644.085116,1.20588876,-0.451579329,-0.00052965282,-0.0105523373,-0.0559194866,-0.0148795164
94644.095143,1.08315706,1.32102188,0.888704082,0.0873087068,-0.0066422201,-0.0602307516
94644.105171,0.387119066,0.428376181,0.754681981,0.0281085056,0.0405892064,-0.0236399855
94644.115198,0.411696896,-1.30667494,0.843144693,-0.0261792335,0.0383377713,-0.00190379667
94644.125226,0.92610765,-0.863784896,0.0767096542,-0.02689296,-0.0124804019,-0.00640134338
94644.135253,0.74046569,-0.26064719,-0.463483849,-0.00574879342,-0.0538869645,0.00894086146
94644.145281,0.129987667,-0.171746233,-0.341034112,-0.0172978583,0.00775216518,-0.00151790503
94644.155308,0.565104885,0.343300481,0.428830317,0.0225555488,0.0315861259,-0.0212942726
94644.165336,0.737515827,0.200049108,0.0588057487,0.0103798416,-0.0152117401,0.00752805442
94644.175363,0.681790286,-0.721779614,-0.0434148548,-0.0400785375,-0.0221812329,0.0281321321
94644.185390,0.759977834,-0.187449322,0.5042956,0.00867568522,0.0240312707,0.00901143522
94644.195418,0.733211115,0.490918818,0.469045423,0.0244069789,0.0508679454,0.0138735686
94644.205445,0.569094028,-0.122010544,-0.0531091504,-0.045748407,0.00585359798,0.0207916618
94644.215473,0.827624845,-0.141972971,-0.391166216,-0.00652111036,-0.0379245091,0.00837893401
94644.225500,0.980493832,0.567235055,-0.281611032,0.0460369047,-0.0125208819,-0.00574514001
94644.235528,0.694592777,0.20875052,0.0868417566,0.0149327834,-0.0049796086,0.00237244078
94644.245555,0.303081842,-0.461360937,0.0236572785,-0.0278527643,-0.0355500351,0.00510005037
94644.255583,0.168230815,-0.30528877,0.00568264582,0.00905625156,-0.0282175536,0.00788385317
94644.265610,0.38436531,-0.025501308,0.520752229,0.0160595664,0.0231926408,0.00535651286
94644.275637,0.549015847,-0.26004926,0.867210628,-0.0298205725,0.0627115522,0.0168288787
94644.285665,0.249946976,-0.313347099,0.13080774,-0.0366451907,0.0313733374,0.0154419037
94644.295692,0.284393508,0.252489836,-0.899060793,-0.000297036569,-0.0455925497,-0.00401115614
94644.305720,0.595889388,0.459118416,-0.840824877,0.034300888,-0.0764543261,-0.0072799205
94644.315747,0.493195395,-0.063773792,0.188192007,0.0211557914,-0.0353827882,0.00247124432
94644.325775,0.288865977,-0.673851011,1.09774957,-0.00347844877,0.0517103006,0.0270676677
94644.335802,0.457967283,-0.719930406,1.13778698,-0.0309329759,0.0920918067,0.0318930511
94644.345830,0.572177527,-0.265933094,0.128122446,-0.0439529027,0.0347526227,0.040836743
94644.355857,0.646804021,0.239277687,-0.858165304,-0.0317966397,-0.0286955904,0.0153377744
94644.365884,0.830915703,1.00948121,-0.80338625,0.0301825759,-0.0607011947,-0.00854385562
94644.375912,0.697542201,0.660495778,-0.184519608,0.0131236967,-0.0290548518,-0.000473945506
94644.385939,0.4379279,-0.246203142,0.608412392,-0.0162624195,0.00295741016,0.0095539213
94644.395967,0.354225388,-0.167291354,0.614791864,-0.0185788385,0.0275509045,0.00584573568
94644.405994,0.622192727,0.20733099,0.379223113,0.000106432365,0.0271527604,-0.00402021139
94644.416022,0.752457083,0.292824897,-0.0298434256,0.0173530635,0.0115927099,-0.000564759702
94644.426049,0.649690171,-0.0175161956,-0.41360835,0.000236927247,-0.0211090441,0.0111648672
94644.436077,0.597610878,-0.371771267,-0.329097006,-0.00960398645,-0.0430417727,0.0249752224
94644.446104,0.572818967,-0.253959054,0.124427683,-0.0163750722,-0.0179745029,0.0222497423
94644.456132,0.600909773,0.22457603,0.765359442,0.00886983058,0.0340538104,0.00698423701
94644.466159,0.566956212,0.449680506,0.687523338,0.0151482337,0.0582281207,-0.000149838731
94644.476186,0.714800722,0.0562127835,0.13002448,-0.00853792199,0.026670462,-0.000488859706
94644.486214,0.80233872,-0.131760259,-0.453129044,0.00263670163,-0.0257413457,-0.0088272161
94644.496241,0.70694124,-0.00579935383,-0.61336286,0.0080349297,-0.0461009476,-0.00697312421
94644.506269,0.5781897,-0.271610281,-0.0604939999,-0.0128104314,-0.020747121,-0.00727778963
94644.516296,0.363137813,-0.223100061,0.398425826,0.00395842834,-0.000943055515,-0.00843386828
94644.526324,0.211203477,-0.209699823,0.303455048,-0.00598048878,0.014190624,0.00377033408
94644.536351,0.328244998,-0.369849286,0.301146186,-0.0231775846,0.0201598336,0.00574853028
94644.546379,0.42175776,-0.0336898706,0.05811952,-0.00480789871,0.00556091636,0.00128906675
94644.556406,0.298507301,0.172100961,-0.265371845,-0.00275673222,-0.0111006177,0.000208356313
94644.566434,0.298650143,0.00671092158,-0.149717759,-0.0131507832,-0.0105312341,0.00519645669
94644.576461,0.324409146,0.108745364,0.155285178,0.00999022282,0.00206738173,0.000929539918
94644.586488,0.333838069,0.205419768,0.258116607,0.0132856183,0.0151666724,0.00677198301
94644.596516,0.319919653,-0.214615634,0.292121168,-0.0198994986,0.0233790618,0.019849968
94644.606543,0.320497672,-0.165652939,0.112932476,-0.011778457,0.0126782148,0.0100474049
94644.616571,0.40785571,0.299704976,-0.200806726,0.0069060154,0.00351800535,0.00337086002
94644.626598,0.507673344,0.118097002,-0.15681327,-0.00439510861,-0.00485390753,0.0050989854
94644.636626,0.421616452,-0.109805763,-0.0634937663,-0.0107126589,-0.00769816388,0.00474558388
94644.646653,0.381714941,0.0337939236,-0.0328636502,-0.00503373466,-0.00730002068,0.00181610639
94644.656681,0.355408461,0.156871682,0.0510134874,0.00283111243,-0.00578441613,-0.00702399119
94644.666708,0.306562597,0.152576396,0.081136823,0.006308402,-0.00216624562,-0.00507109436
94644.676736,0.284146694,-0.11096066,0.107008346,-0.00290240713,0.00224661243,0.00413838298
94644.686763,0.227008729,-0.257007938,0.0996240813,-0.00548008078,0.0037361183,0.0065706483
94644.696790,0.202905092,-0.113474213,-0.00529116813,-0.00263104907,0.000804083575,0.00858961873
94644.706818,0.232322618,-0.0516334596,-0.032511768,-0.00793313694,-0.00381836484,0.0135055472
94644.716845,0.308922166,-0.0256713194,0.00508409541,-0.0040728845,-0.00322261595,0.0134120704
94644.726873,0.28707376,0.0951269447,0.00978072879,-0.00834619247,-0.00583517693,0.0122666451
94644.736900,0.246138742,0.147235975,0.0379792338,-0.00493734696,-0.00355338028,0.00543696842
94644.746928,0.273536672,0.220243061,0.124023194,0.00369049615,0.00269572691,-0.00294559739
94644.756955,0.254458973,0.205611236,0.146701474,-0.000873629289,0.00598925816,-0.00350006773
94644.766983,0.304544024,0.0756811527,0.100701355,6.19392439e-05,0.00418949404,-0.00749827094
94644.777010,0.320334444,0.112977001,0.0176238435,0.0087584919,1.95163084e-05,-0.0108290865
94644.787038,0.315550278,-0.00137864903,-0.0447779599,0.00886475208,-0.00309957799,-0.00739121168
94644.797065,0.349094236,-0.290021004,0.00883263429,-0.00330935645,-0.00438268904,6.03123452e-05
94644.807093,0.314240876,-0.36911688,0.0732370097,-0.00530779262,-0.00419680031,0.00626814076
94644.817120,0.282650464,-0.26414727,0.0928570714,-0.00578529754,0.0017692131,0.00729319163
94644.827147,0.308656866,-0.148702909,0.143677158,-0.0125430682,0.00567873379,0.00997419552
94644.837175,0.316251778,-0.0558599593,0.0967821359,-0.00662206247,0.00370293434,0.00811610826
94644.847202,0.293848296,0.0870071776,-0.0157582016,-0.00058094784,-0.000886757531,0.00561753091
94644.857230,0.339867923,0.0847715549,0.0326980785,-0.0072580254,0.00422331595,0.00524095994
94644.867257,0.350383545,0.0768823908,0.0830750976,0.00383483951,0.00325499054,0.000411849364
94644.877285,0.260218706,0.114360345,-0.0173621297,0.00234559976,0.00148638545,0.000546606153
94644.887312,0.264279891,-0.0448334516,0.0200314892,-0.00730542972,0.00203153442,0.00781783451
94644.897340,0.289749409,-0.0375827224,0.0535181637,-0.00585507223,0.00157453607,0.00756749733
94644.907367,0.252431048,0.0990493515,-0.00127374919,-0.00412348465,0.00269812367,0.00832330239
94644.917395,0.285827852,0.160752103,0.0305657427,-0.0023399656,0.00354554176,0.00916566037
94644.927422,0.355527703,0.186498119,0.0368096055,-0.00342813314,0.00139637056,0.00976407238
94644.937450,0.358358397,0.253048055,0.0204979376,0.00214985765,-0.0015163288,0.00289258444
94644.947477,0.363844135,0.25884116,0.0243797475,0.00679014909,0.00131754098,0.00120094455
94644.957505,0.402374502,0.146593467,0.0949601812,0.00156742422,0.00353622062,-0.00147020641
94644.967532,0.350590247,0.0226646177,0.0545176961,0.00510277047,0.000669061301,-0.00634032871
94644.977560,0.335230181,-0.00560706439,-0.00787650845,0.00966716285,-0.000471304309,-0.00681117653
94644.987587,0.365944176,-0.192240703,0.0314618147,0.00304388075,0.00163179401,-0.00289686128
94644.997614,0.351135898,-0.34403205,0.0796275875,-0.00512110482,0.000414995688,-0.000146349065
94645.007642,0.32832347,-0.302074284,0.0437087174,-0.00870092579,0.00173805419,0.00607372996
94645.017669,0.360287757,-0.169206759,0.0478933096,-0.00609076203,-0.000894214165,0.0045168464
94645.027697,0.337917228,-0.0288495453,0.020520734,-0.00336395104,-0.0012089998,0.00404253731
94645.037724,0.304042431,-0.00293892974,0.0478985703,-0.00507396686,0.0018262048,0.00463642216
94645.047752,0.299226116,0.0219136053,0.0676291066,-0.00486757181,0.00168665508,0.00282627147
94645.057779,0.284191483,0.0837032772,0.0276682677,-0.00171465548,0.000109264838,0.00313732856
94645.067807,0.28165042,0.121672668,0.00447560812,-0.00259855849,-3.34806027e-05,0.00414933021
94645.077834,0.314761978,0.122455727,0.0287221606,-0.00303718115,-0.00306042938,0.00465027046
94645.087862,0.304642296,0.128132896,0.0175262284,-0.00128082657,-0.00124894725,0.00374958933
94645.097889,0.305346791,0.149130392,0.0485140718,0.000482718641,-0.000457722133,0.00231254789
94645.107917,0.310686399,0.168249144,0.0806610222,0.00162947592,0.00404195485,8.90743802e-05
94645.117944,0.296713257,0.149724303,0.0379874171,0.00473685197,-0.000157051276,-0.00408489733
94645.127972,0.278792254,0.101322082,0.0064162208,0.00989965635,-0.000928569025,-0.00493631057
94645.137999,0.251558649,-0.0478921085,0.0155604812,0.00605857891,-0.00231953806,-0.00418157048
94645.148027,0.239271122,-0.206140834,0.0442879785,-0.00102303264,0.000529511635,0.00058815059
94645.158054,0.188625515,-0.214615598,0.0354698813,-0.00139720673,-0.000672106537,0.00346143533
94645.168082,0.158558586,-0.135960295,0.0125963707,-0.0020283758,-0.00126279578,0.00242999325
94645.178109,0.124947262,-0.10384648,0.0232288239,-0.00337007635,-0.00054906858,0.00370538085
94645.188137,0.0895513926,-0.0374655258,0.0203769416,-0.00556585279,0.00182407417,0.00439194393
94645.198164,0.101898979,0.0532316305,0.03022672,-0.00621379999,0.0018429827,0.00276501885
94645.208191,0.0756657829,0.170587725,-0.00597096709,-8.93283224e-05,-0.0049848296,0.000986560143
94645.218219,0.0493013614,0.218998997,-0.0247925719,0.00582661766,-0.00190142172,7.78891961e-05
94645.228246,0.04476591,0.129139771,0.0473257388,0.000823336951,0.00199451656,0.00367741789
94645.238274,0.00335545668,0.0298603128,0.0455166436,-0.00185313989,0.000659740217,0.00371150615
94645.248301,0.0163720285,0.0923780844,-0.0155360833,0.0045352509,-8.38143969e-05,0.00139748574
94645.258329,0.0359811305,0.0933946867,-0.0147878953,0.002707257,-0.00181806474,-0.00123851105
94645.268356,0.0282031899,0.0550459317,-0.0117776075,0.00709428226,-0.00100846393,-0.00406226061
