t,ax,ay,az,gx,gy,gz
86788.943807,-0.146299765,0.289921615,-0.505146155,0.025670927,0.386951417,0.245423481
86788.953835,-0.220954754,0.474681349,-0.405658776,0.11334607,0.446998537,0.170589954
86788.963864,-0.282004997,0.496649874,-0.373852602,0.156187013,0.434815615,0.110517032
86788.973892,-0.0997159272,0.355660125,-0.588507744,0.0841154754,0.25557822,0.0743941814
86788.983920,0.349602177,0.127621331,-1.01079441,-0.0199850928,-0.0313062593,0.0507245436
86788.993948,0.00784947139,0.167378793,-0.924638811,-0.142438829,-0.278900892,0.0456544161
86789.003977,0.0429930463,0.149275164,-0.921070889,-0.232654214,-0.41802761,0.0487942845
86789.014005,-0.0813266494,-0.0271847614,-0.391817882,-0.258657873,-0.427515119,0.0534252524
86789.024033,-0.299401683,-0.158269202,-0.11025661,-0.091475524,-0.372685701,0.0169151798
86789.034062,0.349860389,0.0161659392,-0.0209317289,-0.0123484777,-0.38768968,0.0711315423
86789.044090,1.00344464,-0.082080774,0.726485306,-0.17381379,-0.266584575,0.0999245793
86789.054118,0.101590854,-0.0654144657,0.128519412,0.00813842099,-0.193525255,0.0652835071
86789.064146,-0.141504201,0.245551746,0.290625453,-0.0238887537,-0.168771446,0.067117095
86789.074175,-0.00584773965,0.23374044,0.291776376,-0.0262232814,-0.138613001,0.0640022606
86789.084203,-0.284035882,0.51037032,0.306017083,0.00302967941,-0.115431793,0.0159279443
86789.094231,-0.274381407,0.515279134,0.306427417,0.133970663,-0.0998917148,-0.0705784559
86789.104260,-0.245424302,0.539259729,0.537304796,0.158324197,-0.114311136,-0.145728067
86789.114288,0.115895822,0.516231759,0.652260962,0.169403225,-0.140385866,-0.17131412
86789.124316,0.303609766,0.557741581,0.639158904,0.176200137,-0.15487799,-0.183667719
86789.134344,0.282210639,0.65570102,0.818935041,0.174532726,-0.16037716,-0.193103835
86789.144373,0.260807091,0.576214518,0.750982618,0.19551231,-0.15319328,-0.180564344
86789.154401,0.319109643,0.510807542,0.654494421,0.242689952,-0.13677755,-0.131087333
86789.164429,0.45034942,0.474632505,0.549226704,0.316625684,-0.11595431,-0.0562016442
86789.174457,0.447739055,0.54210299,0.458373298,0.407687932,-0.102385767,0.0173503384
86789.184486,0.34243729,0.582193885,0.383118443,0.471601665,-0.106139489,0.0903529078
86789.194514,0.213171918,0.578675173,0.168616445,0.550091445,-0.122022316,0.153705254
86789.204542,0.0860230271,0.672412428,0.00724514882,0.597269893,-0.152946398,0.202108741
86789.214571,0.072271492,0.754598836,0.00851589941,0.582999885,-0.187432736,0.226260677
86789.224599,0.0950046443,0.793078204,-0.038320086,0.558386147,-0.224124715,0.234448567
86789.234627,0.133552073,0.830766641,0.0290437237,0.504925013,-0.258259267,0.220778286
86789.244656,0.21396811,0.730593837,0.159860892,0.43480584,-0.287490129,0.190648884
86789.254684,0.264738238,0.612681159,0.229095171,0.365773529,-0.305135429,0.141622484
86789.264712,0.185480778,0.480107502,0.34192134,0.279939294,-0.303782016,0.0734727308
86789.274740,0.00843353662,0.209806607,0.362095529,0.128651798,-0.292993546,0.00318764895
86789.284769,-0.222501089,0.0576652033,0.210225636,0.0916255936,-0.278710216,-0.0272866357
86789.294797,-0.345865657,0.317223829,0.113572019,0.235322043,-0.254880786,-0.00924824737
86789.304825,-0.210953968,0.580026916,0.357949515,0.398132801,-0.245314419,0.039626617
86789.314854,0.182771483,0.755292298,0.169373401,0.564826727,-0.252844244,0.0915385485
86789.324882,0.412025827,0.827743421,0.279911166,0.606210887,-0.288717836,0.147953615
86789.334910,0.53254076,0.713984355,-0.04022855,0.605900943,-0.352221429,0.178503007
86789.344938,0.370328739,0.676280136,-0.0863859056,0.502303183,-0.423292965,0.159008935
86789.354967,0.196564227,0.451203845,-0.035687984,0.370187163,-0.496470749,0.100455612
86789.364995,0.14584213,0.362197674,-0.115726566,0.351478726,-0.553157985,0.0122567778
86789.375023,0.0763051588,0.556910537,0.0507452679,0.471694618,-0.580035686,-0.0935261101
86789.385052,0.157270309,0.581311257,0.323449279,0.710428953,-0.581353426,-0.181255966
86789.395080,0.399276637,0.489899486,0.609704262,0.967882574,-0.543038011,-0.233829692
86789.405108,0.456872465,0.301939312,0.959132032,1.11569357,-0.387906998,-0.236326143
86789.415136,0.212922181,-0.0681518913,1.35306355,1.0405829,-0.019048797,-0.156542361
86789.425165,0.0823859127,-0.619898616,1.2340923,0.803496301,0.418786854,0.0203735605
86789.435193,-0.145371142,-0.90528193,0.826139858,0.513562739,0.785187781,0.187217668
86789.445221,-0.506646404,-0.767706374,-0.009105682,0.418754697,0.917429686,0.215819746
86789.455250,-0.555966571,-0.32767961,-0.10476152,0.363118082,0.852581441,0.138394207
86789.465278,-0.180660372,-0.221660491,0.0811480049,0.349524766,0.720615149,0.0295140613
86789.475306,0.246210447,-0.373683675,0.238133049,0.372697741,0.593623936,-0.0388333052
86789.485334,0.485205666,-0.449293627,0.543314266,0.380285889,0.499092877,-0.0534402132
86789.495363,0.509407758,-0.244539993,0.549106293,0.425575584,0.468534708,-0.00156156626
86789.505391,0.204790587,-0.0204708334,0.288294379,0.450314224,0.483952284,0.0787058398
86789.515419,-0.19588914,-0.415253118,0.100884387,0.317335397,0.511274457,0.170224041
86789.525448,-0.384218842,-0.913675664,-0.10380875,0.0489681438,0.384614497,0.185739353
86789.535476,-0.340978141,-0.730373545,-0.762382548,-0.067998156,0.0673558637,0.033916533
86789.545504,0.0887041194,-0.131022335,-1.00640173,-0.147160083,-0.308989555,-0.168994501
86789.555532,0.531454828,0.105261286,-0.765471747,-0.209858343,-0.564339817,-0.236456364
86789.565561,0.731828639,0.141691467,-0.768121384,-0.211962253,-0.66515857,-0.161320075
86789.575589,0.681365769,0.0727741443,-0.328340558,-0.277927428,-0.66948247,-0.0162409097
86789.585617,0.328025063,0.164509302,-0.0857481922,-0.298479319,-0.667760491,0.10008277
86789.595646,0.0320200269,-0.00874342456,-0.320272987,-0.29043895,-0.677883685,0.171432585
86789.605674,-0.334084217,-0.0702284053,-0.554048425,-0.23082222,-0.697566867,0.171532184
86789.615702,-0.596349033,0.0580304564,-0.444465184,-0.183752447,-0.689241529,0.116540305
86789.625731,-0.491292402,0.118746791,-0.335953956,-0.159644976,-0.706632793,0.0339663327
86789.635759,-0.299211915,0.384643168,-0.383009137,0.0233519953,-0.766620517,-0.057568647
86789.645787,-0.152526201,0.579595685,-0.333966582,0.1783842,-0.877490819,-0.161565885
86789.655815,-0.362342343,1.2589241,-0.452909187,0.360820562,-1.01228607,-0.302786916
86789.665844,0.0108441597,1.09165557,-0.546852961,0.595283151,-1.1455369,-0.408284575
86789.675872,0.707270317,0.569885315,-0.327590617,0.839685977,-1.22974038,-0.48609975
86789.685900,0.977165117,0.742612411,0.44324821,1.05304253,-1.26443815,-0.58072722
86789.695929,0.798935698,1.15943614,0.74823595,1.28900838,-1.30159307,-0.657042205
86789.705957,0.659003569,1.0101358,0.493480852,1.42797911,-1.37030876,-0.660675049
86789.715985,0.628981574,0.420332906,0.529322565,1.36066318,-1.43019438,-0.589648783
86789.726014,0.539888237,-0.198322724,0.852857185,0.99806869,-1.46524715,-0.494041532
86789.736042,0.285903685,-0.463602431,1.01216804,0.490214497,-1.47979367,-0.39629209
86789.746070,0.0227184662,-0.449599332,0.885180661,-0.0090586748,-1.48502302,-0.290060729
86789.756098,-0.279958367,-0.307883461,0.716902654,-0.497537017,-1.45780468,-0.137265339
86789.766127,-0.67418974,-0.301236571,0.684806557,-0.820277512,-1.2290355,-0.00353230536
86789.776155,-1.85465581,-0.207454125,0.544004001,-0.896722198,-0.731081128,0.109489322
86789.786183,-2.761735,0.119269061,0.542585951,-0.776761174,-0.196348742,0.272577047
86789.796212,-1.17662503,0.0194444129,1.78358496,-0.75120306,0.0387375392,0.628691435
86789.806240,0.200672794,-0.157272775,0.664557549,-0.71148175,-0.0760140792,1.03535807
86789.816268,0.971396032,0.565324583,-0.55343117,-0.547385514,-0.401974082,1.31789219
86789.826297,0.768421098,1.37544869,-1.00156306,-0.350019187,-0.608549356,1.39531994
86789.836325,-0.209097508,2.0536744,-0.706167909,-0.111920871,-0.585740745,1.29345858
86789.846353,-1.02815471,2.40158154,-0.0773889446,0.156701803,-0.425069541,1.05944395
86789.856381,-1.30580188,2.15921977,0.699248339,0.38347289,-0.307694972,0.771112502
86789.866410,-1.02108858,1.3925122,0.587847819,0.545456469,-0.332697004,0.488404959
86789.876438,-0.840034966,0.927732831,0.531469514,0.501602471,-0.389510751,0.224100858
86789.886466,-1.01183603,0.542529837,0.727148153,0.361730844,-0.379466116,0.0286860839
86789.896495,-1.14914432,-0.00619315555,1.08909288,0.248443976,-0.254001409,-0.0632401109
86789.906523,-1.11619789,-0.519193239,2.01771929,0.175865382,-0.0351028629,-0.0588395074
86789.916551,-0.883261091,-0.74546327,2.89492357,0.105069228,0.26493153,-0.0243430454
86789.926579,-0.927164676,-0.560078792,3.81707758,0.152737156,0.681125283,-0.0619745776
86789.936608,-0.729192665,-0.477876748,4.1004345,-0.118420586,1.07401323,-0.144521922
86789.946636,-0.346635071,-0.585356441,3.41604062,-0.229316205,1.31586611,-0.253943741
86789.956664,0.0724336603,0.161330818,2.02519474,-0.423563629,1.36329043,-0.301928788
86789.966693,-0.0337253056,0.786411366,1.26611124,-0.566336751,1.33020568,-0.380859017
86789.976721,-0.210243902,0.838881558,-0.435218048,-0.436854661,1.28228903,-0.511285245
86789.986749,-0.425314932,1.00947076,-1.53597798,-0.213522747,1.14051354,-0.691254199
86789.996778,-0.577371726,0.803043352,-1.70474348,-0.174922362,0.908204138,-0.807971776
86790.006806,-0.83861677,0.49257192,-2.03251763,-0.138969421,0.669255197,-0.792179227
86790.016834,-1.01972357,0.381462346,-2.29190916,-0.127077341,0.454059064,-0.711220443
86790.026862,-1.1842035,0.243890151,-2.37746855,-0.0284647532,0.198914096,-0.635824502
86790.036891,-1.24563836,0.122745359,-2.46736627,0.0726517439,-0.0608775318,-0.596790791
86790.046919,-1.09993561,0.0811658328,-2.01168118,0.0757194385,-0.228211671,-0.529427469
86790.056947,-0.650643444,0.101672468,-1.20261229,0.0235920567,-0.292862296,-0.390018433
86790.066976,-0.308715821,-0.24404768,-0.3691057,-0.0357596837,-0.250691652,-0.16796568
86790.077004,-0.0648233314,-0.693932989,0.264298002,-0.0724260882,-0.113844872,0.0495794341
86790.087032,-0.120615654,-0.813821936,0.549835776,-0.0835114941,0.0831619352,0.191443354
86790.097061,-0.523719923,-0.832166279,0.845187673,-0.175987095,0.265636146,0.240142182
86790.107089,-0.815588946,-0.54902446,0.503273347,-0.223495752,0.376320034,0.21081093
86790.117117,-1.28394325,-0.456799473,0.9252812,-0.510030866,0.760863423,0.225739017
86790.127145,-1.57284085,-0.146940766,0.52461541,-0.296295673,0.962106824,0.165831476
86790.137174,-1.34065634,0.377954776,0.831581172,-0.334821224,1.1177994,0.0773628652
86790.147202,-1.38560037,-0.182092451,0.637842561,-0.132497147,1.19249344,0.0250549167
86790.157230,-1.36990216,0.0671618574,0.434387442,0.101304159,1.24546051,-0.0502771214
86790.167259,-1.48250855,0.395184874,0.8712743,0.212515116,1.17009354,-0.164420217
86790.177287,-1.28619775,0.625691666,1.1306705,0.0707150921,0.906668067,-0.162373036
86790.187315,-1.12648255,0.27433059,0.569706013,-0.0369336046,0.739491582,-0.00877415389
86790.197344,-1.62352299,0.217558317,-0.493467408,-0.0741653964,0.636285305,0.113453753
86790.207372,-2.4082939,0.41781537,-0.47559039,-0.203910604,0.544801712,0.169031784
86790.217400,-2.9255265,0.463163747,-0.72377137,-0.322203964,0.493536144,0.182277024
86790.227429,-3.01245835,0.675258976,-1.46279233,-0.391821921,0.427605867,0.129134983
86790.237457,-2.72834681,0.649650342,-2.07525145,-0.4212448,0.323616892,0.0375794992
86790.247485,-2.41087149,0.163316001,-2.29646492,-0.378146082,0.194308951,-0.0758818164
86790.257513,-2.04237384,-0.306736191,-1.89481538,-0.217734814,0.142591164,-0.12790294
86790.267542,-1.73499424,-0.590616992,-0.61325757,-0.168002144,0.158512875,-0.110839002
86790.277570,-1.63955,-0.659472355,0.706854138,-0.186589405,0.262515455,-0.0334507376
86790.287598,-1.64674079,-0.472916349,1.21270406,-0.245870575,0.398870617,0.101111606
86790.297627,-1.72698307,-0.158755999,1.08515904,-0.28532666,0.472311556,0.216089845
86790.307655,-1.86513395,0.218774561,0.30276305,-0.250359327,0.431910872,0.294581473
86790.317683,-1.81687129,0.422763494,0.103590138,-0.296611249,0.238657236,0.338948667
86790.327712,-1.53733407,0.60536141,0.297284326,-0.381099254,0.00135388412,0.353093773
86790.337740,-1.33353496,0.589453939,0.744089351,-0.433053523,-0.124079667,0.379448175
86790.347768,-1.36482018,0.450705832,1.3952029,-0.469723135,-0.09264265,0.354652524
86790.357796,-1.54138831,0.216600578,1.72199564,-0.474812418,0.0128803113,0.259861857
86790.367825,-1.67795133,-0.0738831285,1.59689744,-0.456026495,0.103436045,0.154524222
86790.377853,-1.54073423,-0.319937618,1.30092069,-0.441195071,0.142843902,0.093627587
86790.387881,-1.1408612,-0.40942865,0.845273013,-0.464272171,0.147711352,0.0740336478
86790.397910,-0.797027891,-0.417017205,0.155331431,-0.489738911,0.11789009,0.0801637098
86790.407938,-0.743811192,-0.516501662,-0.455394575,-0.467167825,0.0216120165,0.119237609
86790.417966,-0.65204257,-0.671604399,-0.757197255,-0.40695855,-0.114928246,0.146770164
86790.427995,-0.551795824,-0.696373076,-0.838190361,-0.320327252,-0.221599042,0.149946243
86790.438023,-0.58393408,-0.640530193,-0.386364877,-0.282844841,-0.257441431,0.153197706
86790.448051,-0.66649955,-0.457066015,0.349475701,-0.290338993,-0.237138852,0.155200392
86790.458080,-0.768046639,-0.286350917,0.637826194,-0.305419147,-0.185822666,0.12748462
86790.468108,-0.86296744,-0.0718465811,0.436571216,-0.305129111,-0.143658698,0.0349182002
86790.478136,-1.01800917,0.242590467,0.188897601,-0.331994027,-0.0985396877,-0.111082949
86790.488164,-1.20333227,0.316681904,-0.0832289028,-0.349702984,-0.0647023618,-0.268903464
86790.498193,-1.17161107,0.123471481,-0.514420179,-0.349833459,-0.0850377232,-0.419131577
86790.508221,-0.896466901,-0.231177165,-0.830920663,-0.318303227,-0.1399436,-0.535340488
86790.518249,-0.604007658,-0.606858225,-0.719586194,-0.282166541,-0.194967434,-0.581405461
86790.528278,-0.379756273,-0.962157956,-0.359896557,-0.254918933,-0.186980084,-0.557044446
86790.538306,-0.23952759,-1.23728145,0.0318009134,-0.257267326,-0.144501597,-0.483082861
86790.548334,-0.243154658,-1.22700409,0.278275674,-0.264753193,-0.13083905,-0.41318208
86790.558363,-0.415900001,-1.10847898,0.389554029,-0.257987976,-0.135906234,-0.37137869
86790.568391,-0.568199554,-0.975717914,0.544974892,-0.253692031,-0.122949153,-0.34281683
86790.578419,-0.521034593,-0.74989285,0.601651304,-0.295050919,-0.0590884201,-0.320560545
86790.588448,-0.336091319,-0.490419418,0.41610009,-0.361952186,0.0378533043,-0.302980214
86790.598476,-0.235318576,-0.556997558,-0.18573826,-0.408013672,0.122410007,-0.267410755
86790.608504,-0.0712085024,-0.677988109,-1.09380763,-0.423130602,0.178650364,-0.210953355
86790.618532,-0.025010961,-0.659375617,-2.03299753,-0.446808487,0.180320963,-0.144679263
86790.628561,-0.224648549,-0.406703463,-2.66464006,-0.469993979,0.0969334096,-0.0931958258
86790.638589,-0.325778891,-0.0209791482,-3.00904913,-0.46807915,-0.0576556399,-0.10056559
86790.648617,-0.0942126719,0.184305049,-3.09772811,-0.40142557,-0.229447648,-0.165158167
86790.658646,0.418117202,0.102279019,-2.69502819,-0.329457611,-0.331929266,-0.228027686
86790.668674,1.03732879,0.0728845824,-1.73844993,-0.27009204,-0.319514394,-0.244454339
86790.678702,1.56220489,0.185088053,-0.72039108,-0.266288787,-0.210528284,-0.212323293
86790.688731,1.78338578,0.27546522,-0.00514262359,-0.306783199,-0.0595672578,-0.152978212
86790.698759,1.57064568,0.427283492,0.271442613,-0.342826426,0.0603287853,-0.0873448625
86790.708787,1.12571609,0.747735526,0.136557757,-0.332605481,0.0969531164,-0.0770938173
86790.718816,0.663074764,1.00429892,-0.0253203192,-0.304117382,0.0665664449,-0.138895407
86790.728844,0.262344329,1.13898416,0.099148941,-0.261566192,0.00701682968,-0.251333803
86790.738872,0.00295273059,1.12519616,0.474932803,-0.216429859,-0.0372784622,-0.375789434
86790.748900,-0.021544801,1.00664153,1.1977818,-0.189161226,-0.0345769525,-0.445394069
86790.758929,0.133305642,0.662669909,2.01467686,-0.200397089,0.0665861517,-0.420769423
86790.768957,0.12711393,0.272991578,2.48155729,-0.261485755,0.227037072,-0.315470964
86790.778985,-0.221674429,0.110385059,2.27520294,-0.313483179,0.363033265,-0.173233673
86790.789014,-0.762752697,-0.0497165641,1.44346102,-0.336220443,0.396602422,-0.0581174642
86790.799042,-1.43815751,-0.0528217088,0.280816006,-0.242567718,0.328109652,-0.0154376477
86790.809070,-2.11726206,0.140166066,-0.502870611,-0.151483878,0.164475158,-0.103310779
86790.819099,-2.44544903,0.278806402,-1.0299527,-0.0418644473,-0.0510651171,-0.314131141
86790.829127,-2.45795605,0.35009449,-1.21381406,0.126524299,-0.239135951,-0.569297671
86790.839155,-2.3556881,0.363437627,-0.468771942,0.217992693,-0.346417397,-0.772697151
86790.849184,-2.06229274,0.230214604,0.715389911,0.265692025,-0.344356894,-0.87406373
86790.859212,-1.61210567,-0.100568653,1.43808576,0.265199602,-0.263814926,-0.854803741
86790.869240,-1.24697545,-0.358645388,1.81279761,0.252616435,-0.190691188,-0.754931986
86790.879269,-1.02184027,-0.49082051,1.779218,0.244194746,-0.143200636,-0.584972799
86790.889297,-0.834466884,-0.435467091,1.7475299,0.204922169,-0.105460711,-0.383787155
86790.899325,-0.7097861,-0.00469528168,1.74170104,0.098546721,-0.0453582294,-0.191717073
86790.909353,-0.615575638,0.193455958,1.49801328,0.0336931609,0.0206623338,-0.0256665852
86790.919382,-0.373691603,0.287067249,0.436442037,0.0759719014,0.0739929378,0.0923575237
86790.929410,-0.107102676,0.19267869,-0.00949088192,0.0363318212,0.0497874618,0.130873755
86790.939438,0.0881752732,0.0999809714,-0.439070047,0.00343778566,0.0290960316,0.095527485
86790.949467,0.269343906,0.187081638,-0.873586084,0.10308262,0.0542557128,-0.0404151678
86790.959495,0.0122500262,0.289501746,-0.237053437,0.106465809,0.12951386,-0.240954489
86790.969523,-0.29740282,-0.0653112246,0.710463561,0.116325893,0.315467775,-0.382523626
86790.979552,-0.185105424,-0.589250635,0.498023756,0.14886573,0.533492744,-0.4269723
86790.989580,0.0329873284,-0.770595519,0.447268551,0.0982946977,0.672127903,-0.356289357
86790.999608,0.233351879,-0.664627692,0.384186949,0.0394095406,0.734430134,-0.175006896
86791.009637,0.435237045,-0.245457108,-0.0160410342,0.0838606283,0.756328523,0.0400063396
86791.019665,0.382409783,0.427133599,-0.517726235,0.143136472,0.676598251,0.191667497
86791.029693,0.18741065,0.828027279,-1.1338731,0.269160986,0.535897076,0.200374708
86791.039722,-0.285826126,1.27473849,-1.75135033,0.449978679,0.376363605,0.0696105734
86791.049750,-1.0021185,1.66767339,-1.30066759,0.481835157,0.269192159,-0.153480574
86791.059778,-0.953345119,1.79055728,-1.10766021,0.554506421,0.212688103,-0.395737171
86791.069807,-0.649728887,1.51782536,-0.939645826,0.611575842,0.16289632,-0.573740423
86791.079835,0.00921646716,1.0537236,-0.503268086,0.694634259,0.105552867,-0.631910503
86791.089863,0.819459942,0.660475906,0.139731711,0.738897324,0.0480826572,-0.584065497
86791.099891,1.67315124,0.59928684,0.85222064,0.736392856,0.0163878426,-0.470733911
86791.109920,2.53179431,0.45310566,1.4957693,0.677242756,0.0457151048,-0.27334094
86791.119948,3.17977599,-0.115171709,2.03859783,0.563882113,0.17723158,0.0417650938
86791.129976,3.36138373,-0.329736031,2.03094644,0.404591233,0.425845683,0.400889963
86791.140005,2.69970524,0.0337789355,1.34341543,0.170107633,0.696489692,0.710768461
86791.150033,1.6647635,0.172576727,0.0035007016,-0.0303253327,0.878203034,1.00132918
86791.160061,0.933604719,0.603432196,-2.41945184,-0.0878810361,0.829550266,1.18502367
86791.170090,0.216937737,1.5457883,-4.30836238,-0.032056123,0.532732427,1.21050692
86791.180118,0.0661986749,1.91442361,-4.36898841,-0.135818213,-0.0154185556,1.13244426
86791.190146,1.01968346,1.77960758,-4.56959632,0.0142048514,-0.560731411,1.08690214
86791.200175,1.26249539,1.25542296,-1.998886,0.051413741,-0.898101687,1.1043067
86791.210203,1.68640235,0.279811652,1.16596276,0.0556859821,-0.911764503,1.20900166
86791.220231,2.04776299,-0.354045128,3.33962432,-0.00208384031,-0.698216319,1.28872395
86791.230260,1.52655899,-0.407257589,5.05750434,-0.0796457455,-0.343970865,1.30103254
86791.240288,0.453473543,-0.264548178,5.93071633,-0.195364892,0.0737283602,1.23053229
86791.250316,-0.534087295,0.0600655424,5.63361028,-0.34483242,0.496082276,1.06876385
86791.260344,-1.14349301,0.241340613,3.80930285,-0.441207945,0.82027632,0.810414672
86791.270373,-1.57958989,0.297682532,1.2515128,-0.418227255,0.921261251,0.480987191
86791.280401,-1.78318748,0.190377757,-1.16289169,-0.325518101,0.797309518,0.185256213
86791.290429,-1.47453114,-0.0907220351,-2.81625218,-0.248974323,0.532074928,-0.0247153975
86791.300458,-1.20395026,-0.255353721,-3.63566887,-0.162919343,0.189743116,-0.156662777
86791.310486,-1.12895829,-0.365920859,-3.53115986,-0.0470446572,-0.138763666,-0.213113531
86791.320514,-0.889341068,-0.545820184,-2.34966051,-0.0186023638,-0.365169883,-0.212150544
86791.330543,-0.607330811,-0.718566349,-1.01504272,0.0157665294,-0.454882741,-0.179348111
86791.340571,-0.384758282,-0.913191096,0.0862023657,0.0302663743,-0.455439597,-0.154260606
86791.350599,-0.313120083,-0.954667381,1.18145143,0.0138972569,-0.383037299,-0.137852609
86791.360628,-0.271204274,-0.788953671,1.74833595,-0.0261537563,-0.266571939,-0.153984964
86791.370656,-0.242992325,-0.574744227,1.95816645,-0.1237128,-0.154839307,-0.16398035
86791.380684,-0.0100661245,-0.713179103,1.59310564,-0.185203314,-0.0436315536,-0.137211323
86791.390713,0.147916077,-0.980474314,0.740917151,-0.216365516,0.0593784526,-0.0992554128
86791.400741,0.00240161778,-1.08095911,0.0272188463,-0.234162629,0.107874349,-0.0638928935
86791.410769,-0.0289335413,-1.05215518,-0.64343702,-0.243374228,0.103668414,-0.0214346498
86791.420798,0.058057929,-1.00780853,-1.3453689,-0.264187098,0.0673191994,0.0144112315
86791.430826,-0.0677079104,-0.860630522,-1.86999308,-0.262567908,0.0328909196,0.044172857
86791.440854,-0.245321536,-0.70467694,-2.06090786,-0.253138185,0.00132580241,0.065495722
86791.450883,-0.255319782,-0.497002304,-2.32231716,-0.208663911,-0.0168785006,0.0876007602
86791.460911,-0.320883411,-0.299803761,-2.4417759,-0.197312444,-0.030504033,0.0859338865
86791.470939,-0.683129856,0.080844638,-2.21739197,-0.194216788,-0.0413782522,0.0314115211
86791.480968,-1.0938237,0.450174794,-1.98823835,-0.188712567,-0.0546040423,-0.0638524145
86791.490996,-1.38018463,0.754402071,-1.84821964,-0.158839375,-0.0727598816,-0.18717435
86791.501024,-1.47596366,1.33216776,-1.58093473,-0.142224163,-0.120694913,-0.353655487
86791.511053,-1.55760149,1.91482079,-1.0122037,-0.119053334,-0.198145494,-0.548669159
86791.521081,-1.67826756,2.23838215,-0.214685538,-0.124740519,-0.27750662,-0.738636672
86791.531109,-1.66780681,2.26009349,0.765009974,-0.204565316,-0.325909555,-0.870673537
86791.541137,-1.38731872,1.83786162,1.74886962,-0.295142084,-0.322711378,-0.835531831
86791.551166,-0.80075831,0.931267435,2.29153156,-0.425871611,-0.198898643,-0.657676876
86791.561194,-0.593237659,0.485638614,2.12955762,-0.586750746,-0.0691805929,-0.470802873
86791.571222,-0.697074575,0.289512011,1.45201901,-0.699389696,-0.0315543823,-0.329209805
86791.581251,-0.744776457,0.0891332863,0.271823137,-0.709858835,-0.12308643,-0.277022481
86791.591279,-0.843583306,0.163052308,-0.694679716,-0.617986739,-0.340502888,-0.327041179
86791.601307,-0.66404865,0.123855951,-0.867365018,-0.483089089,-0.587640226,-0.406716585
86791.611336,-0.0927372199,-0.201849839,-0.281128725,-0.359491795,-0.751333058,-0.467816949
86791.621364,0.398856329,-0.449922244,0.812129453,-0.309070677,-0.738463581,-0.472661495
86791.631392,0.580316474,-0.569228495,2.05065476,-0.311864346,-0.576791584,-0.410867095
86791.641421,0.537276775,-0.676333181,2.75812207,-0.330915004,-0.334116906,-0.299242854
86791.651449,0.423682508,-0.819259451,2.66130595,-0.330349088,-0.0990812331,-0.186354101
86791.661477,0.139418051,-0.53061308,1.80173846,-0.318603456,0.0367772691,-0.133111119
86791.671506,-0.0563506501,0.0220890776,0.615205197,-0.280089915,0.0379943363,-0.148016557
86791.681534,-0.0645685621,0.475534313,-0.430038015,-0.210637301,-0.0742520466,-0.245440051
86791.691562,-0.175693014,0.703953667,-0.997051136,-0.0912006646,-0.251076072,-0.356939971
86791.701591,-0.146087875,0.60929495,-0.742333448,-0.0183903761,-0.417730033,-0.426484674
86791.711619,0.048369917,0.43370231,0.0199169989,-0.0184263289,-0.481478661,-0.438635886
86791.721647,0.0857167741,-0.0125693487,0.759362908,-0.0285790972,-0.412501186,-0.352006465
86791.731676,-0.13829523,-0.499471471,1.21494921,-0.00566738984,-0.258006424,-0.187486738
86791.741704,-0.518749623,-0.453331285,1.29953654,-0.00752148265,-0.112200499,-0.0548037887
86791.751732,-0.97771559,-0.14982118,0.868349353,-0.0149583602,-0.0288603287,-0.0171389729
86791.761760,-1.35207424,-0.0283388359,-0.269248903,0.0562564321,-0.0236706268,-0.0684769899
86791.771789,-1.6357338,0.0999486218,-1.23373808,0.173753232,-0.091356203,-0.185360208
86791.781817,-1.80518041,0.329112602,-1.61933898,0.244204223,-0.173611388,-0.290532708
86791.791845,-1.65881613,0.542365952,-1.37993051,0.242028415,-0.244323641,-0.293639034
86791.801874,-1.22973776,0.713311059,-1.09073246,0.200343817,-0.291756928,-0.196678102
86791.811902,-0.742703304,0.666688935,-0.904482158,0.121428512,-0.328920007,-0.0326327085
86791.821930,-0.445417845,0.420030525,-0.757123605,0.0851501301,-0.367707878,0.13737151
86791.831959,-0.442210647,0.196736277,-0.645646513,0.111149244,-0.384175003,0.236737773
86791.841987,-0.653673387,0.0521974668,-0.42536827,0.192921072,-0.351150483,0.206531405
86791.852015,-1.049494,0.0857488772,-0.130426123,0.296965718,-0.261156142,0.0284303762
86791.862044,-1.41025609,0.405991223,0.249909411,0.366047829,-0.138300538,-0.248766348
86791.872072,-1.30507298,0.693297468,0.475119266,0.379921854,0.0303071197,-0.507873237
86791.882100,-0.700739308,0.4369707,0.545959812,0.320786625,0.225866228,-0.630011141
86791.892129,0.00337769627,-0.162252901,0.592384294,0.246275902,0.397339195,-0.59379375
86791.902157,0.459287271,-0.294109915,0.405243765,0.214037269,0.500870347,-0.475688994
86791.912185,0.813000537,-0.336946803,0.0217068049,0.242855608,0.545951068,-0.299808502
86791.922214,0.959932315,-0.279703862,-0.570995469,0.295393378,0.516591311,-0.175103307
86791.932242,0.82127101,0.316046748,-0.940556511,0.348612666,0.431745648,-0.197618738
86791.942270,0.720634972,0.818175966,-1.00765729,0.441619307,0.331281871,-0.330585867
86791.952299,0.854044202,0.874505537,-0.69360478,0.565020084,0.214627951,-0.519224167
86791.962327,1.27503718,0.702777098,-0.177916188,0.667633176,0.137160033,-0.687321246
86791.972355,1.99641303,-0.196511839,0.724901251,0.703395963,0.121319026,-0.685693264
86791.982384,2.75308992,-1.33946903,1.87410344,0.729478955,0.132363945,-0.48379451
86791.992412,3.37488326,-1.97097771,2.94534384,0.686705947,0.229995698,-0.119097747
86792.002440,3.73252386,-2.16331741,3.81468162,0.535554767,0.490098655,0.312265903
86792.012469,3.39503816,-1.769097,3.55732131,0.389047652,0.870666206,0.657641649
86792.022497,2.56296102,-0.93254973,2.0794185,0.278218597,1.18537819,0.83611846
86792.032525,1.7301715,0.0241379045,-0.146782214,0.242473647,1.30489039,0.880243838
86792.042554,1.33443995,0.892924991,-2.53486627,0.233216226,1.14351833,0.863167644
86792.052582,1.23474112,1.36014824,-4.29715534,0.307991415,0.710962057,0.85206306
86792.062610,1.28139444,1.38226261,-4.77514929,0.422294796,0.120246038,0.914822876
86792.072639,1.56767792,1.33863959,-2.94714125,0.485124916,-0.385439783,1.07860887
86792.082667,2.01012329,1.6671463,0.091083708,0.454793632,-0.61436218,1.24988842
86792.092695,2.72407074,1.89115072,2.88914849,0.310475051,-0.57102561,1.37910509
86792.102724,3.2518265,1.863242,4.85205308,0.164290428,-0.357387125,1.44404006
86792.112752,3.39588338,2.04575501,5.90652063,0.0154010765,-0.0527382642,1.39909363
86792.122780,3.20050314,2.22772953,6.2336559,-0.112867154,0.291577309,1.23472738
86792.132808,2.59066297,2.03527512,5.42947712,-0.172861502,0.60534215,0.9924559
86792.142837,1.98646608,1.72508469,3.95669122,-0.231958374,0.8177737,0.741921127
86792.152865,1.52540705,1.39949855,2.18553085,-0.244789749,0.909807503,0.494699895
86792.162893,1.01653354,0.987549952,0.279207402,-0.252431691,0.879633605,0.290712386
86792.172922,0.647361281,0.199373475,-1.0562065,-0.263795942,0.760159969,0.199815512
86792.182950,0.686578535,-0.567493598,-2.25716518,-0.217416987,0.557715237,0.205964744
86792.192978,0.890432151,-0.894087094,-3.07175722,-0.149773225,0.305011362,0.250016898
86792.203007,0.980607366,-0.933429655,-2.84922097,-0.0884616747,0.0782035068,0.297352195
86792.213035,0.945984454,-0.884578968,-2.26269534,-0.0313144997,-0.0727388635,0.311853111
86792.223063,0.799942025,-0.900592457,-1.47383512,0.0300327502,-0.124342941,0.310220063
86792.233092,0.564483749,-0.965390216,-0.81859368,0.0726153627,-0.125993043,0.285862774
86792.243120,0.307298209,-0.842001225,-0.26739363,0.0757238045,-0.136910409,0.244727328
86792.253148,0.253501846,-0.589382701,-0.0548591329,0.0604681522,-0.172866806,0.239967719
86792.263177,0.302790303,-0.422573963,-0.0691296503,0.00950377248,-0.223613605,0.277954787
86792.273205,0.287045585,-0.0474292021,-0.110021048,-0.097932674,-0.261608124,0.315077126
86792.283233,0.10813107,0.199162536,-0.40048868,-0.194349751,-0.275546849,0.321688414
86792.293262,-0.271153713,0.35137642,-1.01056587,-0.268939286,-0.311224937,0.257449001
86792.303290,-0.554290308,0.336365606,-1.63407712,-0.317827761,-0.392021269,0.115961634
86792.313318,-0.430723148,0.128850471,-2.49649884,-0.294981807,-0.508542836,-0.0651215985
86792.323347,0.0501289443,-0.141944054,-2.87872238,-0.220372826,-0.656000972,-0.224444956
86792.333375,0.755359445,-0.50715786,-2.25012695,-0.164119676,-0.759233594,-0.325280488
86792.343403,1.39915368,-0.764126981,-1.13081839,-0.134515986,-0.749741852,-0.350051612
86792.353432,1.87261627,-0.899030614,0.129962597,-0.176356643,-0.624112546,-0.332225472
86792.363460,1.9501246,-1.19374188,1.06804366,-0.248750672,-0.422778368,-0.258176297
86792.373488,1.60347696,-1.40133512,1.51454941,-0.289312482,-0.213428348,-0.160895005
86792.383517,1.17089964,-1.14914205,1.53016023,-0.315599471,-0.00655878382,-0.118864186
86792.393545,0.661077744,-0.878467207,1.23408061,-0.359995455,0.202798158,-0.118101723
86792.403573,0.00826312109,-0.712135585,0.692365594,-0.397950292,0.340046823,-0.148934484
86792.413602,-0.659117404,-0.509958378,-0.1604799,-0.420900881,0.404124618,-0.216594219
86792.423630,-1.09107864,-0.303791041,-1.24253981,-0.409594953,0.407408029,-0.305571228
86792.433658,-1.48419825,0.039534686,-2.2740906,-0.348511636,0.312615752,-0.402118266
86792.443687,-1.97782012,0.442785999,-2.58055893,-0.314125687,0.121629544,-0.508060694
86792.453715,-2.28994371,0.656150079,-2.25613701,-0.267267376,-0.0445876606,-0.551997244
86792.463743,-2.35996241,0.655460197,-1.48543203,-0.317991525,-0.121741831,-0.542348385
86792.473772,-2.41054986,0.681788962,-1.00653033,-0.413989425,-0.147746801,-0.561611772
86792.483800,-2.19529836,0.432008621,-1.51928228,-0.403634518,-0.131506056,-0.640027523
86792.493828,-1.6541252,-0.0132793875,-2.39582605,-0.323098421,-0.153947443,-0.773487806
86792.503857,-1.08688543,-0.321723844,-2.97184022,-0.221136361,-0.274780124,-0.879799068
86792.513885,-0.473972763,-0.384457035,-2.59600083,-0.165649936,-0.456947803,-0.905849874
86792.523913,0.213678754,-0.319295849,-1.5835037,-0.209118307,-0.595438004,-0.855077505
86792.533942,0.858970699,-0.533204886,-0.509876691,-0.279972523,-0.635744691,-0.728833795
86792.543970,1.15739747,-1.02064843,0.523308419,-0.310625494,-0.629558742,-0.524482548
86792.553998,1.19302605,-1.51674122,1.6822692,-0.342554122,-0.573837936,-0.231627762
86792.564027,1.24650637,-1.30827792,2.70311856,-0.424597591,-0.451583385,0.0843797401
86792.574055,1.0597094,-0.559501065,3.13267551,-0.526704848,-0.321557492,0.315609485
86792.584083,0.775501777,0.203774962,2.92915551,-0.589755177,-0.216343448,0.412582099
86792.594112,0.556043289,0.746546243,2.36791103,-0.585695446,-0.143298,0.353042096
86792.604140,0.423885557,1.02278712,1.65197518,-0.540915728,-0.0696690381,0.200760141
86792.614168,0.411518352,0.9448819,1.19570616,-0.49321714,0.0310240127,0.028894376
86792.624197,0.431634746,0.759371092,0.880560015,-0.43904686,0.117638536,-0.135186449
86792.634225,0.479469168,0.535120218,0.370398077,-0.392707855,0.165317893,-0.305207968
86792.644253,0.612032303,0.592229907,-0.401273693,-0.317292184,0.172642916,-0.464917213
86792.654282,0.756629611,0.503176974,-0.949217956,-0.255474627,0.146039546,-0.564884305
86792.664310,0.892977525,0.0979790205,-1.20209031,-0.231115758,0.141698316,-0.548099458
86792.674338,0.939816798,-0.497243054,-1.29777479,-0.264879316,0.14692691,-0.419733763
86792.684367,0.833249032,-0.775688751,-1.67705526,-0.242797449,0.082506381,-0.284427851
86792.694395,0.795943969,-0.648035819,-2.229498,-0.181661382,-0.0598275997,-0.205024913
86792.704423,0.944455418,-0.368186539,-2.39742296,-0.103613198,-0.22754629,-0.19137089
86792.714452,1.10032885,-0.0244604875,-1.97219615,0.00166981714,-0.376256943,-0.233032584
86792.724480,1.22259285,0.0863335178,-0.958104442,0.0845292732,-0.44565919,-0.276098549
86792.734508,1.3831445,-0.00704695937,0.216438519,0.133357018,-0.386471778,-0.272881716
86792.744537,1.42530285,0.146435118,1.08550333,0.160802484,-0.248652905,-0.224294484
86792.754565,1.36455262,0.323747751,1.53968385,0.147636607,-0.0519206747,-0.123404346
86792.764593,1.32165207,0.267333753,1.4838889,0.0872955024,0.151506484,0.0135897202
86792.774622,1.20946464,0.407664453,0.815198193,0.0326077603,0.253193945,0.125503466
86792.784650,0.973885072,0.627937691,-0.159974289,-0.00093555334,0.245770931,0.192798078
86792.794678,0.658752809,0.579791354,-1.02544896,-0.00614709314,0.168250576,0.265036583
86792.804707,0.483985075,0.512020279,-1.45271342,0.0201992933,0.0358323492,0.345645159
86792.814735,0.371591379,0.517313344,-1.54509944,0.0457922705,-0.130135581,0.396061987
86792.824763,0.335124702,0.488815015,-1.26397832,0.0873311907,-0.242694363,0.412026316
86792.834792,0.283272788,0.524959694,-0.648211979,0.103947714,-0.280189544,0.405100763
86792.844820,0.255450642,0.561233369,0.0208206697,0.122579455,-0.23532778,0.378020942
86792.854848,0.274756049,0.516764989,0.334485637,0.139689475,-0.125328854,0.348392189
86792.864877,0.243878059,0.417315494,0.256648364,0.145108208,-0.00310732704,0.304213822
86792.874905,0.087259437,0.484797268,-0.145622523,0.160673589,0.062433064,0.238854527
86792.884933,0.0575720086,0.61145885,-0.812742032,0.194442734,0.0493060797,0.158324793
86792.894962,0.188752347,0.629142172,-1.20198568,0.230491012,-0.0244584214,0.085278824
86792.904990,0.425104102,0.494150568,-1.20087275,0.262073725,-0.11258322,0.0558104105
86792.915018,0.72321644,0.242460995,-0.678460403,0.266168594,-0.1543075,0.0865568742
86792.925046,0.981967402,-0.127307068,-0.0733230104,0.241158575,-0.142034858,0.163201302
86792.935075,1.14089876,-0.266025849,0.22855858,0.21937339,-0.0850988626,0.243425578
86792.945103,1.35783777,0.0343244223,0.396603947,0.210334077,-0.0189347584,0.307713211
86792.955131,1.59589732,0.312128479,0.561287729,0.191250935,0.0350214131,0.360055506
86792.965160,1.7884606,0.288589234,0.540388149,0.190181389,0.111615442,0.412767738
86792.975188,1.79953232,0.198664578,0.347780587,0.175426945,0.210670128,0.443432957
86792.985216,1.55537914,0.0605003993,0.122943074,0.178490907,0.313244432,0.473255575
86792.995245,1.19052291,-0.146420888,-0.256674083,0.210764959,0.36859557,0.501156688
86793.005273,0.797989576,0.0138836781,-0.652684741,0.254363835,0.344086498,0.500827253
86793.015301,0.531117778,0.363101125,-0.879856835,0.29401803,0.244799867,0.47750783
86793.025330,0.445876074,0.736408003,-0.922785292,0.321225137,0.104446746,0.432314277
86793.035358,0.551895778,1.1221131,-0.547448589,0.316286325,-0.0347308479,0.369660199
86793.045386,0.881676306,1.30090213,0.112773562,0.303978235,-0.132578045,0.317255586
86793.055415,1.49035912,1.23897145,0.69050623,0.325955719,-0.169738725,0.291172057
86793.065443,2.15603705,1.1669395,1.26989719,0.320528716,-0.129654959,0.281021684
86793.075471,2.65962954,1.01845041,1.89530171,0.264704078,-0.0234270599,0.269192457
86793.085500,2.91859057,0.838144915,2.03672678,0.262936801,0.0894930959,0.242287874
86793.095528,3.06610607,0.359347983,2.19124631,0.245018542,0.225712731,0.255190074
86793.105556,2.98742854,-0.0842917828,2.50294027,0.203301713,0.395236492,0.319616467
86793.115585,2.62517724,-0.182876404,2.51451906,0.138909951,0.573699772,0.434259444
86793.125613,2.12361493,-0.356189191,2.16522398,0.0543002486,0.729856312,0.58153224
86793.135641,1.5977824,-0.577963992,1.20087041,0.00333453645,0.808097839,0.741502464
86793.145670,0.991934304,-0.579852546,-0.165587453,-0.00489463145,0.800311565,0.850169241
86793.155698,0.4426368,-0.500788508,-1.4263924,-0.0143619031,0.722046852,0.892092466
86793.165726,0.0225482242,-0.42502468,-2.45346517,-0.0027385361,0.560896039,0.873165369
86793.175755,-0.156485132,-0.35293987,-3.37082551,0.0759392306,0.326152503,0.806342185
86793.185783,-0.115177518,-0.456228505,-3.86677947,0.191505775,0.0639097095,0.735790491
86793.195811,0.197868953,-0.631848289,-3.62028718,0.277924806,-0.144619524,0.700739563
86793.205840,0.610432905,-0.509816668,-2.91796075,0.324783385,-0.261544555,0.667158186
86793.215868,1.10779253,-0.194270563,-2.18950443,0.346841037,-0.294314235,0.616912842
86793.225897,1.73014388,-0.108683552,-1.73268479,0.399116755,-0.263160288,0.571126997
86793.235925,2.34384057,-0.246836032,-1.40948335,0.484844178,-0.205661044,0.562339902
86793.245953,2.7244501,-0.411348512,-0.736686966,0.510820091,-0.129537776,0.588346422
86793.255981,2.88637289,-0.463015461,-0.0016261399,0.496172458,-0.025258515,0.665532053
86793.266010,2.84135535,-0.439408705,0.63704352,0.440308124,0.108262524,0.792048454
86793.276038,2.59528041,-0.390466614,1.1336539,0.362578452,0.238928661,0.958949804
86793.286066,2.18825882,-0.228805979,1.28869483,0.286361158,0.354063749,1.12484539
86793.296095,1.71626061,0.0648000236,1.01483638,0.228043288,0.434682429,1.25255752
86793.306123,1.27577353,0.461867132,0.630095892,0.185118452,0.46072495,1.3333075
86793.316151,0.906533391,0.928822891,0.183943778,0.148388132,0.425879627,1.35241008
86793.326180,0.62138089,1.36653809,-0.0370697937,0.109712109,0.343235612,1.31429195
86793.336208,0.417604613,1.45311148,0.033725744,0.0756683871,0.249292091,1.25964153
86793.346236,0.276328358,1.24655635,0.524627101,0.0314692371,0.197521836,1.21852839
86793.356265,0.129190096,1.01929935,1.15814069,0.0125815636,0.180978283,1.17297006
86793.366293,-0.0152200367,0.825097729,1.51019355,0.0232184958,0.201215371,1.10137439
86793.376322,-0.103512196,0.671082202,1.68991416,0.0448582768,0.257631242,0.989282668
86793.386350,-0.26052579,0.705249406,1.67505035,0.0642109364,0.331648469,0.809285223
86793.396378,-0.480531208,0.821308127,1.59772687,0.0668850169,0.406444132,0.593655169
86793.406407,-0.683587829,0.837947931,1.36610247,0.0804045498,0.433372438,0.396136552
86793.416435,-0.74404712,0.57434909,0.929277576,0.116699174,0.376049489,0.249279201
86793.426463,-0.514459635,0.0861689018,0.517866521,0.169055328,0.235365883,0.162757888
86793.436491,-0.0362207026,-0.33281069,0.197309456,0.227608129,0.0663307831,0.143091515
86793.446520,0.465444186,-0.618789851,0.320653511,0.260859549,-0.0664464384,0.193125382
86793.456548,0.733660896,-0.817634115,0.839033826,0.47580567,-0.147994012,0.278388351
86793.466577,0.792947052,-1.04610129,2.05645965,0.214685127,-0.123609863,0.399974704
86793.476605,0.976330493,-1.36990537,2.57184137,0.171948329,-0.0183635913,0.542525709
86793.486633,1.56542122,-1.57939744,2.2698949,0.105322421,0.03700912,0.687152922
86793.496662,1.71670075,-1.69063575,2.06001588,0.0432755612,0.041436892,0.835591674
86793.506690,1.88208537,-1.87712337,1.80241592,0.0193388034,-0.00464964425,0.996225834
86793.516718,1.99690695,-1.99196847,1.67224581,-0.0011017574,-0.0509982333,1.16326678
86793.526747,2.02216268,-2.16728705,1.71272863,0.0441773087,-0.0615850948,1.30713069
86793.536775,1.88223107,-2.08126413,2.16906078,-0.0541045219,-0.0159275979,1.41037214
86793.546803,1.62490217,-1.72311617,1.99555306,-0.0828413665,0.0326780193,1.48697746
86793.556832,1.30610934,-1.49982589,1.85761407,-0.115907438,0.0577402301,1.53175688
86793.566860,1.00633188,-1.29910224,1.50393975,-0.101974845,0.0642804205,1.56146288
86793.576888,0.818098444,-1.18538168,1.08489133,-0.092766434,0.0469658822,1.58355248
86793.586917,0.695899759,-1.11038124,0.762258045,-0.0931744277,0.00198402395,1.58136868
86793.596945,0.655735214,-0.953470426,0.478053566,-0.0922729522,-0.0631973818,1.52990711
86793.606973,0.588148775,-0.830707312,0.376871657,-0.0746460184,-0.139486015,1.45003283
86793.617002,0.539056133,-0.78927377,0.514783752,-0.0444431044,-0.190927103,1.37035632
86793.627030,0.583292165,-0.680928912,0.935422071,-0.0303954631,-0.204683125,1.29012883
86793.637058,0.740249335,-0.504413019,1.37514561,-0.044049222,-0.181847051,1.20537376
86793.647087,0.96397465,-0.408866413,1.5117361,-0.0478809811,-0.144241884,1.12343442
86793.657115,1.23996002,-0.59953833,1.51470957,-0.0349481367,-0.087384209,1.06655228
86793.667143,1.45381393,-0.858165082,1.579429,-0.0402773879,-0.0142247742,1.02887857
86793.677172,1.55956432,-0.834627481,1.50068747,-0.0453488454,0.0646535307,0.982809365
86793.687200,1.54560754,-0.740848835,1.35471424,-0.0633459613,0.120853946,0.943668306
86793.697228,1.48597739,-0.73515793,1.08158469,-0.0470327623,0.133329004,0.91838187
86793.707257,1.40821377,-0.71114767,0.783969526,-0.0216001067,0.0986407921,0.899463832
86793.717285,1.38417472,-0.699755631,0.685667557,-0.0162532795,0.0545364469,0.901081204
86793.727313,1.41816467,-0.767958157,0.714123837,-0.0196336284,0.0139235072,0.911380708
86793.737342,1.38930186,-0.858357536,0.78199618,0.00305144233,-0.036351379,0.930192173
86793.747370,1.38137252,-1.01496914,0.940093569,0.0100659421,-0.0602561794,0.963366926
86793.757398,1.44133526,-1.26779641,1.10125327,0.0187395923,-0.0375849567,1.02079082
86793.767427,1.56717055,-1.28728394,1.04385497,0.02850141,-0.00274681533,1.06994486
86793.777455,1.84262152,-1.15492553,0.864807735,0.0176434349,0.038197957,1.09509063
86793.787483,2.11216634,-1.06258875,0.68490651,-0.000582973589,0.103645399,1.09583664
86793.797512,2.07314001,-0.957620751,0.444958521,0.0062384475,0.17363888,1.07796979
86793.807540,1.83771008,-0.923251667,0.239297416,0.0273503903,0.239521489,1.04917276
86793.817568,1.65370522,-0.766612514,0.0266150352,0.0323123932,0.290948182,1.01585579
86793.827597,1.50438048,-0.47081923,-0.317143457,0.0187326688,0.296991676,0.963939488
86793.837625,1.40561762,-0.36002939,-0.743341748,0.0238472689,0.265018582,0.914246798
86793.847653,1.35674384,-0.348683528,-1.15605804,0.0644663274,0.212854981,0.851326168
86793.857682,1.20847745,-0.16565365,-1.35851538,0.111955017,0.154438555,0.744390368
86793.867710,1.09189208,0.110101639,-1.52403269,0.183008432,0.117704764,0.61793071
86793.877738,1.07380281,0.0851587749,-1.41539988,0.223586485,0.102834471,0.499981463
86793.887767,1.14472431,-0.00315239962,-1.22818454,0.259894133,0.131399274,0.396880627
86793.897795,1.28083681,0.049731853,-1.2168565,0.299917728,0.18704842,0.305921167
86793.907823,1.34596438,0.11178287,-1.29502987,0.315869272,0.239763036,0.221070737
86793.917852,1.3777121,0.0943276583,-1.47516198,0.336213946,0.281019896,0.153699413
86793.927880,1.33447195,0.0932534532,-1.7326655,0.384650975,0.29628408,0.0923068896
86793.937908,1.20419444,0.0457671141,-1.83024208,0.434313089,0.284925431,0.0380913205
86793.947937,1.15155488,0.130864514,-1.75607151,0.49119848,0.287739336,0.0022374494
86793.957965,1.21423207,0.316807942,-1.53986037,0.518397868,0.289259195,0.0036353427
86793.967993,1.23624655,0.410271677,-1.15614513,0.496942192,0.288435072,0.0509928763
86793.978022,1.22726099,0.402811716,-0.800564103,0.460806817,0.30648306,0.136671826
86793.988050,1.17969523,0.455289507,-0.679043171,0.441152155,0.34344241,0.230167419
86793.998078,1.01394528,0.62949062,-0.583354599,0.413236916,0.3820436,0.311670005
86794.008107,0.777733847,0.864587516,-0.577041179,0.389220536,0.423598766,0.374946982
86794.018135,0.566634607,1.09362424,-0.711156219,0.36523211,0.46391663,0.415102124
86794.028163,0.373600125,1.34435738,-0.85993516,0.325719059,0.503936768,0.440801352
86794.038192,0.0971767642,1.58102869,-1.05184246,0.274492353,0.538297355,0.450310171
86794.048220,-0.234379359,1.75575383,-1.32545424,0.235563308,0.552586317,0.441348106
86794.058249,-0.511757719,1.90554063,-1.64413791,0.216873512,0.549101293,0.419712067
86794.068277,-0.787119953,2.08800674,-1.98801974,0.19946523,0.522516012,0.378457576
86794.078305,-1.06680615,2.26737152,-2.1879496,0.192451254,0.48188898,0.337468058
86794.088334,-1.28564611,2.30225929,-2.24877144,0.166321114,0.443282723,0.284153968
86794.098362,-1.48914579,2.33935378,-2.35327285,0.159612089,0.403694034,0.206817359
86794.108390,-1.63342655,2.42329741,-2.49330267,0.164100572,0.363878697,0.110100672
86794.118419,-1.74073059,2.38796861,-2.40738146,0.153951794,0.322928071,0.0224174224
86794.128447,-1.7970465,2.21502466,-2.14190565,0.139409348,0.284525573,-0.0246166624
86794.138475,-1.809958,2.11722889,-1.95364927,0.147249162,0.261211455,-0.0354618542
86794.148504,-1.87599743,2.07038939,-1.60443017,0.0927734002,0.231517464,-0.0209399052
86794.158532,-1.85559133,2.06089486,-1.36697692,0.0474703684,0.216069803,0.0293408409
86794.168560,-1.84790984,2.08389682,-1.19812141,-0.0180303436,0.191918924,0.0979611799
86794.178589,-1.9569749,2.07547546,-1.00196638,-0.0838383883,0.155573174,0.166882455
86794.188617,-2.06928172,2.07357168,-1.01839729,-0.111981079,0.122307628,0.231706187
86794.198645,-2.23822141,2.15513323,-0.89120299,-0.150509566,0.0889627188,0.27158305
86794.208674,-2.45028829,2.32391729,-0.665020491,-0.186349049,0.0649737641,0.276751965
86794.218702,-2.65340234,2.48230898,-0.543469748,-0.208927333,0.0411358066,0.243147925
86794.228730,-2.75290667,2.48923615,-0.377806308,-0.235908613,0.0300996676,0.192161173
86794.238759,-2.82605754,2.45922972,-0.203457457,-0.259812593,0.0297507942,0.139513686
86794.248787,-2.93315715,2.43468185,-0.173288528,-0.278199852,0.0210766122,0.0702621788
86794.258815,-2.96077873,2.39163912,-0.257341023,-0.2835491,0.0013095648,-0.0197020657
86794.268844,-2.83228971,2.2451835,-0.392942502,-0.284195185,-0.0308430437,-0.128476486
86794.278872,-2.62130946,1.97513205,-0.544205661,-0.269954443,-0.0732248574,-0.240202487
86794.288900,-2.45193489,1.76890601,-0.618076369,-0.243964404,-0.129755244,-0.359645516
86794.298929,-2.2403441,1.57369031,-0.555152003,-0.208915606,-0.186291486,-0.480650485
86794.308957,-1.94938927,1.37253309,-0.50477323,-0.169847041,-0.229128703,-0.600640059
86794.318985,-1.64851963,1.06514399,-0.300840557,-0.16379793,-0.266323209,-0.703706801
86794.329014,-1.33843238,0.696130207,-0.162391871,-0.146514013,-0.300743759,-0.767943263
86794.339042,-1.00701468,0.302151347,-0.0559796614,-0.121774323,-0.353272498,-0.802243769
86794.349070,-0.596965046,-0.0852218302,0.0539718287,-0.0813344866,-0.41541788,-0.799784839
86794.359099,-0.161008673,-0.380836177,0.179191031,-0.0320319124,-0.479317516,-0.771671474
86794.369127,0.213180248,-0.56551163,0.49841597,-0.0121245189,-0.51967001,-0.732385814
86794.379155,0.520086681,-0.621491,0.864383372,-0.00250464794,-0.520543516,-0.672334731
86794.389184,0.75611925,-0.676097327,1.19446814,-0.00733508915,-0.480737239,-0.588272333
86794.399212,0.923853944,-0.788937378,1.44279876,-0.0236988813,-0.424752265,-0.484537661
86794.409240,1.06464357,-1.01011681,1.51728555,-0.0440715328,-0.368023455,-0.364764631
86794.419269,1.22342331,-1.21863739,1.3523136,-0.0412837341,-0.311282158,-0.243859276
86794.429297,1.34230542,-1.29041025,1.099851,-0.0307189748,-0.259646922,-0.137231901
86794.439325,1.42933868,-1.24602356,0.922142318,-0.0356423594,-0.218686983,-0.0431583896
86794.449354,1.45054864,-1.15421548,0.773296157,-0.0342439339,-0.206629783,0.0449954383
86794.459382,1.54846337,-1.07551838,0.688342914,-0.0270273015,-0.210506275,0.130280763
86794.469411,1.69451113,-1.05412619,0.752388978,-0.0321000926,-0.208070546,0.219848201
86794.479439,1.76495376,-1.07387616,0.747230572,-0.0289967079,-0.184028864,0.312721163
86794.489467,1.79425029,-1.07811541,0.699463443,-0.0375310741,-0.113022067,0.411646664
86794.499496,1.75729068,-0.995475119,0.565440757,-0.0570240803,-0.00924267806,0.509311676
86794.509524,1.61030754,-0.883320127,0.20661972,-0.0772172362,0.0946570933,0.590755701
86794.519552,1.31086384,-0.733166245,-0.329648134,-0.0988301188,0.178153053,0.648787022
86794.529581,0.905704832,-0.480724392,-0.95086397,-0.106234774,0.215612009,0.672167182
86794.539609,0.437158514,-0.221816997,-1.57958624,-0.0777764991,0.197906777,0.647518039
86794.549637,0.0213751983,0.0523677545,-2.29417769,-0.0036990759,0.137716949,0.563242316
86794.559666,-0.292517513,0.299672682,-2.7318104,0.0632296205,0.0290533118,0.419351459
86794.569694,-0.485045616,0.444898899,-2.89678644,0.152092382,-0.110442527,0.254422426
86794.579722,-0.460173699,0.635783144,-2.78215994,0.243954659,-0.269286513,0.088795118
86794.589751,-0.224899473,0.786845082,-2.09266085,0.297234416,-0.405573249,-0.044838313
86794.599779,0.211395702,0.802085905,-1.26593997,0.355225265,-0.459707588,-0.119000696
86794.609807,0.65698821,0.779376061,-0.481612135,0.36559695,-0.459979743,-0.13696824
86794.619836,0.963989847,0.709716249,0.42903556,0.32499972,-0.429235697,-0.104693919
86794.629864,1.11719873,0.535730532,1.12957628,0.255668849,-0.358982295,-0.0276934132
86794.639892,1.16441933,0.375467636,1.65940562,0.164195657,-0.25165984,0.074420169
86794.649921,1.10378308,0.246609055,1.90685829,0.0768948346,-0.102144383,0.184948534
86794.659949,0.913455007,0.120929688,1.86120362,0.00620362256,0.0708518922,0.282934785
86794.669977,0.609573694,0.0866596079,1.42504625,-0.0461916737,0.212307826,0.356883019
86794.680006,0.325340208,0.190996035,0.856694571,-0.0856554657,0.262570739,0.402587414
86794.690034,0.172282256,0.363861661,0.317428704,-0.106237441,0.22890678,0.424533725
86794.700062,0.094887539,0.426969421,0.0144207395,-0.124195933,0.167500138,0.435925394
86794.710091,0.0152132234,0.475465157,-0.049374564,-0.124753594,0.118074268,0.437204242
86794.720119,-0.147252206,0.460760924,0.172867673,-0.146792859,0.0949258059,0.44178912
86794.730147,-0.392071638,0.35548064,0.490398668,-0.170570359,0.0841914043,0.454817057
86794.740176,-0.556222007,0.311185279,0.672730334,-0.178168893,0.0836342648,0.470119566
86794.750204,-0.611492899,0.399245256,0.775394006,-0.185894713,0.0754287988,0.464225739
86794.760232,-0.684917908,0.590057166,0.862407688,-0.202382073,0.0563472509,0.41402781
86794.770261,-0.78477887,0.705009971,0.859827024,-0.207806408,0.0415030569,0.325909138
86794.780289,-0.943465092,0.70937445,0.816899151,-0.19331108,0.0339447372,0.21016787
86794.790318,-1.05544166,0.605661562,0.81973759,-0.167958066,0.0343093239,0.0843497664
86794.800347,-1.049647,0.396743356,0.804184631,-0.137906417,0.0379352197,-0.023879502
86794.810375,-0.925429377,0.227367179,0.765722506,-0.106811084,0.0345780365,-0.1171932
86794.820404,-0.748222213,0.148819273,0.666477119,-0.0700285658,0.021851059,-0.186146185
86794.830432,-0.562025396,0.0989630631,0.650516165,-0.0520612821,0.00830595568,-0.243041947
86794.840460,-0.475118937,0.0239154209,0.613810528,-0.0239939597,-0.0151431775,-0.285287142
86794.850489,-0.398120928,-0.0142127959,0.64233695,-0.00672629056,-0.0356633663,-0.311367184
86794.860517,-0.259081181,-0.11409575,0.806958772,-0.0232285671,-0.0426874533,-0.311059594
86794.870545,-0.0865844421,-0.280995893,0.856123493,-0.0347680449,-0.0349011719,-0.27406165
86794.880574,0.114339715,-0.415709045,0.898020268,-0.0606523715,-0.0301271882,-0.21390298
86794.890602,0.294929726,-0.464337613,0.965620225,-0.0967722982,-0.0190873183,-0.147756174
86794.900630,0.481564204,-0.478717875,1.0648282,-0.13917622,-0.000171419,-0.0853569731
86794.910659,0.61564863,-0.521214224,1.06575818,-0.151214227,0.0161337852,-0.0238153189
86794.920687,0.669260759,-0.500797897,0.877489521,-0.111637264,0.0046816594,0.0186221525
86794.930715,0.682843148,-0.33503991,0.659008683,-0.0641895831,-0.0189179424,0.0373071581
86794.940744,0.681697485,-0.12709917,0.581934796,-0.0431114621,-0.0229118839,0.0303770788
86794.950772,0.589661079,0.0465492775,0.550574027,-0.0497957282,-0.0147745972,0.003069025
86794.960800,0.506360646,0.121853963,0.513191514,-0.038407255,-0.00629376061,-0.0311651118
86794.970829,0.459658808,0.0777665458,0.498010896,-0.0171779972,0.00196185871,-0.0529956743
86794.980857,0.459725955,0.0517138206,0.496829578,-0.0156666525,0.00994574931,-0.0638445914
86794.990885,0.506677164,0.0556226646,0.423511828,-0.017645115,0.0166936666,-0.0616408288
86795.000914,0.557333804,0.0635297845,0.303363354,-0.0340840071,0.0173884854,-0.0509682074
86795.010942,0.613991218,0.115577367,0.212366739,-0.038797535,0.00584474718,-0.0351897776
86795.020971,0.670275708,0.0886564808,0.150486914,-0.0398537442,-0.0029889578,-0.0194188021
86795.030999,0.689371892,0.0610246698,0.148948452,-0.0410918482,-0.0198012274,-0.00763111934
86795.041027,0.652656318,0.0144879596,0.201769358,-0.0430745743,-0.0249821395,-0.00288589858
86795.051056,0.581664747,-0.0546387682,0.287267374,-0.0461449325,-0.0160240643,-0.00202090386
86795.061084,0.488379583,-0.129852415,0.410440165,-0.0473502763,0.00636459654,0.00520318653
86795.071112,0.435369914,-0.179174225,0.520389902,-0.0531879254,0.0356260762,0.0307436995
86795.081141,0.430816781,-0.210980838,0.55827861,-0.0722199455,0.0707710162,0.0613293052
86795.091169,0.406299193,-0.21637013,0.419236635,-0.0799577609,0.0871092454,0.0884679779
86795.101197,0.311676643,-0.229536485,0.181131059,-0.0765787438,0.0847062767,0.113282517
86795.111226,0.220408153,-0.246771698,0.0272574248,-0.0764935166,0.0776046887,0.13742061
86795.121254,0.171475268,-0.195242878,-0.0831827256,-0.0795907751,0.0647789091,0.155634239
86795.131282,0.113265547,-0.135043553,-0.151196524,-0.0765273422,0.0395036414,0.153466687
86795.141311,0.101412794,-0.105268666,-0.231426245,-0.0558071472,0.0191363189,0.137271732
86795.151339,0.121908762,-0.119041463,-0.210379949,-0.041571483,0.0128621766,0.117620803
86795.161367,0.115848695,-0.094049499,-0.178696525,-0.0337785445,0.0141096013,0.0882213712
86795.171396,0.110485853,-0.0747247669,-0.149389766,-0.0206499603,0.0159096327,0.0551369265
86795.181424,0.171203648,-0.0627774318,-0.123676064,-0.0076755709,0.00948315766,0.029917853
86795.191452,0.267709674,-0.07298881,-0.0778793585,0.000596207101,0.00595020875,0.00825037528
86795.201481,0.377063563,-0.0894801452,-0.0166249716,0.00724691944,0.0127125075,0.000860902481
86795.211509,0.423532944,-0.118924632,0.0716898562,-0.00138411939,0.0358090363,0.00342872227
86795.221537,0.402428745,-0.185494149,0.115290513,-0.012419194,0.0648308396,0.0207765531
86795.231566,0.366748579,-0.218460161,0.0787350985,-0.024396494,0.0895002335,0.0495794415
86795.241594,0.359393028,-0.239194248,-0.0301613295,-0.0383290872,0.105886392,0.0786787346
86795.251622,0.35074046,-0.208496474,-0.23102234,-0.0410870574,0.115686029,0.10284932
86795.261651,0.292577646,-0.159143756,-0.354679699,-0.0439952277,0.11139328,0.117874339
86795.271679,0.170517968,-0.136556223,-0.406034624,-0.0431717783,0.106605716,0.126337335
86795.281707,0.0337974941,-0.151193893,-0.510393993,-0.0385360122,0.102717504,0.122662432
86795.291736,-0.0620091873,-0.138933327,-0.599809475,-0.0322469585,0.0822963789,0.11198955
86795.301764,-0.121217017,-0.125497288,-0.629236645,-0.0187543221,0.0457713902,0.0956025869
86795.311793,-0.0991777653,-0.100596948,-0.611748335,0.00389266806,0.00836782623,0.0758086443
86795.321821,0.0209186867,-0.0591183978,-0.48109834,0.0175389703,-0.0079016909,0.0546972379
86795.331849,0.129596723,-0.0795103938,-0.281550166,0.0246418882,-0.0026304964,0.0440520495
86795.341878,0.181497627,-0.151485643,-0.0923217253,0.02555402,0.0333336294,0.0571984798
86795.351906,0.147126827,-0.182996853,0.0592640899,0.00994416885,0.0800904855,0.088591814
86795.361934,0.0856870731,-0.148018113,0.0289250657,-0.0102519132,0.116923869,0.122466959
86795.371963,0.00431044708,-0.130860057,-0.154558694,-0.0230569243,0.129867882,0.14775075
86795.381991,-0.146797521,-0.0681195234,-0.374174089,-0.0314826332,0.126417235,0.158076093
86795.392019,-0.334382177,0.0416329369,-0.516396448,-0.0147430683,0.102150515,0.149354234
86795.402048,-0.434939816,0.118270771,-0.652007864,0.0055611385,0.0627546385,0.128783718
86795.412076,-0.432218903,0.145251717,-0.610825375,0.00665063737,0.0242240224,0.103077553
86795.422104,-0.403015495,0.210945036,-0.537671291,0.0148169547,-0.00849983748,0.079314433
86795.432133,-0.330314051,0.193973662,-0.343496627,0.012405728,-0.0364182889,0.0605260953
86795.442161,-0.196620012,0.130582775,-0.189219673,0.0246155225,-0.0575725771,0.0503749251
86795.452189,-0.0796647075,0.0914922157,-0.0087158059,0.0344018415,-0.0605140366,0.0479945913
86795.462218,-0.0375587828,0.0817186444,0.244411398,0.0405457541,-0.0486786813,0.0425686687
86795.472246,-0.0413990916,0.110513946,0.410620198,0.0376133472,-0.0293534528,0.036708381
86795.482274,-0.0512004643,0.0957392787,0.517062803,0.0427015834,-0.0130197536,0.0244575739
86795.492303,-0.0777306707,0.111288365,0.585192336,0.0512636453,0.00479972316,0.0166941937
86795.502331,-0.073159673,0.135656717,0.58615329,0.0486606732,0.0182220563,0.0058327578
86795.512359,-0.0368331354,0.159207835,0.530568181,0.0430885404,0.0232817959,-0.00305394456
86795.522388,0.0536855956,0.174729959,0.425501541,0.0421665534,0.0165224262,-0.00624521077
86795.532416,0.138611987,0.1640864,0.395742362,0.0435436741,0.00335016451,-0.010238355
86795.542445,0.237060999,0.156659319,0.374577994,0.0439580642,-0.015727656,-0.0105302371
86795.552473,0.266170262,0.110299281,0.457816249,0.042205438,-0.0357466377,-0.00173754431
86795.562501,0.255501021,0.0343152343,0.58554188,0.0408488214,-0.0413438044,0.0274416469
86795.572530,0.312679756,-0.00613543402,0.727901602,0.0228445213,-0.0352667384,0.06507238
86795.582558,0.295632905,0.106281716,0.756201814,0.0185669512,-0.0241850559,0.0851896331
86795.592586,0.251397202,0.239548176,0.703679015,0.018340582,-0.00931955781,0.0826753378
86795.602615,0.173489093,0.317743907,0.666665335,0.0160017945,0.00616299501,0.056726031
86795.612643,0.0468562611,0.413003147,0.555948122,0.0211033467,0.0181291122,-5.14965504e-05
86795.622671,-0.0925607583,0.430797747,0.428898782,0.0412733294,0.0146073466,-0.0716255531
86795.632700,-0.197421282,0.390178298,0.31636312,0.0748304874,-0.00745294895,-0.152381912
86795.642728,-0.184593474,0.344684083,0.228474409,0.113208234,-0.0427435637,-0.229270309
86795.652756,-0.0452609547,0.327225437,0.255841724,0.135685846,-0.0750013664,-0.284410775
86795.662785,0.119924822,0.339072234,0.382948347,0.142647624,-0.105269521,-0.324173093
86795.672813,0.288647357,0.359062737,0.483410124,0.152698919,-0.130775958,-0.347275764
86795.682841,0.472470359,0.302363383,0.636599867,0.139243826,-0.143846214,-0.356867671
86795.692870,0.623407281,0.248195447,0.799677383,0.130132094,-0.143741027,-0.351459593
86795.702898,0.749611914,0.193457749,0.793165809,0.140401781,-0.139914855,-0.33598876
86795.712927,0.81901249,0.0936224327,0.84337507,0.141641214,-0.127865389,-0.315959126
86795.722955,0.822205514,0.0549494415,0.870500978,0.140136525,-0.112307459,-0.290607691
86795.732983,0.816599365,0.0323689226,0.921630277,0.109646261,-0.0758208185,-0.264184058
86795.743012,0.774861945,0.0301021467,0.847984026,0.0939394683,-0.0309122,-0.23197262
86795.753040,0.670294924,-0.0170543029,0.732462042,0.0602209233,-0.0014922613,-0.199401096
86795.763068,0.585201908,-0.0230836462,0.459739326,0.0352718979,0.00362233957,-0.167348877
86795.773097,0.512828526,0.0465016389,0.160863931,0.0141221359,-0.0159321856,-0.160847843
86795.783125,0.416242604,0.114683487,-0.0528618216,0.00916892197,-0.0413733646,-0.18156004
86795.793152,0.302018844,0.153383951,-0.182621005,0.0232549142,-0.0689277574,-0.213712111
86795.803181,0.249872842,0.136386346,-0.151724931,0.0276973322,-0.0892335624,-0.254981518
86795.813209,0.21670075,0.118408645,-0.0777191995,0.0317330882,-0.0858140662,-0.312528968
86795.823237,0.253664818,0.13529899,-0.00709375765,0.0462201536,-0.0625188574,-0.395102412
86795.833266,0.247832605,0.169852563,0.128911042,0.0609887131,-0.0142621184,-0.496226639
86795.843294,0.232654435,0.184990072,0.24954993,0.0768883154,0.0376596674,-0.594600379
86795.853322,0.27140798,0.179938196,0.204324303,0.10782253,0.0699899122,-0.673909545
86795.863351,0.3108536,0.1494678,0.0961912603,0.136258155,0.0831041187,-0.737065911
86795.873379,0.388582992,0.180607181,-0.0149310272,0.180143863,0.0726517439,-0.781702876
86795.883407,0.373255622,0.276214065,0.0148696524,0.190369338,0.0508790649,-0.810942531
86795.893436,0.325200032,0.368425608,0.097106037,0.193905473,0.0425950363,-0.83782661
86795.903464,0.217520688,0.458631364,0.166474757,0.186651826,0.0487983376,-0.859620333
86795.913493,0.100159287,0.49163274,0.242854817,0.170289904,0.0488207079,-0.87287432
86795.923521,0.0381912355,0.550875787,0.263776609,0.160406381,0.0354292691,-0.882440686
86795.933549,0.0739675553,0.714889853,0.312388956,0.142040148,-0.00110317336,-0.893084526
86795.943578,0.121540915,0.828321586,0.501975124,0.100188844,-0.0545205921,-0.915741086
86795.953606,0.118030861,0.881413709,0.873165229,0.0529558212,-0.122465283,-0.940372407
86795.963634,0.163904249,0.909786548,1.08026601,0.0559564047,-0.156063467,-0.966136336
86795.973663,0.119321011,0.926473917,1.4363696,0.0647929534,-0.176626876,-1.02475166
86795.983691,-0.0216929956,0.954455857,1.877088,0.0705738813,-0.159268916,-1.09626102
86795.993719,-0.153044782,0.934164472,2.25038706,0.0821884573,-0.093646504,-1.15504873
86796.003748,-0.25244894,0.759941439,2.53196529,0.0925872996,0.00126190262,-1.18386281
86796.013776,-0.311650303,0.607226181,2.65103532,0.104693234,0.106589653,-1.17883706
86796.023804,-0.356369296,0.567704318,2.65547009,0.107363582,0.193789542,-1.14236438
86796.033833,-0.424604226,0.47978828,2.59850726,0.0896471739,0.25911209,-1.07512319
86796.043861,-0.517988978,0.334975613,2.28306593,0.0849733204,0.285293609,-0.976878941
86796.053889,-0.65003861,0.266005683,1.9243051,0.0671663657,0.281795025,-0.856734157
86796.063918,-0.769508382,0.258355314,1.58970606,0.0452208519,0.270464331,-0.71237433
86796.073946,-0.913567528,0.229299169,1.21659347,0.0272042975,0.253896564,-0.571971416
86796.083974,-1.11568183,0.224751881,0.766882198,0.0291188452,0.208371937,-0.445939451
86796.094003,-1.33774016,0.329888519,0.319996509,0.0730673969,0.112391084,-0.354924321
86796.104031,-1.53025463,0.556985794,-0.0719002841,0.138084471,-0.0123122297,-0.308725685
86796.114060,-1.63046331,0.750880619,-0.327987507,0.216729745,-0.125582337,-0.295482039
86796.124088,-1.69530082,1.00423009,-0.545194672,0.297396123,-0.249005735,-0.320355147
86796.134116,-1.60328831,1.40705627,-0.626972207,0.367341638,-0.371003538,-0.364890933
86796.144145,-1.23473673,1.78070458,-0.42605216,0.384553373,-0.456916332,-0.396382272
86796.154173,-0.725960916,2.02433842,-0.159670922,0.378858209,-0.504728556,-0.405009061
86796.164201,-0.243497206,2.14105429,-0.0320417364,0.359530598,-0.532773554,-0.38661167
86796.174230,0.188859096,2.26602624,0.152875855,0.314573765,-0.564280033,-0.347596377
86796.184258,0.627493455,2.50826672,0.378254636,0.253277391,-0.58577472,-0.292966425
86796.194286,1.00267029,2.74593654,0.640937604,0.176034257,-0.547996938,-0.242688328
86796.204315,1.19318132,2.89033244,1.05362,0.0782096907,-0.464838147,-0.20305118
86796.214343,1.07846101,2.98706702,1.43154029,-0.021745136,-0.369558245,-0.199738994
86796.224371,0.722194769,3.12587577,1.61123634,-0.113801822,-0.300778657,-0.239873096
86796.234400,0.392985465,3.30298356,1.65089908,-0.183004603,-0.244157717,-0.323106468
86796.244428,0.0420027201,3.29436186,1.72567228,-0.242879659,-0.189693674,-0.43378213
86796.254456,-0.329534116,3.05529416,1.93312904,-0.298245698,-0.117527068,-0.533807278
86796.264485,-0.538516145,2.69646144,1.93898361,-0.305557132,-0.023725206,-0.593027413
86796.274513,-0.600418985,2.28609068,1.86899296,-0.31938374,0.101401016,-0.608644724
86796.284542,-0.657406874,1.87221981,1.72097799,-0.347994328,0.253009707,-0.598733246
86796.294570,-0.777176797,1.56994791,1.33912913,-0.354066342,0.390560925,-0.57362628
86796.304598,-0.889917041,1.3223573,0.765038031,-0.337301761,0.476080894,-0.540812671
86796.314627,-1.01400191,0.950878729,-0.0371469506,-0.259592295,0.507989824,-0.509025455
86796.324655,-1.2460221,0.673476769,-0.785690943,-0.268294185,0.43618834,-0.510438025
86796.334683,-1.39406308,0.568955487,-1.46980543,-0.226611197,0.339702278,-0.524411082
86796.344712,-1.38510996,0.277127527,-2.18564016,-0.198923379,0.224330664,-0.531878352
86796.354740,-1.35200468,-0.116809539,-2.53489725,-0.156003073,0.0940653384,-0.518400609
86796.364768,-1.36848089,-0.407145946,-2.54558348,-0.146611169,-0.021185616,-0.467820525
86796.374797,-1.32036159,-0.738748283,-2.41816472,-0.141813755,-0.107409187,-0.383586586
86796.384825,-1.34809043,-0.768365422,-2.49793325,-0.103251711,-0.190279305,-0.313071668
86796.394853,-1.39925714,-0.471673655,-2.2520021,-0.0662995502,-0.267287791,-0.272090167
86796.404882,-1.30722928,-0.0578596299,-1.99198981,-0.0137234274,-0.342439264,-0.262130469
86796.414910,-1.05945623,0.348458633,-1.52143098,0.00217564427,-0.396730214,-0.279806405
86796.424938,-0.674374229,0.683025811,-0.887294292,-0.0197680052,-0.395762682,-0.317819566
86796.434967,-0.42101592,0.755054397,-0.447843136,-0.0273380391,-0.321872741,-0.360173672
86796.444995,-0.378112049,0.825639946,-0.222613408,0.00129813282,-0.198362529,-0.422515363
86796.455024,-0.497590187,1.04265276,-0.139808284,0.00275861006,-0.0449724346,-0.522053421
86796.465052,-0.699155327,1.26314713,-0.114943892,-0.0392349102,0.11592643,-0.648691773
86796.475080,-0.84831881,1.329589,-0.559053102,-0.0793514401,0.228104904,-0.790039062
86796.485109,-0.890017725,1.16488944,-1.36656542,-0.121639237,0.282384902,-0.946946919
86796.495137,-0.873707153,0.886709185,-2.19977331,-0.132917196,0.258106738,-1.09664297
86796.505165,-0.810074128,0.510251954,-2.8481057,-0.10656175,0.151124105,-1.21234524
86796.515194,-0.674166213,0.0724941583,-2.99706702,-0.0837355331,0.025203187,-1.27867663
86796.525222,-0.459999146,-0.213953862,-2.76091783,-0.0614810959,-0.05464397,-1.31700432
86796.535250,-0.30787104,-0.491603367,-2.17917885,-0.0958830118,-0.0775317177,-1.34162152
86796.545279,-0.268811096,-0.794475065,-1.42518127,-0.151226699,-0.0417984799,-1.35051775
86796.555307,-0.199110806,-1.04090474,-0.970508581,-0.149925485,0.0354110859,-1.32391679
86796.565335,-0.111258189,-1.3012185,-0.72834993,-0.0986159444,0.0909787342,-1.27267253
86796.575364,-0.0466119674,-1.48923581,-1.00352296,0.0540974326,0.0840971321,-1.23139298
86796.585392,-0.0676196842,-1.74798027,-1.62940328,0.183580324,0.0812025368,-1.19736159
86796.595420,-0.204210394,-1.97265412,-1.76600254,0.219872281,0.118865758,-1.13185441
86796.605449,-0.370155136,-1.88350868,-2.17737619,0.246735588,0.150683612,-1.03421307
86796.615477,-0.622912338,-1.82972858,-2.4401445,0.230329186,0.103526756,-0.918210328
86796.625506,-0.669699808,-1.73907099,-2.84265445,0.223639324,0.0129049765,-0.779141366
86796.635534,-0.642286243,-1.65891243,-3.14321269,0.236105308,-0.132507876,-0.647245407
86796.645562,-0.65100899,-1.44062507,-3.24391587,0.284089893,-0.302406639,-0.550804615
86796.655591,-0.655852192,-1.24363696,-2.86646612,0.288337916,-0.459269762,-0.487012327
86796.665619,-0.749172354,-1.02069095,-2.03417125,0.289175987,-0.555270612,-0.448100865
86796.675647,-0.941531859,-0.611140432,-1.35054309,0.30472219,-0.582681715,-0.458201706
86796.685676,-1.16719333,-0.406788511,-0.607857173,0.266657382,-0.565187693,-0.496791422
86796.695704,-1.31140555,-0.243277572,-0.10419921,0.239773288,-0.533176184,-0.558371425
86796.705732,-1.31392542,-0.0681209117,0.0348649772,0.227548048,-0.515523195,-0.646524727
86796.715761,-1.14607119,-0.0493156734,-0.00659340692,0.23885715,-0.49241066,-0.748270273
86796.725789,-0.933693639,-0.0270920051,-0.112038818,0.236871764,-0.466548979,-0.871089935
86796.735817,-0.656881754,0.0623604485,-0.243106746,0.281667739,-0.435171068,-0.984853506
86796.745846,-0.326883528,-0.139717683,-0.320687998,0.271957338,-0.438325584,-1.07615995
86796.755874,0.0261324393,-0.426944871,-0.241629074,0.291536897,-0.446247965,-1.1176039
86796.765902,0.322504363,-0.60839011,-0.0924661023,0.295311928,-0.452945799,-1.11053741
86796.775931,0.561523912,-0.823957838,0.456805026,0.264718592,-0.427771211,-1.05285358
86796.785959,0.666143796,-1.02126422,0.97670276,0.222369522,-0.387413144,-0.966973066
86796.795988,0.570889634,-1.11649409,1.27289403,0.182991758,-0.352615207,-0.878950536
86796.806016,0.386646507,-1.08749099,1.42763217,0.14529711,-0.325889051,-0.799023449
86796.816044,0.322736016,-1.01153471,1.46104227,0.116021253,-0.30591616,-0.728705883
86796.826073,0.412414643,-1.01651221,1.36944536,0.0946105048,-0.290602714,-0.669374943
86796.836101,0.600230258,-1.00056104,1.20375737,0.085460417,-0.272288412,-0.622066796
86796.846129,0.821849613,-0.976384049,1.00857031,0.0763113946,-0.242218405,-0.577896178
86796.856158,0.93360976,-0.967552362,0.780911892,0.0491823032,-0.212666899,-0.527766168
86796.866186,0.999794005,-1.05329909,0.499918191,0.0182073414,-0.204094455,-0.451916665
86796.876214,1.07191524,-1.06370051,0.227425192,0.0067323125,-0.233952746,-0.374268979
86796.886243,1.17110846,-0.847311241,-0.184541159,0.052441746,-0.258700967,-0.311360598
86796.896271,1.21591688,-0.640099692,-0.274997091,0.0653359741,-0.280401736,-0.278521419
86796.906299,1.14861737,-0.46098085,-0.0912350992,0.045446422,-0.300944567,-0.250531346
86796.916328,1.08506903,-0.361566975,0.0340092371,0.0285137743,-0.303335816,-0.216613322
86796.926356,1.0339615,-0.335936567,0.126401105,0.00595972966,-0.305363536,-0.192423567
86796.936384,0.957356327,-0.244377058,0.204977214,-0.00991643779,-0.316779196,-0.182312608
86796.946413,0.83565697,-0.0569252717,0.250917712,0.00261479965,-0.353214681,-0.200318769
86796.956441,0.707337099,0.145820091,0.410644163,0.0103944261,-0.370494872,-0.250311375
86796.966470,0.527627671,0.266045869,0.766320472,0.0138578676,-0.354542017,-0.306301117
86796.976498,0.233100297,0.311566095,1.09028998,0.0100543573,-0.319619507,-0.353162169
86796.986526,0.0309331861,0.303897607,1.33466864,-0.0199650601,-0.257035732,-0.386778444
86796.996555,-0.0349488652,0.297473419,1.38651749,-0.058504995,-0.189099833,-0.400899589
86797.006583,-0.0325400345,0.177896753,1.21796943,-0.102600552,-0.140568256,-0.37849763
86797.016611,-0.0218157543,-0.0180522279,0.866145705,-0.13870582,-0.138381004,-0.33612752
86797.026640,-0.0452981449,-0.119210025,0.477730909,-0.174150094,-0.180084243,-0.286297649
86797.036668,0.00634500795,-0.198219556,0.225187058,-0.19880484,-0.239592046,-0.224307239
86797.046696,0.0840904242,-0.213454242,0.0978717607,-0.210828215,-0.300291598,-0.176599368
86797.056725,0.14343853,-0.216784994,0.197411747,-0.214178473,-0.348806947,-0.157261103
86797.066753,0.250244415,-0.219232534,0.422623355,-0.216070384,-0.365733206,-0.144635588
86797.076781,0.380634919,-0.26945933,0.7056471,-0.223403662,-0.336662143,-0.13364552
86797.086810,0.438239332,-0.28157267,0.94585754,-0.243576571,-0.2767663,-0.125036046
86797.096838,0.443644442,-0.253006062,1.01385906,-0.269121617,-0.207665533,-0.0987338722
86797.106867,0.417598622,-0.282346431,0.908813465,-0.296536744,-0.164534315,-0.0651764423
86797.116895,0.380633531,-0.264662598,0.643036038,-0.313256592,-0.13212949,-0.0430258662
86797.126923,0.30607338,-0.173846455,0.409161231,-0.331086189,-0.110251099,-0.032534346
86797.136952,0.227130794,-0.175657596,0.218852594,-0.351057768,-0.08961799,-0.0258961506
86797.146980,0.144163556,-0.198847333,0.071671736,-0.365098476,-0.0475413762,-0.0240609646
86797.157008,0.0199463346,-0.20553134,-0.0896563055,-0.385219455,0.00809738506,-0.0299888961
86797.167037,-0.15174634,-0.16616686,-0.340423795,-0.39750728,0.0606591292,-0.0494608618
86797.177065,-0.330589214,-0.0603812573,-0.632946606,-0.391207039,0.0863644928,-0.0936040878
86797.187093,-0.548162802,0.0447703582,-0.937056394,-0.359247237,0.0582950413,-0.159310669
86797.197122,-0.825039276,0.103996746,-1.01396661,-0.316550106,-0.0152998166,-0.21769008
86797.207150,-1.09202878,0.131644486,-0.707688251,-0.292813361,-0.070947364,-0.242314741
86797.217178,-1.20474586,0.222512724,-0.22945699,-0.322822928,-0.0688914061,-0.224143997
86797.227207,-1.26241911,0.367276,-0.0303097981,-0.388479978,-0.0443735458,-0.20451729
86797.237235,-1.1681301,0.506855736,-0.353757908,-0.446950734,-0.0506815091,-0.221666455
86797.247264,-0.807180598,0.54135451,-1.14832189,-0.427660674,-0.0896432921,-0.29341203
86797.257292,-0.161126966,0.492351556,-1.97687992,-0.342005402,-0.137418807,-0.403783798
86797.267320,0.492436129,0.443814173,-2.31623872,-0.267116785,-0.205848992,-0.519802272
86797.277349,1.08539197,0.295424377,-2.04556826,-0.215867981,-0.279079795,-0.586259067
86797.287377,1.65552966,-0.0457038396,-1.43888305,-0.176528573,-0.308990836,-0.551198304
86797.297405,1.95080703,-0.40869376,-0.453553331,-0.175481409,-0.270771801,-0.414834321
86797.307434,1.92453818,-0.761411073,0.542383707,-0.21699211,-0.176516667,-0.187135905
86797.317462,1.54457966,-1.10434736,1.33628543,-0.270168781,-0.0609916747,0.102674074
86797.327490,0.922036081,-1.11310686,1.48047646,-0.295980126,0.0517173,0.394358099
86797.337519,0.343683454,-0.785223107,1.34542794,-0.367269486,0.121761635,0.634409845
86797.347547,-0.0814743873,-0.378438761,0.994244262,-0.44516322,0.143074378,0.820191145
86797.357575,-0.422581342,0.0492732591,0.515129205,-0.499645382,0.0883299038,0.925364971
86797.367604,-0.661177771,0.521631536,0.0925719007,-0.526919365,-0.00430575479,0.915265739
86797.377632,-0.598443265,0.851320915,-0.146180741,-0.50836271,-0.0782561451,0.804797292
86797.387660,-0.539464824,1.11309028,-0.126432085,-0.456504822,-0.124006853,0.607231736
86797.397689,-0.526755272,1.34419986,0.209995919,-0.405037373,-0.125300348,0.358350307
86797.407717,-0.484170733,1.35223499,0.591952332,-0.356567055,-0.0678439885,0.0948473141
86797.417746,-0.543880156,1.22449942,0.897613441,-0.324266642,0.0156586319,-0.150873244
86797.427774,-0.642026423,0.97570973,0.979983681,-0.29505229,0.0839934796,-0.342726856
86797.437802,-0.71640844,0.551779531,0.808886525,-0.25758481,0.114235535,-0.473873138
86797.447831,-0.703447179,0.143916285,0.49669806,-0.223382622,0.0984861329,-0.534604907
86797.457859,-0.573313719,-0.175517968,0.247525731,-0.195805058,0.0356893316,-0.528263927
86797.467887,-0.327059433,-0.400781671,0.0922673648,-0.172064051,-0.0381590612,-0.472923458
86797.477916,-0.110208716,-0.43724159,0.209924022,-0.165402144,-0.107226543,-0.402159274
86797.487944,0.000347534796,-0.439956475,0.316840675,-0.138536185,-0.149122596,-0.336733669
86797.497972,0.107580377,-0.394563418,0.392778836,-0.101322502,-0.137202546,-0.306297988
86797.508001,0.199313708,-0.284433174,0.508567362,-0.0731116384,-0.0907327905,-0.316221744
86797.518029,0.109936183,-0.268455524,0.61716393,-0.0393813699,-0.0438236035,-0.349622577
86797.528058,-0.0466879918,-0.491511269,0.550654107,0.025794439,0.00361954584,-0.363983393
86797.538086,-0.118406234,-0.778792124,0.502051696,0.0738378614,0.0464578234,-0.328687459
86797.548114,-0.0450174648,-0.941248877,0.413426487,0.102873504,0.0749560446,-0.237751946
86797.558143,0.041774099,-1.06416543,0.253600667,0.109150313,0.0789619684,-0.0921907499
86797.568171,0.129721116,-1.07626299,-0.00234743991,0.116652168,0.0617100112,0.0802614465
86797.578199,0.158582104,-0.866016818,-0.312327581,0.137421638,0.0163041819,0.216375872
86797.588228,0.152985526,-0.403039424,-0.479063619,0.161405265,-0.0354522243,0.293665051
86797.598256,0.0229226835,0.00659664005,-0.452300116,0.192350134,-0.0828628838,0.307609111
86797.608284,-0.171891631,0.360690338,-0.372246336,0.23469013,-0.112485759,0.266356468
86797.618313,-0.276124232,0.614200039,-0.187528651,0.268489122,-0.117089026,0.192171469
86797.628341,-0.215616937,0.714233946,0.0940647696,0.276778996,-0.0929783657,0.134367019
86797.638369,-0.0955848188,0.67292425,0.290977335,0.295696765,-0.054111395,0.106934868
86797.648398,0.108499501,0.45909036,0.401323962,0.291029036,-0.00489244983,0.126295254
86797.658426,0.402916638,0.0792967145,0.394430695,0.275285482,0.061524123,0.193705723
86797.668454,0.531992588,-0.199724042,0.184969614,0.282959938,0.103732295,0.270311266
86797.678483,0.491652687,-0.235483192,-0.0521457823,0.340383261,0.118248656,0.311277062
86797.688511,0.458486841,-0.164483948,-0.0993453404,0.393966347,0.145171881,0.300246
86797.698540,0.466883462,0.203948711,-0.103890583,0.448744357,0.18030031,0.244548395
86797.708568,0.583605469,0.575327068,-0.0544978984,0.489636421,0.192566022,0.179928392
86797.718596,0.837369327,0.804042008,0.097959439,0.486875772,0.201134756,0.138509572
86797.728625,1.07342491,1.1047246,0.266709739,0.472726673,0.216550454,0.113488108
86797.738653,1.33200658,1.32461545,0.441174911,0.420113802,0.248247936,0.108644351
86797.748681,1.54109693,1.29408616,0.627383711,0.341066897,0.287903458,0.103805386
86797.758710,1.52734225,1.05975631,0.666862319,0.301029205,0.313986212,0.114860699
86797.768738,1.33824299,0.925867622,0.658006813,0.293850929,0.33524543,0.144563466
86797.778766,0.926645474,1.01130054,1.00688922,0.238775685,0.348895729,0.170656055
86797.788795,0.507012899,1.05701183,1.29352005,0.19965598,0.369700074,0.207054541
86797.798823,0.128634901,0.841339108,1.20691671,0.16926612,0.389566451,0.227711618
86797.808851,-0.217193758,0.750019764,0.997424061,0.147349641,0.420403183,0.20666945
86797.818880,-0.436424866,0.765941045,0.409846875,0.160532281,0.473323405,0.154713303
86797.828908,-0.531727471,0.746785751,-0.242145792,0.171627805,0.53709197,0.0843824223
86797.838937,-0.636826297,0.735191905,-0.885427329,0.194082513,0.566151857,0.00332272192
86797.848965,-0.790339281,0.863229306,-1.69141053,0.23545979,0.540916026,-0.0907382593
86797.858993,-0.802444217,0.865011806,-2.38875509,0.288110733,0.45840916,-0.189241663
86797.869022,-0.715747346,0.719500123,-2.88556362,0.338965416,0.30550617,-0.271940827
86797.879049,-0.355552975,0.50244486,-3.0790012,0.384002656,0.133237451,-0.314627558
86797.889078,0.109073027,0.369322484,-2.78839036,0.414823413,-0.0181949399,-0.309814423
86797.899107,0.504981174,0.253721444,-2.16333889,0.436337769,-0.100639217,-0.250911444
86797.909135,0.829206406,0.160705745,-1.45631057,0.416674316,-0.120779105,-0.154696465
86797.919163,0.978183573,0.0965665233,-0.764684396,0.347271264,-0.141452953,-0.0522755571
86797.929192,0.974241338,-0.00470993126,-0.544226704,0.323434383,-0.152788967,0.0732149854
86797.939220,0.852935803,0.0153339089,-0.510213375,0.316084325,-0.150205433,0.198426709
86797.949249,0.645037879,0.180110337,-0.302438055,0.277297258,-0.150040329,0.312262714
86797.959277,0.504175118,0.311911986,-0.237162158,0.233281851,-0.144544616,0.42672962
86797.969305,0.528852098,0.443289565,-0.287924961,0.188776165,-0.164847493,0.495912164
86797.979333,0.61065769,0.569550092,-0.463752068,0.176350802,-0.180408135,0.521824479
86797.989362,0.593047543,0.672925857,-0.341675256,0.155895337,-0.189459682,0.50888443
86797.999390,0.392137506,0.77015099,0.0812473736,0.112410977,-0.172890291,0.485937536
86798.009419,0.158481347,0.901830182,0.453114939,0.0711780488,-0.156564578,0.432751
86798.019447,-0.0683886638,0.936455651,0.600994301,0.0604985058,-0.160075694,0.325393677
86798.029474,-0.257738991,0.7617235,0.627835546,0.107871883,-0.156634092,0.182797641
86798.039504,-0.460830738,0.620658056,0.643859045,0.154200763,-0.142633855,0.0191091038
86798.049532,-0.731097037,0.745055858,0.877199599,0.187401593,-0.131259754,-0.150647968
86798.059560,-0.805662376,0.798722567,1.12341542,0.1821834,-0.0928694978,-0.27074483
86798.069589,-0.765494689,0.632144642,1.32371996,0.150072873,-0.0484178811,-0.328217179
86798.079617,-0.772938064,0.466212906,1.26937988,0.115411028,-0.0305965394,-0.346659034
86798.089646,-0.739104622,0.205476834,1.12982821,0.0755887777,-0.0104819499,-0.307544649
86798.099674,-0.634336599,-0.0515405099,1.00381113,0.0287677404,0.00432123058,-0.211485758
86798.109702,-0.563500692,-0.0996880163,0.75130995,-0.019388603,-0.00250125537,-0.103331596
86798.119731,-0.465508374,0.0526611845,0.460467055,-0.0897359997,-0.0165235978,-0.0124099413
86798.129758,-0.371052925,0.221465699,0.124763275,-0.162369996,-0.0431727841,0.0343418531
86798.139787,-0.355689169,0.269684956,-0.192752523,-0.206360087,-0.105616458,0.0383576304
86798.149816,-0.345275254,0.22842414,-0.447093195,-0.196591616,-0.185502231,-0.0124043478
86798.159844,-0.25131736,0.104391518,-0.339431277,-0.174621597,-0.240376666,-0.099032186
86798.169872,-0.105203428,-0.0623906975,0.117315881,-0.165559128,-0.240507156,-0.16460906
86798.179901,0.122706717,-0.391780034,0.593929185,-0.179376677,-0.178629398,-0.159865707
86798.189929,0.378431637,-0.755677059,0.799825852,-0.216106981,-0.0685007796,-0.093888022
86798.199957,0.58686195,-1.03341833,0.407232309,-0.253178209,0.0261977669,-0.00759814214
86798.209986,0.631951603,-1.03656862,-0.558001547,-0.262017757,0.0518783629,0.051231619
86798.220014,0.585507321,-0.938221638,-1.39845109,-0.241810217,-0.000652755029,0.0792422146
86798.230042,0.523538502,-0.943782925,-1.88696116,-0.22149536,-0.0937978774,0.0950768366
86798.240071,0.540926567,-0.77341423,-1.99809514,-0.201028705,-0.201213539,0.0815272033
86798.250099,0.531681695,-0.503266187,-1.76232415,-0.173523039,-0.307196707,0.0352041833
86798.260128,0.493683973,-0.420700278,-1.11249012,-0.150457665,-0.368853956,-0.0203770548
86798.270156,0.570467134,-0.485351029,-0.307018369,-0.117122881,-0.377728134,-0.0701190457
86798.280183,0.625994595,-0.454777539,0.600660539,-0.0945206359,-0.336987376,-0.105012313
86798.290213,0.668311349,-0.399828462,1.50841134,-0.0900068432,-0.233968288,-0.0935359523
86798.300241,0.572430872,-0.264737197,2.30941384,-0.15923439,-0.094617866,-0.0406002998
86798.310269,0.298849603,-0.0691846685,2.83597512,-0.262093395,0.0402035974,0.0238117129
86798.320298,0.116697165,0.0721520669,2.5930221,-0.346081793,0.173417315,0.0737662241
86798.330326,0.0771338008,0.154721556,1.8038515,-0.418533623,0.258232325,0.0555600524
86798.340355,0.0919709209,0.244118115,0.723712334,-0.398674935,0.251515299,-0.0307418108
86798.350383,0.115184313,0.191848194,0.0067851301,-0.382312208,0.201682508,-0.168448284
86798.360411,0.350328263,0.0982463662,-0.449914097,-0.303888798,0.174793899,-0.31182301
86798.370440,0.547885555,-0.00570149958,-0.730635411,-0.256125778,0.153318971,-0.452670157
86798.380467,0.516891319,-0.267934313,-0.411973366,-0.270057321,0.143221334,-0.550190806
86798.390496,0.354349518,-0.561828266,-0.261746564,-0.257065356,0.135524258,-0.604403198
86798.400525,-0.0930616205,-0.678980408,-0.0617956542,-0.206446901,0.0932007656,-0.644777
86798.410553,-0.625265915,-0.688444913,0.360209276,-0.156793863,0.0544067696,-0.658062696
86798.420581,-0.880253287,-0.726852604,0.969133786,-0.159949973,0.0532019548,-0.604688168
86798.430610,-0.884521393,-0.747802819,1.35974405,-0.193579048,0.0585258789,-0.485026747
86798.440638,-0.724209031,-0.802941865,1.293945,-0.237812549,0.0523265712,-0.318898231
86798.450666,-0.376651402,-0.863278698,0.839890151,-0.260329068,0.0340165421,-0.148560062
86798.460695,0.0773577914,-0.860051845,0.156499891,-0.277769029,0.00124235032,-0.0193727762
86798.470723,0.523883662,-0.790421041,-0.418569111,-0.282763779,0.0101096118,0.074733749
86798.480751,0.878366158,-0.663636927,-0.831689309,-0.30072096,0.0483163856,0.129189804
86798.490780,1.06791974,-0.537389479,-1.22877315,-0.305670977,0.0768814534,0.13802883
86798.500808,1.1854603,-0.491962922,-1.54875621,-0.285531074,0.068509534,0.122723646
86798.510837,1.38868928,-0.454622859,-1.76236682,-0.250319302,0.0349289402,0.125835016
86798.520865,1.6550578,-0.466322759,-1.63170513,-0.25679478,0.0057513481,0.179413825
86798.530892,1.78635486,-0.366331997,-1.31122639,-0.305108786,-0.0224166401,0.278742552
86798.540922,1.73963651,-0.124596138,-0.845248463,-0.372379959,-0.0513838418,0.410253704
86798.550950,1.66275362,0.0909954452,-0.319630013,-0.449230283,-0.0488852672,0.536514461
86798.560978,1.57409918,0.27067404,0.0131172557,-0.516915023,-0.0207481701,0.617456436
86798.571007,1.34878601,0.525282532,0.27408699,-0.566385388,0.0248968136,0.615311027
86798.581035,0.956840049,0.90094222,0.427758964,-0.569894075,0.0719266385,0.503253162
86798.591063,0.52082643,1.14528545,0.516140427,-0.516444743,0.116044298,0.297339112
86798.601092,0.0766338519,1.10627329,0.615323855,-0.432448089,0.161365449,0.0362191126
86798.611120,-0.337094358,0.811136862,0.720280021,-0.35565719,0.224050403,-0.21944195
86798.621149,-0.525633684,0.595652757,0.849095786,-0.329942226,0.301723331,-0.438109308
86798.631176,-0.567844165,0.500348253,0.848588421,-0.32977125,0.353145003,-0.607175827
86798.641205,-0.591786693,0.138443407,0.504278725,-0.298141956,0.356882215,-0.715206683
86798.651234,-0.633013095,-0.345871064,-0.0508259319,-0.218284115,0.31885305,-0.777231395
86798.661262,-0.660820555,-0.459376411,-0.396449634,-0.141424224,0.23172617,-0.834350884
86798.671290,-0.491614985,-0.46542782,-0.425455948,-0.0652615502,0.113579281,-0.868341863
86798.681319,-0.203676616,-0.573362855,-0.283793561,0.00701264478,-0.0169393178,-0.858513474
86798.691347,0.154714432,-0.609873883,0.179395613,0.0530962497,-0.108081743,-0.804890215
86798.701375,0.517745196,-0.612078845,0.740339059,0.0704105273,-0.135647058,-0.700547278
86798.711404,0.820149166,-0.702404027,1.43578567,0.0339712948,-0.0945211947,-0.508572817
86798.721432,1.02636929,-0.857276901,2.01747146,-0.0175081454,-0.022194,-0.220624402
86798.731460,1.16077009,-0.895639438,2.22787362,-0.0929182097,0.0473693646,0.112758629
86798.741489,1.17201812,-0.754594817,2.25809165,-0.219212234,0.0915440172,0.409815073
86798.751517,0.980254388,-0.440775682,1.80552733,-0.273451507,0.107042812,0.622920692
86798.761546,0.581953975,-0.166939013,1.34809452,-0.282016784,0.0961645991,0.727360845
86798.771574,0.138327041,0.0346453705,1.02901162,-0.245169804,0.0853183419,0.746502042
86798.781601,-0.394227026,0.328208639,0.729952689,-0.185974658,0.0850267261,0.670176089
86798.791631,-0.878697509,0.660393415,0.585921235,-0.131384373,0.0828280225,0.532657683
86798.801659,-1.17863951,0.826448559,0.426801517,-0.0873298347,0.0692791939,0.374701291
86798.811687,-1.24427365,0.772344263,0.286600435,-0.0481451526,0.0277780872,0.246767297
86798.821716,-1.12106213,0.5224944,0.175246677,-0.0101008285,-0.0404707417,0.175932005
86798.831744,-0.946250119,0.305894881,0.23296646,0.0230062585,-0.103522941,0.153639212
86798.841772,-0.80189747,0.211071877,0.479312626,0.0362506881,-0.136023358,0.163205817
86798.851801,-0.765993286,0.119332436,0.661186612,0.0524136797,-0.150424406,0.177161053
86798.861829,-0.791891917,0.117394554,0.743256408,0.078502275,-0.152999148,0.179473475
86798.871858,-0.767079182,0.180978572,0.807813928,0.111136653,-0.144599274,0.160583943
86798.881886,-0.757901311,0.304728103,0.793504832,0.146115676,-0.152317107,0.108926341
86798.891914,-0.777549795,0.424491998,0.857003198,0.181379393,-0.193575859,0.0411819145
86798.901943,-0.696558442,0.408172951,1.12442489,0.209593713,-0.223546818,-0.0127058187
86798.911971,-0.597641849,0.256066199,1.48200148,0.23253046,-0.231988773,-0.032792978
86798.921999,-0.509053026,0.0393941633,1.87748431,0.236522809,-0.211858466,-0.00151015539
86798.932028,-0.485374848,-0.252644554,2.16708568,0.228226528,-0.147473887,0.0970230773
86798.942056,-0.593047105,-0.380354348,2.15886029,0.223026171,-0.0716622174,0.241819948
86798.952084,-0.684543814,-0.243327549,1.78640411,0.195429429,-0.00455375342,0.373148143
86798.962113,-0.751747392,-0.0297175404,1.19369657,0.159624562,0.0341504999,0.477048963
86798.972141,-0.794651518,0.1013021,0.410202849,0.149506405,0.0328285061,0.567308307
86798.982170,-0.895080416,0.182980395,-0.296102423,0.151894882,-0.00513081625,0.625432968
86798.992198,-1.01696835,0.257387547,-0.845798498,0.173604444,-0.0586624853,0.661632776
86799.002226,-1.0768307,0.283363718,-1.23097797,0.19500348,-0.098783806,0.684841454
86799.012255,-1.03431572,0.359601228,-1.62000885,0.222215384,-0.129833862,0.69952184
86799.022283,-1.03326117,0.509821527,-1.76897367,0.21379447,-0.161776617,0.683902144
86799.032311,-1.03605321,0.694703243,-1.84185361,0.212876484,-0.191915348,0.635865152
86799.042340,-1.10644923,0.869523949,-1.91325997,0.253166109,-0.240449861,0.549456477
86799.052368,-1.09533813,0.994419545,-1.64914083,0.270454794,-0.297629535,0.437133133
86799.062396,-1.01314478,0.97855226,-1.23971657,0.302370399,-0.330809325,0.332096726
86799.072425,-0.883004047,0.883868628,-0.789031486,0.339094847,-0.336098373,0.25282532
86799.082453,-0.697314521,0.802555715,-0.279551685,0.364877433,-0.317706317,0.204986423
86799.092481,-0.469739107,0.724783397,0.162559629,0.356773973,-0.273221403,0.186073184
86799.102510,-0.340886006,0.622003917,0.455384053,0.321226895,-0.214855552,0.191004023
86799.112538,-0.274036356,0.517107373,0.394486809,0.293015778,-0.155566663,0.206298292
86799.122567,-0.0821011044,0.406043903,-0.00767068076,0.276430666,-0.0762420148,0.210770279
86799.132595,0.108938148,0.38637496,-0.513283284,0.268476874,-0.00542935636,0.17885761
86799.142623,0.161905768,0.394292017,-1.13248778,0.281271756,0.051512491,0.13697435
86799.152652,0.246218009,0.306161387,-1.65188399,0.300837755,0.101322919,0.124483854
86799.162680,0.4178454,0.244070147,-1.97475167,0.280361235,0.138005033,0.138404459
86799.172708,0.788626266,0.28930721,-2.37407833,0.260653585,0.17475,0.174408808
86799.182737,1.12502387,0.313553835,-2.759197,0.219243035,0.164330661,0.213854209
86799.192765,1.29352561,0.464957499,-2.99331263,0.196380064,0.0817931592,0.237356082
86799.202793,1.35074928,0.71171093,-3.03451616,0.20313783,-0.038286373,0.244354591
86799.212822,1.41221073,0.861941678,-2.69876621,0.241874576,-0.167977512,0.219010621
86799.222850,1.49440868,0.857464898,-2.11485105,0.287460148,-0.231523469,0.17496407
86799.232879,1.52512326,0.695604649,-1.52011347,0.345876068,-0.202597544,0.107564524
86799.242907,1.42149031,0.51732708,-1.07030108,0.4425219,-0.103819579,0.0253556743
86799.252935,1.14686249,0.439075381,-0.84703067,0.537705421,0.0140300952,-0.0626916289
86799.262964,0.842059166,0.553032965,-0.820190594,0.599214852,0.127401665,-0.142526805
86799.272992,0.686972503,0.873332036,-0.91608141,0.602102041,0.199824199,-0.207769185
86799.283020,0.593544825,1.20448473,-0.989005777,0.511880755,0.244305119,-0.244982615
86799.293049,0.495581295,1.4268305,-1.04783381,0.423867792,0.263456434,-0.266714782
86799.303077,0.36422012,1.34349814,-1.23648299,0.380203396,0.230770126,-0.265360028
86799.313105,0.373769563,1.01050508,-1.25089847,0.365943521,0.170743018,-0.26249209
86799.323134,0.594519406,0.945982847,-1.27195763,0.372452796,0.0852137208,-0.284894586
86799.333162,0.845036501,1.11356841,-0.947245779,0.368347555,-0.0194863193,-0.316050649
86799.343191,1.1067591,1.13484413,-0.430084777,0.361223847,-0.083161436,-0.325652391
86799.353219,1.23236299,0.99197924,0.234770294,0.319866031,-0.0628993139,-0.329790413
86799.363247,1.20558246,0.846906752,0.743598353,0.288504392,0.0385897681,-0.32967484
86799.373276,1.0673133,0.73240885,0.875052065,0.264988124,0.176390246,-0.345163256
86799.383304,0.988190369,0.552388822,0.766070297,0.228495926,0.302671731,-0.346616268
86799.393332,0.958059434,0.454768844,0.421195952,0.203988448,0.373760551,-0.318819791
86799.403361,0.845606848,0.319290991,0.262137025,0.151181951,0.385971427,-0.241742864
86799.413389,0.636468569,0.166820501,0.200454768,0.0756693482,0.356344283,-0.113942832
86799.423417,0.394396975,0.207120509,0.222518131,0.0154693928,0.295179188,0.0330665931
86799.433446,0.106688881,0.279612622,0.350512643,-0.0859120935,0.216229811,0.152663827
86799.443474,-0.0432486559,0.363835212,0.321678178,-0.114587143,0.150563702,0.234927267
86799.453503,-0.227503299,0.386015041,0.438368621,-0.155274644,0.0532496683,0.254593134
86799.463531,-0.381400643,0.382746102,0.488751485,-0.121902846,-0.0126760844,0.220451131
86799.473559,-0.545680958,0.285817322,0.672820935,-0.117878012,-0.0680927411,0.127601892
86799.483588,-0.580194345,0.0963201473,0.781905579,-0.0695714653,-0.101424068,0.0158918649
86799.493616,-0.509057118,0.0645531362,0.905717837,-0.0307071563,-0.130234674,-0.110702299
86799.503644,-0.333184126,-0.186679487,1.26004624,-0.00598237012,-0.119876578,-0.171962723
86799.513673,-0.104087046,-0.552695696,1.34965286,0.0244303979,-0.0812130719,-0.152869463
86799.523701,-0.112715402,-0.662003043,1.51823599,-0.0054193777,-0.0503158718,-0.0956687555
86799.533729,-0.0761003844,-0.476237018,1.49303374,-0.0330925509,-0.00177390163,0.00877723005
86799.543758,-0.011697121,-0.241410901,1.30415368,-0.121396579,-0.000414624228,0.0966189355
86799.553786,0.018182268,-0.0333592488,0.800625478,-0.135852218,-0.0191757958,0.162669063
86799.563815,0.0807049282,0.124618898,0.168003866,-0.144806564,-0.067697525,0.162924185
86799.573843,-0.0341310095,0.272784529,0.0251496388,-0.137392312,-0.141553372,0.0997015387
86799.583871,-0.143137483,0.306848419,-0.0118880062,-0.0845397636,-0.231341317,-0.00391219929
86799.593900,-0.148726836,0.295882789,0.129086983,-0.0279297456,-0.291671515,-0.117502674
86799.603928,-0.05913323,0.339184462,0.655206368,-0.0452115312,-0.300282031,-0.196870998
86799.613956,0.0143557937,0.301795666,1.02976683,-0.0831735656,-0.2813752,-0.227624118
86799.623985,0.0229345201,0.175902656,1.14479723,-0.111605473,-0.278814584,-0.231483042
86799.634013,0.069093209,0.165796419,1.00798754,-0.107935637,-0.273161739,-0.237070352
86799.644041,0.121867846,0.222489782,0.961703344,-0.134147793,-0.269298553,-0.249718234
86799.654070,0.333403249,0.265872412,0.760590404,-0.133037522,-0.272432029,-0.254010975
86799.664098,0.542750019,0.145576638,0.670244363,-0.158036351,-0.283844471,-0.238218442
86799.674126,0.633713352,-0.027753903,0.673295567,-0.174180433,-0.288787305,-0.191923112
86799.684155,0.702189653,-0.12992906,0.664597881,-0.197619706,-0.282958448,-0.130465344
86799.694183,0.622847529,-0.19341201,0.719872609,-0.241587698,-0.265748829,-0.0695591196
86799.704212,0.487261868,-0.258068752,0.601676438,-0.254733354,-0.28047666,-0.0198509526
86799.714240,0.329514863,-0.351754313,0.453663805,-0.262843728,-0.324189782,0.0125000635
86799.724268,0.25070816,-0.301372984,0.531561868,-0.27742213,-0.364736944,0.00898895133
86799.734297,0.204088558,-0.202788325,0.715478758,-0.280097544,-0.383474946,-0.00904943794
86799.744325,0.144529869,-0.15783019,0.996660675,-0.271607399,-0.374802619,-0.0349404216
86799.754353,0.0603141469,-0.0681355978,1.30409756,-0.272417009,-0.309340268,-0.0740396231
86799.764382,-0.0335659138,-0.0202694656,1.4882617,-0.299900562,-0.200176999,-0.112842947
86799.774410,-0.155462803,-0.0559662904,1.45347447,-0.326402456,-0.110938743,-0.141297758
86799.784438,-0.20526984,-0.11850458,1.26667589,-0.349122971,-0.0726933554,-0.143743873
86799.794467,-0.184479492,-0.287946443,1.02742757,-0.377906948,-0.07928361,-0.129737511
86799.804495,-0.112203799,-0.333437224,0.76833415,-0.387950778,-0.115985699,-0.10125953
86799.814524,-0.0337409781,-0.196127041,0.679624186,-0.390772402,-0.153241456,-0.101061657
86799.824552,0.0271856016,-0.151261917,0.818254073,-0.380067825,-0.191026106,-0.146956176
86799.834580,0.154567242,-0.199561691,0.951878115,-0.365366906,-0.181745797,-0.219065249
86799.844609,0.380000238,-0.20841749,1.1804554,-0.351106226,-0.131383017,-0.315426677
86799.854637,0.696939039,-0.270621798,1.33529817,-0.324725747,-0.0365627743,-0.414338857
86799.864665,0.911132921,-0.477798276,1.44794723,-0.339537442,0.0968743712,-0.479662746
86799.874694,0.820336798,-0.686657445,1.37149177,-0.366422325,0.226602823,-0.489374757
86799.884722,0.440867671,-0.83922365,0.899182882,-0.363553286,0.295870543,-0.460569739
86799.894750,0.0296333966,-0.874088116,0.211214647,-0.351024717,0.303305835,-0.435601532
86799.904779,-0.186921515,-0.689698859,-0.412489499,-0.340511888,0.250915885,-0.43607372
86799.914807,-0.269207584,-0.527938125,-0.859144887,-0.319689691,0.130874425,-0.456558496
86799.924836,-0.295121741,-0.452322949,-0.938963104,-0.290038079,-0.0203782115,-0.470814914
86799.934864,-0.245678532,-0.499373892,-0.600674568,-0.27298665,-0.129789114,-0.427667171
86799.944892,-0.219068648,-0.536487927,0.117346861,-0.288928598,-0.168892846,-0.312146187
86799.954921,-0.234390136,-0.502247949,0.690717242,-0.347247839,-0.12528491,-0.155062839
86799.964949,-0.292316876,-0.360340575,0.911159736,-0.464373648,-0.00752766151,-0.0132212788
86799.974977,-0.593741444,-0.154374423,0.528332969,-0.558866858,0.0947190747,0.0408890918
86799.985006,-1.01938659,-0.0936869675,-0.760236184,-0.537053704,0.118019342,-0.0278726611
86799.995034,-1.00377036,-0.137876841,-2.3067566,-0.458387375,0.092703104,-0.21850346
86800.005062,-0.542348526,-0.171028054,-3.37865518,-0.349222273,0.0194451306,-0.481364369
86800.015091,0.290606236,-0.250232469,-4.22185957,-0.222134888,-0.116205908,-0.697725713
86800.025119,1.30031118,-0.67350826,-4.11277317,-0.144210532,-0.297901154,-0.784493089
86800.035147,2.2074247,-1.10871834,-3.3735751,-0.0782751888,-0.430018961,-0.692516029
86800.045176,2.72363089,-1.50785269,-1.95526605,-0.0918165669,-0.458923846,-0.446740896
86800.055204,3.00768836,-1.67355032,-0.538825137,-0.193080589,-0.374069422,-0.103230134
86800.065233,2.89176189,-1.55360044,0.699525402,-0.358927339,-0.273939103,0.220971644
86800.075261,2.46675661,-1.17057983,1.06219785,-0.433347523,-0.15971823,0.471233696
86800.085289,1.87899442,-0.739640994,1.14060211,-0.463104635,0.00514581986,0.596409738
86800.095318,1.08373149,-0.229464808,0.924807738,-0.481850356,0.187192321,0.567542374
86800.105346,0.288528553,0.362585212,0.169168818,-0.449585348,0.335797489,0.396791667
86800.115374,-0.322796588,0.720614952,-0.81658351,-0.385044187,0.398255289,0.143788174
86800.125403,-0.659754533,0.774051578,-1.73205234,-0.309658349,0.378972113,-0.135155037
86800.135431,-0.764399733,0.684876553,-2.49725871,-0.2026757,0.320531994,-0.388058931
86800.145459,-0.655203007,0.433826776,-2.75049932,-0.136266321,0.218038112,-0.587938786
86800.155488,-0.458817681,0.118540747,-2.63992122,-0.0757491812,0.0953803733,-0.711955249
86800.165516,-0.286308393,-0.155709836,-2.44726456,-0.0244084969,-0.0235446803,-0.773416221
86800.175545,-0.14624566,-0.372234499,-1.95704592,0.0110304533,-0.130536377,-0.784744501
86800.185573,0.103864352,-0.457017207,-1.3024194,0.0412032679,-0.226008564,-0.754684865
86800.195601,0.516802325,-0.554164599,-0.581646627,0.0645876899,-0.284870297,-0.677536011
86800.205630,0.869385272,-0.679222473,0.203657948,0.0502199344,-0.299088657,-0.557699382
86800.215658,0.955050973,-0.664299337,1.10684948,0.0241611674,-0.287482321,-0.43353188
86800.225686,0.941408305,-0.616742782,1.58341369,0.0336982161,-0.225694582,-0.283966362
86800.235715,0.810171889,-0.534481373,2.08746912,-0.00155218341,-0.104047775,-0.130686253
86800.245743,0.534038415,-0.20998726,2.3406577,-0.0699493513,0.0375386477,0.00382095436
86800.255771,0.306145824,0.12608855,2.03359491,-0.151475891,0.152565628,0.101793058
86800.265800,0.332063159,0.195300618,1.29059511,-0.202493802,0.2095429,0.176331207
86800.275828,0.443211166,0.182509233,0.366705653,-0.202181414,0.200427964,0.222923204
86800.285857,0.511517151,0.249135797,-0.344786666,-0.18417871,0.159412086,0.252331167
86800.295885,0.489841545,0.213353412,-0.705064916,-0.172924727,0.117877699,0.268439561
86800.305913,0.406700905,0.293838679,-0.822137052,-0.170577154,0.0904902816,0.263279408
86800.315942,0.362126326,0.34962322,-0.835087719,-0.164824724,0.0672091916,0.252730101
86800.325970,0.354900466,0.272420007,-0.76518007,-0.178264633,0.0374544933,0.278471678
86800.335998,0.403860531,0.223974285,-0.547772414,-0.19254823,-0.0147032533,0.33863917
86800.346027,0.45045025,0.17604349,-0.253393162,-0.190455511,-0.0692892671,0.408125281
86800.356055,0.424890934,0.151116481,0.149338329,-0.189089313,-0.0977166444,0.462729931
86800.366083,0.30430173,0.285994432,0.589735825,-0.153665006,-0.0910936296,0.48973465
86800.376112,0.128000832,0.442270633,0.918348771,-0.128992155,-0.0325549506,0.463625044
86800.386140,-0.0555978955,0.486500309,1.1051193,-0.101864144,0.0797201917,0.402238905
86800.396169,-0.331555137,0.501930846,0.901736074,-0.0730300993,0.197587445,0.305171758
86800.406197,-0.642226183,0.479102161,0.475081856,-0.0322041027,0.278081208,0.182173386
86800.416225,-0.954238122,0.298801379,-0.113370359,0.0314619578,0.305187911,0.0740594268
86800.426254,-1.22150009,0.184876419,-0.770330877,0.143858016,0.296615988,0.0072705471
86800.436282,-1.40100515,0.139530526,-0.925683351,0.176760569,0.21633023,-0.0578573272
86800.446310,-1.32015058,0.136140665,-1.22186585,0.212527096,0.0759502202,-0.0973522663
86800.456339,-0.974377678,0.221838113,-1.38810213,0.237212732,-0.11591962,-0.106456019
86800.466367,-0.440138444,0.34136261,-0.946641384,0.253590107,-0.281602859,-0.0663980842
86800.476395,0.0380174133,0.428788928,-0.0769143129,0.248393208,-0.3756468,0.0057402947
86800.486424,0.389951321,0.431792786,1.05194359,0.214521259,-0.364399761,0.104897507
86800.496452,0.613852175,0.36028636,1.94562904,0.166617393,-0.250534713,0.234579593
86800.506481,0.547941487,0.252823911,2.59200445,0.0754081085,-0.0996511653,0.359244287
86800.516509,0.188615387,0.287223791,2.77059869,0.0360556431,0.0705999285,0.457248628
86800.526537,-0.273861803,0.389459336,2.46161574,0.000994064845,0.206429139,0.494580567
86800.536566,-0.710608522,0.48737574,1.850079,-0.0101310238,0.269490898,0.478745669
86800.546594,-0.991819227,0.585528765,0.961820248,0.0236969814,0.249556363,0.425089359
86800.556622,-1.20282695,0.649628422,0.375744115,0.0455886945,0.17615965,0.349994868
86800.566651,-1.29823378,0.679179657,-0.0214759187,0.0654148683,0.0732316673,0.274612248
86800.576679,-1.15134577,0.577083008,-0.164064773,0.0686585978,-0.0296454504,0.225506216
86800.586707,-0.864845144,0.363192749,-0.120046768,0.0795810148,-0.108400449,0.219756976
86800.596736,-0.53887084,0.22986853,0.0480219804,0.0932624713,-0.156871051,0.23578921
86800.606764,-0.131132116,0.18915574,0.414663336,0.0893862471,-0.157011926,0.277509481
86800.616793,0.218119933,0.128707135,0.75264266,0.0661461726,-0.111841515,0.331972212
86800.626821,0.326886268,0.159373546,0.987563177,0.0387710035,-0.0557636023,0.383619428
86800.636849,0.241637732,0.274741655,1.02159346,0.0186944976,-0.00584477931,0.410415083
86800.646878,0.131543875,0.294687368,0.969395067,0.00149234221,0.0620570406,0.4172903
86800.656906,-0.0461709822,0.270087819,0.762103731,0.00629055966,0.137086272,0.382361323
86800.666934,-0.338803683,0.302850728,0.435033339,0.0351208746,0.187455714,0.311577708
86800.676963,-0.540480905,0.351981729,0.176726686,0.0824678838,0.197837248,0.229827717
86800.686991,-0.601722652,0.324431203,-0.0152472535,0.137874961,0.158665344,0.162399948
86800.697019,-0.579332212,0.351356912,0.0119365215,0.180647448,0.0776402652,0.125831291
86800.707048,-0.447876673,0.29448695,0.254855051,0.20027256,-0.00536407903,0.151286036
86800.717076,-0.262338319,0.183360389,0.682512893,0.176910236,-0.0533241443,0.223734409
86800.727105,-0.0887181844,0.113160625,1.14271867,0.144786924,-0.0611325353,0.33933264
86800.737133,0.0870745089,-0.0141445712,1.44382635,0.115992285,-0.0306350794,0.473021477
86800.747161,0.154775332,-0.0645949843,1.59738902,0.08201994,0.0294628777,0.580531657
86800.757190,-0.0365103332,7.45448072e-05,1.54113113,0.0688527375,0.100808166,0.627065897
86800.767218,-0.374763762,0.195155693,1.31065239,0.0881177783,0.136500642,0.604910254
86800.777246,-0.613622604,0.278167154,1.06289753,0.119452268,0.127207816,0.548608124
86800.787275,-0.747402568,0.320264439,0.823285053,0.154857665,0.0824382156,0.471813202
86800.797303,-0.718057157,0.391573844,0.842196674,0.176287323,0.0328554809,0.414811701
86800.807330,-0.487525487,0.234006964,1.00119247,0.177605063,0.0309843402,0.417440236
86800.817360,-0.180139381,0.0437885167,1.11757078,0.150561452,0.0667119771,0.476991713
86800.827388,0.0227352712,-0.12594252,1.05302787,0.11403966,0.127932191,0.563027501
86800.837416,0.0574642008,-0.248329887,0.729211516,0.0935828537,0.187787533,0.653282821
86800.847445,-0.1098161,-0.229414813,0.242709855,0.0831722915,0.215537146,0.702268779
86800.857473,-0.334679077,-0.0844740715,-0.44954351,0.106095985,0.213724598,0.681132615
86800.867502,-0.422033755,0.175773167,-1.21715811,0.160097972,0.167195171,0.578407526
86800.877530,-0.397588611,0.414363768,-1.87607912,0.236241475,0.0720819756,0.402890831
86800.887557,-0.155582301,0.597924027,-2.24641524,0.327651829,-0.0536274798,0.183369935
86800.897587,0.237287282,0.652491849,-2.09556884,0.411312878,-0.157267854,-0.0163437016
86800.907614,0.762774616,0.461053989,-1.43131174,0.471590877,-0.204120308,-0.110030778
86800.917643,1.25985452,0.198674058,-0.507888732,0.482546598,-0.179589674,-0.0773306265
86800.927672,1.65286921,0.0982195421,0.333397257,0.419310093,-0.0820199698,0.0558450073
86800.937700,1.84687655,0.0498139601,0.687992786,0.347691566,0.0660698935,0.26234597
86800.947729,1.64438809,0.0421335617,0.518550996,0.27053687,0.215321958,0.443106979
86800.957757,1.03646019,0.383044318,-0.124324883,0.212121487,0.304822534,0.540301442
86800.967785,0.413938565,0.732730337,-1.04750531,0.204445735,0.30466646,0.555948555
86800.977814,-0.128815911,1.09768871,-1.9736744,0.234947175,0.218016818,0.467194468
86800.987841,-0.579379449,1.46763831,-2.39052794,0.272170544,0.082375735,0.308497578
86800.997870,-0.788326114,1.70245244,-2.57022517,0.343328863,-0.0391778611,0.135520488
86801.007899,-0.768255678,1.71157216,-2.19982767,0.374519557,-0.128632382,-0.0221650153
86801.017927,-0.504818092,1.53569361,-1.51332016,0.381131649,-0.153922826,-0.116248906
86801.027955,-0.140363287,1.32411335,-0.963987071,0.355142385,-0.11614348,-0.15564239
86801.037984,0.101600499,1.07231797,-0.663472092,0.324589014,-0.0468898416,-0.149101928
86801.048012,0.186246429,0.758961488,-0.825623141,0.325050533,0.0197717436,-0.103509672
86801.058041,0.0812655669,0.597626944,-1.1337936,0.337827325,0.0489061922,-0.0608072206
86801.068069,-0.113272104,0.805064556,-1.69355514,0.357501954,0.0352822579,-0.0586647019
86801.078097,-0.329038295,1.09034317,-2.22080149,0.357971191,-0.00563241635,-0.0991189182
86801.088125,-0.477959713,1.18513508,-2.7505338,0.389193028,-0.0831671506,-0.157965988
86801.098154,-0.420881151,1.28346087,-3.05667188,0.439830899,-0.177843869,-0.244203955
86801.108182,-0.143762172,1.46987674,-2.97969678,0.454592824,-0.236798525,-0.352682739
86801.118211,0.116676195,1.49310067,-2.5088229,0.443424046,-0.271024406,-0.440989971
86801.128239,0.265482901,1.30901661,-1.82281807,0.418509632,-0.276106,-0.477529883
86801.138266,0.353520118,1.10407264,-1.05010176,0.376378953,-0.254107744,-0.479659081
86801.148296,0.484564884,0.968015157,-0.323074601,0.302504748,-0.238808945,-0.426433414
86801.158323,0.615838381,0.622995632,0.134240128,0.285767317,-0.234948963,-0.277064949
86801.168353,0.500373059,0.297813464,0.965111691,0.187029541,-0.264590204,-0.0961995646
86801.178381,0.24737149,0.384576167,1.71807701,0.101144999,-0.236545801,0.0626287013
86801.188409,-0.0825848328,0.565417888,2.10605575,0.0203548148,-0.129609764,0.163246125
86801.198438,-0.522451766,0.594931567,2.17946235,-0.0376128815,-0.00941277295,0.175497726
86801.208466,-0.935522754,0.734713839,1.59180508,-0.0299608205,0.078102693,0.0847289413
86801.218494,-1.1357573,1.05415885,0.813294405,-0.0050296383,0.101391509,-0.108259156
86801.228523,-1.10275593,1.26222417,0.21226854,0.0129006263,0.0513736084,-0.355850846
86801.238550,-0.850378666,1.16141496,-0.252540344,0.0797994956,-0.000922349631,-0.578430116
86801.248579,-0.475781237,0.718252242,-0.163815182,0.0844573677,-0.0291412044,-0.741311431
86801.258607,-0.097394937,0.170473179,0.169333069,0.094173111,-0.0265925582,-0.83052063
86801.268636,0.280787219,-0.474897001,0.31953006,0.111070067,0.00338398176,-0.842402339
86801.278665,0.681058602,-1.27303885,0.51827101,0.122693703,0.0553947166,-0.796015918
86801.288693,1.06936541,-1.91307059,0.452124175,0.158179522,0.106071748,-0.69973439
86801.298721,1.37391125,-2.33502788,0.275111073,0.176660255,0.147558466,-0.561403453
86801.308750,1.49955277,-2.64485341,-0.00943535234,0.196769252,0.18040216,-0.376500994
86801.318778,1.539359,-2.73572582,-0.358201444,0.212362871,0.203684852,-0.167770147
86801.328806,1.48440065,-2.57312966,-0.680851097,0.167844132,0.201863512,0.0180391278
86801.338834,1.33090242,-2.21942991,-1.04888946,0.142659947,0.170746341,0.166919425
86801.348863,1.20425421,-1.74588622,-1.81058461,0.190572351,0.114549123,0.262887239
86801.358891,1.10156555,-1.11540871,-2.05781224,0.213545576,-0.00804044586,0.273877829
86801.368920,1.05608003,-0.554628783,-2.01995684,0.243826777,-0.167471647,0.242584884
86801.378948,1.02540264,-0.35950164,-1.39085815,0.230744541,-0.300437957,0.228268802
86801.388977,1.01868458,-0.359828972,-0.235780348,0.192877576,-0.343963861,0.271769673
86801.399005,1.06438543,-0.28910555,0.774682058,0.120470494,-0.327000588,0.339795858
86801.409032,1.10821989,-0.0707820937,1.40132752,0.0640892386,-0.281311661,0.39988929
86801.419062,1.07480212,0.119184013,1.97955177,-0.0214349758,-0.21025081,0.447481841
86801.429090,0.881156666,0.20625454,2.26151636,-0.0827300251,-0.152662084,0.450929314
86801.439118,0.560266496,0.417005296,2.34456815,-0.130493551,-0.1213172,0.374720007
86801.449147,0.229743077,0.563105081,2.50223124,-0.149679497,-0.0936150029,0.239611194
86801.459175,-0.0731449139,0.568693987,2.61697406,-0.141874313,-0.058173921,0.079958953
86801.469203,-0.268732624,0.453869338,2.75902515,-0.137736291,0.0187565461,-0.0779771507
86801.479232,-0.391412078,0.331957142,2.82441795,-0.15075089,0.102924153,-0.234639734
86801.489259,-0.522665043,0.157343429,2.57492823,-0.0995321795,0.139388412,-0.374812007
86801.499289,-0.568976055,-0.27828963,2.1670699,0.00267728348,0.149911895,-0.470963329
86801.509316,-0.672364132,-0.708146662,1.76912155,0.144653857,0.142016426,-0.533551037
86801.519345,-0.909467545,-0.720226026,1.53435593,0.242899731,0.122129276,-0.589254498
86801.529374,-0.878814633,-0.355219798,1.93660695,0.164086953,0.127628967,-0.605251312
86801.539402,-0.579469575,-0.0859581086,2.03528067,0.0567248054,0.136881053,-0.560153067
86801.549430,-0.445049341,-0.0406038131,1.57261932,-0.017880721,0.0742797256,-0.506055474
86801.559459,-0.319271665,-0.155926621,0.993347021,-0.0612907782,-0.035296835,-0.492759973
86801.569487,-0.0461644063,-0.294359744,0.771166743,-0.107254013,-0.103305712,-0.512777567
86801.579515,0.0828538224,-0.289544745,0.698518856,-0.0897972584,-0.142660052,-0.55107224
86801.589543,0.0268814311,-0.475752011,0.816038735,-0.0445458889,-0.142589748,-0.585387051
86801.599572,0.0262346576,-0.545124091,1.08467564,-0.0240472704,-0.0979658067,-0.611446917
86801.609600,0.193690534,-0.447360613,1.27191846,-0.048083365,-0.0364901982,-0.610714018
86801.619629,0.427154349,-0.483833026,1.32083652,-0.0989108607,0.0357935838,-0.550597131
86801.629657,0.530416352,-0.68315236,1.07506961,-0.165216118,0.0678082481,-0.427618772
86801.639686,0.590460449,-0.732466937,0.544288663,-0.149174303,0.0814414993,-0.255550593
86801.649714,0.357553757,-0.696642833,0.511017678,-0.232762933,0.0163860675,-0.101630285
86801.659741,-0.00270808991,-0.525346501,0.420238505,-0.23712413,-0.0709973052,0.0547089912
86801.669771,-0.381151344,-0.338633039,0.545249617,-0.270408839,-0.161588997,0.176770449
86801.679799,-0.713174573,-0.110005339,0.902760156,-0.306477904,-0.210358396,0.250384212
86801.689827,-0.870491772,0.268119314,1.02631406,-0.286554784,-0.186657071,0.273523092
86801.699856,-1.04525023,0.545569424,1.23980483,-0.351798773,-0.169014424,0.196686104
86801.709884,-1.03766861,0.713627724,1.01450905,-0.367535412,-0.139453605,0.0557473563
86801.719913,-0.718191671,0.784026371,0.338782458,-0.319181174,-0.126712769,-0.112961233
86801.729941,-0.219667162,0.527206304,0.052778235,-0.300242901,-0.154817119,-0.258551449
86801.739968,0.472416692,0.160791962,-0.243121943,-0.25780198,-0.194762662,-0.311419189
86801.749998,1.08022444,-0.208134509,-0.11905951,-0.25129509,-0.229914263,-0.254269361
86801.760025,1.48896328,-0.423650433,0.248748551,-0.270484209,-0.223294437,-0.10364709
86801.770054,1.71056298,-0.516289188,0.664708356,-0.330462337,-0.163056672,0.099020265
86801.780083,1.5885794,-0.473292708,0.872395998,-0.39296034,-0.0475756079,0.287504166
86801.790111,1.15655167,-0.236729904,0.765886757,-0.447543412,0.0917513967,0.407929629
86801.800139,0.621094401,0.048802244,0.370801398,-0.487741977,0.217302918,0.450343668
86801.810168,0.170838176,0.263518981,-0.29388007,-0.48778671,0.300078481,0.434089065
86801.820196,-0.178552477,0.22483503,-1.05835053,-0.444428056,0.329253167,0.399509519
86801.830225,-0.322759251,-0.0972459569,-1.70250008,-0.380404592,0.319710255,0.387799323
86801.840253,-0.43173627,-0.304799707,-2.08997731,-0.314799219,0.286648452,0.398130268
86801.850281,-0.526579002,-0.445052154,-2.29707575,-0.272857636,0.235878736,0.459613323
86801.860310,-0.440198503,-0.727364573,-2.21733469,-0.285562754,0.176630065,0.602879167
86801.870338,-0.201636488,-0.772130182,-2.11684602,-0.319077313,0.0704343915,0.782296896
86801.880366,-0.0463757475,-0.427210683,-2.11622526,-0.370149553,-0.0578921586,0.923785269
86801.890395,0.0849556901,-0.148002367,-1.90227681,-0.439113438,-0.125883996,1.00172424
86801.900423,0.0172129641,-0.0839650351,-1.71981479,-0.456216782,-0.125176132,1.00607109
86801.910452,-0.313609511,-0.0383106789,-1.65513744,-0.40769133,-0.0782576129,0.937337339
86801.920480,-0.669408058,0.00501516128,-1.59868549,-0.343219399,0.00956571195,0.815952837
86801.930508,-0.95098102,0.11659038,-1.58301972,-0.297642589,0.102758244,0.671513379
86801.940537,-1.19909463,0.2038462,-1.78443953,-0.276039839,0.147216246,0.543827295
86801.950565,-1.28801283,0.061850307,-2.21577928,-0.250892401,0.122939408,0.475822657
86801.960593,-1.17558721,-0.149588961,-2.62832314,-0.248655349,0.0389046893,0.46317637
86801.970622,-1.0499717,-0.161706392,-2.83088043,-0.251577646,-0.0861917064,0.459972322
86801.980650,-0.868352129,-0.113382506,-2.72865807,-0.274016112,-0.200091913,0.473071367
86801.990678,-0.693261958,-0.117188903,-2.39567875,-0.271803409,-0.285987824,0.486903995
86802.000707,-0.660349722,-0.0626055275,-2.07246737,-0.245332122,-0.330937982,0.468409389
86802.010735,-0.634708501,0.0262570749,-1.70956578,-0.224849746,-0.326984257,0.399046302
86802.020764,-0.64319722,0.0291682177,-1.37024031,-0.190610558,-0.260169804,0.294431478
86802.030792,-0.692807858,0.0841504838,-1.0799077,-0.165255919,-0.1687693,0.189937025
86802.040820,-0.807534088,0.124210527,-0.783233613,-0.143701106,-0.0884497091,0.101126999
86802.050849,-0.92103348,0.0709296581,-0.720671066,-0.120177142,-0.0536720157,0.0343740731
86802.060877,-1.01718616,0.0921094982,-0.71640581,-0.0970068425,-0.0697457939,-0.0184984654
86802.070905,-1.04340796,0.195041255,-0.723159961,-0.0835765153,-0.132693052,-0.0577590503
86802.080934,-0.902664733,0.2778036,-0.533172226,-0.0780856088,-0.209695429,-0.0669102073
86802.090962,-0.661292922,0.312902568,-0.241017664,-0.084795177,-0.261671305,-0.0575100444
86802.100990,-0.361305474,0.328876492,0.054301499,-0.0911153927,-0.265450597,-0.0362886488
86802.111019,-0.109311585,0.242536417,0.272483647,-0.0879398435,-0.222929478,-0.00578027312
86802.121047,0.0768801183,0.168001327,0.418828639,-0.106776379,-0.16476284,0.0195855387
86802.131076,0.332536257,0.120381534,0.291855287,-0.104598179,-0.0737107098,0.0441840924
86802.141104,0.573249604,0.0565062791,0.0518389083,-0.12223763,0.0180224106,0.0735196024
86802.151132,0.671000807,-0.0561783988,-0.28774376,-0.127925605,0.0748846233,0.113978624
86802.161161,0.649580418,-0.27428191,-0.662415277,-0.141027287,0.0901064575,0.175142363
86802.171189,0.455549765,-0.492809017,-1.0611311,-0.115833521,0.049529206,0.270281136
86802.181217,0.129886025,-0.524261409,-1.34938924,-0.0867254362,-0.0399556682,0.379152477
86802.191246,-0.080752795,-0.337970264,-1.50854111,-0.0813338682,-0.165697888,0.46639207
86802.201274,-0.1803459,0.0227426873,-1.45550393,-0.0888623595,-0.303504229,0.498676747
86802.211302,-0.277042625,0.426002732,-1.11347328,-0.0743239,-0.428212613,0.465544373
86802.221331,-0.295225421,0.631717283,-0.86172672,-0.0320347622,-0.483478516,0.367712885
86802.231359,-0.186826055,0.590534026,-0.646509267,0.0856820121,-0.429627001,0.233598754
86802.241388,-0.0991551516,0.505426214,-0.504606641,0.135245055,-0.323492318,0.064321585
86802.251416,-0.0693450466,0.358343775,-0.460015805,0.220397234,-0.192378491,-0.0941186547
86802.261444,0.0119600485,0.204135356,-0.963728712,0.314683527,-0.0654557049,-0.245257854
86802.271473,-0.00333053266,0.129169218,-1.49759126,0.435576379,0.038189467,-0.418174237
86802.281501,-0.0225982008,0.191712969,-2.21443663,0.612658441,0.0959630162,-0.58898139
86802.291529,-0.0266803555,0.0998440837,-2.94476224,0.786129057,0.0922529623,-0.75572747
86802.301558,-0.0247401082,0.0390058398,-3.38814782,0.941186547,0.0734254792,-0.900749087
86802.311586,0.143663498,0.0420698031,-3.73072207,1.06875563,0.0638636649,-1.00209069
86802.321614,0.390103114,-0.0915975758,-3.79898195,1.14568186,0.0389572531,-1.05274856
86802.331643,0.594121566,-0.161972477,-3.89246161,1.22685242,-0.00568025606,-1.06510115
86802.341671,0.911978286,-0.25935134,-4.25773519,1.37420368,-0.0818221644,-1.05018342
86802.351700,1.12536304,-0.505238656,-4.55151998,1.5421834,-0.205583245,-1.05342388
86802.361728,0.942177975,-0.681154172,-4.65274806,1.81947207,-0.331493527,-1.02797508
86802.371756,0.548910624,-0.757757007,-4.53759725,2.17700958,-0.406389326,-0.963616192
86802.381785,0.252384642,-0.586294598,-4.15159069,2.54159474,-0.439582169,-0.893235803
86802.391813,-0.0814607241,-0.219154938,-3.37410935,2.76218367,-0.431159407,-0.850288868
86802.401841,-0.423020464,0.119234867,-2.57856805,2.80192924,-0.352907479,-0.818828404
86802.411870,-0.448283427,0.377127824,-2.29733294,2.81641245,-0.175615758,-0.780311346
86802.421898,-0.262529897,0.666390318,-2.65361306,2.90977263,0.0598188601,-0.738485098
86802.431927,-0.122309087,0.775764008,-2.42634803,2.80514407,0.260053396,-0.698472977
86802.441955,-0.0651096741,0.594325491,-0.705424982,1.9463104,0.829333127,-0.596934617
86802.451983,-0.379190163,0.296161167,0.913162892,1.28958631,1.58477926,-0.56313616
86802.462012,-1.16186446,0.924773543,0.293146496,0.705348194,2.26754713,-0.584840417
86802.472040,-1.60147044,0.921712986,-0.38472997,0.242882296,2.87904024,-0.507402062
86802.482068,-1.00192429,-0.332483065,-0.924644071,-0.628219366,3.71627188,-0.130836993
86802.492097,-0.829520294,0.475433738,1.03150987,-2.16665602,4.65037632,0.471027553
86802.502125,1.08183048,0.987582758,2.71281344,-4.28963709,5.77037525,1.7612747
86802.512153,2.61741537,1.5672879,5.1350739,-6.49392891,6.62289143,2.47496772
86802.522182,5.03563036,4.33223192,3.95370898,-7.81173849,6.97312212,3.71319747
86802.532210,7.76839821,4.9279778,4.03977983,-9.09412861,7.06951332,4.69903803
86802.542239,6.16851445,1.1827476,-0.0587000262,-6.77259493,6.6110754,3.77327108
86802.552267,5.00655507,0.310131825,-20.4030452,1.1833123,4.73239326,1.7687782
86802.562295,8.75665112,2.931384,-24.1285937,3.90614986,2.65971828,1.45581973
86802.572324,6.09522359,-3.7968616,-23.6310206,6.15960693,0.672692358,2.02470326
86802.582352,0.632090573,-0.134371207,-23.0432815,8.1368866,-0.814723849,1.78937829
86802.592380,0.0361792746,2.83611015,-14.362133,8.19537544,-1.43959808,1.48403943
86802.602409,1.88894737,2.73953369,-8.55767636,7.3483901,-1.82800865,1.50758553
86802.612437,2.31101806,3.57526555,-4.65135106,5.97028065,-2.18676305,1.49459541
86802.622465,2.2376062,4.19737483,1.40118256,3.61610603,-2.43171906,1.51731241
86802.632494,1.20850544,2.1961297,4.87560171,1.36884916,-2.39036298,1.86335635
86802.642522,0.97680622,-0.297455591,4.74887327,-0.0100871185,-1.89970016,2.3255198
86802.652551,0.688278617,-1.39343764,2.8372523,-0.387651175,-1.17479944,2.65254855
86802.662579,0.344929874,-1.35538585,-0.159915837,0.0696772188,-0.533202946,2.8197372
86802.672607,0.378451766,-0.32853725,-2.94260594,0.708144248,-0.204519317,2.77611828
86802.682636,0.0802213916,1.02760059,-4.57703728,1.23765063,-0.196764454,2.59581137
86802.692664,-0.539256515,1.85421975,-5.04794799,1.5090729,-0.426157176,2.40330601
