t,ax,ay,az,gx,gy,gz
105578.541427,0.196753941,0.227007223,0.300025734,-0.0117167486,-0.126364872,0.0901676863
105578.551454,-0.0494931763,0.436772547,0.376429759,0.113799632,0.107777327,0.052165702
105578.561480,-0.189316356,0.389207407,0.276827813,0.239667818,0.291944474,0.0293991379
105578.571507,-0.252831089,0.150205321,0.313480843,0.235985205,0.360989332,0.0226885043
105578.581533,-0.33102998,0.0314825682,0.486726117,0.128580973,0.329934746,0.00662112189
105578.591560,-0.184644346,0.0311814298,0.566954669,-0.0120421872,0.245330662,-0.0187129974
105578.601586,0.0952239131,-0.0110071317,0.62348495,-0.149999782,0.141193867,-0.0301464796
105578.611613,0.314452282,-0.129926503,0.494444144,-0.234432906,0.0589445345,-0.000291645527
105578.621639,0.354439936,-0.169633769,0.148294957,-0.213079154,0.0171491504,0.0482183658
105578.631666,0.079649994,-0.0157275844,-0.386048067,-0.151942298,-0.0108329477,0.0463650711
105578.641693,-0.0688261099,0.0920063758,-0.50382572,-0.126797795,-0.00402351096,0.0804450139
105578.651719,-0.115980276,-0.0170600385,-0.635673985,-0.0847827047,-0.00572234159,0.0619562827
105578.661746,-0.33250798,0.053314753,-0.739987761,-0.0478790142,-0.0544145145,0.0616545454
105578.671772,-0.263211266,0.0615220249,-0.633341158,-0.0510021038,-0.120197251,0.0447671749
105578.681799,-0.138998776,0.0208791584,0.0389198055,-0.0983325988,-0.182847589,0.0239258111
105578.691825,-0.117715658,0.00766812348,0.0395382297,-0.170889884,-0.247543484,0.0146968914
105578.701852,-0.0175887991,-0.0586241845,0.299202727,-0.225191206,-0.285656273,0.0257988125
105578.711878,0.00181870789,-0.15637484,0.477191396,-0.256404519,-0.276109904,0.0788676217
105578.721905,-0.0147938106,-0.505011569,0.684718294,-0.26962924,-0.241264552,0.0678546503
105578.731932,0.0530496495,-0.247313385,0.917753727,-0.341217399,-0.121557325,0.198151395
105578.741958,-0.0711802399,-0.00720057903,0.423432333,-0.231359616,-0.0589328334,0.203872398
105578.751985,-0.378891692,-0.0422288205,0.213145323,-0.145335793,0.0036178967,0.166291475
105578.762011,-0.224806187,0.370520389,-0.0432417604,-0.0630816668,0.0657001808,0.176097229
105578.772038,-0.302664229,0.168411022,-0.194113874,0.00180518534,0.0753634572,0.152738377
105578.782064,-0.394229108,0.0737380392,-0.394072968,0.0791676193,0.0611994341,0.144610673
105578.792091,-0.429092076,0.0578421308,-0.48092766,0.140561745,0.0351707637,0.148814216
105578.802117,-0.519382113,-0.0828300945,-0.353176309,0.166696936,0.0296186041,0.126066551
105578.812144,-0.675338033,-0.143238605,-0.3117793,0.284619063,0.0877535492,-0.0484751537
105578.822171,-0.840973928,-0.0234122571,-0.38811669,0.418250084,0.167005494,-0.243843585
105578.832197,-0.777630021,-0.131521882,-0.372095529,0.560728371,0.223717511,-0.32096073
105578.842224,-0.899584011,-0.241671744,-0.593666735,0.672896743,0.205050081,-0.282392323
105578.852250,-0.935916357,-0.172106735,0.287514043,0.40428099,0.214803636,-0.134350121
105578.862277,-0.999829807,-0.34590588,0.955809609,0.133146971,0.2908611,-0.000119072385
105578.872303,-0.890936375,-0.170540143,0.50475511,0.0386007503,0.347707361,0.0970679298
105578.882330,-0.762838695,0.187518458,0.274790755,-0.0334018059,0.376786143,0.133632869
105578.892356,-0.650503086,0.327997261,-0.0802887577,-0.0852881745,0.384952724,0.106694996
105578.902383,-0.808330937,0.565935993,-0.450040939,-0.153254971,0.368580669,0.0420294441
105578.912410,-1.1263522,0.529501136,-0.597983429,-0.274509758,0.332643449,-0.0108545413
105578.922436,-1.25716308,0.227212426,-0.695211046,-0.37115109,0.275759399,-0.0253381431
105578.932463,-1.13849886,0.0104276148,-0.777778855,-0.429181367,0.192563578,-0.0219186433
105578.942489,-1.00970245,0.0164383995,-0.667471391,-0.492698282,0.0943664461,-0.030107066
105578.952516,-0.942785731,0.24539197,-0.784466954,-0.478927076,0.00484108645,-0.0599589683
105578.962542,-0.911334508,0.612590485,-1.05571083,-0.392768472,-0.0595323108,-0.0906550959
105578.972569,-1.17254901,0.897613222,-1.33938807,-0.187655285,-0.114063196,-0.119184472
105578.982595,-1.77376718,0.535098701,-2.01430043,0.0925681069,-0.200268388,-0.0766561851
105578.992622,-1.7809134,-0.225210896,-1.88794082,0.372499913,-0.31233874,0.0690874308
105579.002648,-2.12878971,-0.922687165,-1.28698568,0.560903072,-0.433481425,0.258318871
105579.012675,-1.96254101,-1.10382407,-1.05650344,0.623245537,-0.539376974,0.404142112
105579.022702,-1.79129393,-1.03493795,-0.82399174,0.578055978,-0.616838455,0.516390681
105579.032728,-1.64572211,-0.831047358,-0.501675849,0.372286052,-0.643220782,0.577622592
105579.042755,-1.38799823,-0.614991116,-0.228420049,0.0581827052,-0.65378207,0.593741119
105579.052781,-1.29847855,-0.348662083,-0.0894663359,-0.3042759,-0.657338202,0.544056654
105579.062808,-1.43816832,-0.107782037,0.173938517,-0.693173885,-0.618140459,0.440190405
105579.072834,-1.57776983,0.145003149,0.421886273,-1.03501773,-0.551231503,0.336314321
105579.082861,-1.56699505,0.347473933,0.372936072,-1.21358955,-0.472258091,0.253535032
105579.092887,-1.56009886,0.582379544,0.287536254,-1.29685628,-0.460831016,0.175419986
105579.102914,-1.35849098,0.664843454,0.391188937,-1.26820886,-0.520689845,0.1138312
105579.112941,-1.0225436,0.686384766,0.484385107,-1.16130483,-0.618345559,0.0582233295
105579.122967,-0.907716317,0.843676465,0.898889452,-1.02009368,-0.715868354,-0.0246790126
105579.132994,-0.798839471,0.941103916,1.37106097,-0.845939457,-0.771400094,-0.100505061
105579.143020,-0.673970836,0.804783328,1.83285548,-0.628356814,-0.751950443,-0.131709054
105579.153047,-0.751220007,0.737465038,2.04767253,-0.33574301,-0.661719382,-0.124221317
105579.163073,-0.896228636,0.816327197,1.85997262,0.0799388662,-0.533492982,-0.107122488
105579.173100,-1.16190158,1.20172995,1.58018829,0.548001647,-0.381196648,-0.131901339
105579.183126,-1.42304864,1.59347418,1.27879186,0.97002852,-0.211951405,-0.202606142
105579.193153,-1.47220635,1.59313122,1.2192396,1.206146,-0.0301792175,-0.277637243
105579.203179,-1.16251949,1.22043231,1.26359078,1.19776857,0.156214893,-0.303568959
105579.213206,-0.732100734,0.821818488,1.36526076,0.96235621,0.347390711,-0.295188278
105579.223233,-0.496075398,0.520178414,1.28464877,0.628028035,0.510925293,-0.268815517
105579.233259,-0.442933883,0.339559104,0.879060132,0.311697543,0.621596158,-0.237889022
105579.243286,-0.543141539,0.313885478,0.408199108,0.0830310658,0.663919926,-0.217735559
105579.253312,-0.642538025,0.222091083,-0.216599262,0.00172795367,0.63097316,-0.191730589
105579.263339,-0.803815213,0.102640902,-0.719575088,0.00137401954,0.530739725,-0.154133946
105579.273365,-0.890960559,-0.0605044727,-0.87811496,0.00160811143,0.389594078,-0.101926923
105579.283392,-0.760670776,-0.272558265,-0.930522024,0.00293889293,0.242068291,-0.0407727584
105579.293418,-0.759842655,-0.216126421,-0.811702167,-0.0472622253,0.0927118212,-0.000643981621
105579.303445,-0.778491533,-0.13958685,-0.715173638,-0.0725476071,-0.0463179722,0.0195350572
105579.313471,-0.644871729,0.153183158,-0.759608407,-0.0743079558,-0.189313203,0.00678464025
105579.323498,-0.509710796,0.536210571,-0.705986123,-0.0438901335,-0.33659029,-0.0476831309
105579.333525,-0.312871771,0.670030209,-0.497999206,-0.0191714708,-0.470495611,-0.124242343
105579.343551,-0.0547473066,0.573470225,-0.16680092,-0.00339676742,-0.572678745,-0.196028933
105579.353578,0.128586121,0.347870713,0.255514392,0.00178760837,-0.625351787,-0.245791703
105579.363604,0.0769096367,0.100624978,0.532127101,0.0266527869,-0.630324423,-0.276737273
105579.373631,-0.0723158061,-0.043883127,0.666387103,0.0757428333,-0.609046578,-0.274817675
105579.383657,-0.194414903,-0.0696206487,0.628315439,0.183085799,-0.576483846,-0.251208991
105579.393684,-0.319622414,0.025407623,0.722241677,0.274420798,-0.525435567,-0.207823992
105579.403710,-0.246047329,0.0523854728,0.893442293,0.323857307,-0.457488179,-0.154662222
105579.413737,-0.0795239839,0.0253292149,1.12008539,0.312216371,-0.370627314,-0.0921991244
105579.423763,0.0507867689,0.00792461899,1.21483581,0.274911344,-0.275018245,-0.0387854315
105579.433790,0.0776199038,-0.0240354853,1.3117963,0.215606198,-0.186495572,0.00854400173
105579.443817,0.0793809222,-0.136438734,1.23823714,0.149852216,-0.092779465,0.0527804382
105579.453843,0.0154827427,-0.0984661829,1.14317459,0.0822816938,-0.00134942203,0.0817966461
105579.463870,-0.138285166,0.0833191749,0.924929318,-0.000265113369,0.0658029839,0.0827870741
105579.473896,-0.259545766,0.205578394,0.772528679,-0.0694923848,0.102584705,0.0586899929
105579.483923,-0.183667518,0.259793238,0.565758153,-0.0981104523,0.0903863609,0.0320373438
105579.493949,0.0713187579,0.234986385,0.454176431,-0.0795269087,0.0493105575,0.000134804286
105579.503976,0.304936594,0.176220034,0.258306068,0.0233656466,-0.00571008166,-0.0365811326
105579.514002,0.345447103,0.203086705,0.0497054034,0.203278691,-0.0570651479,-0.0898576677
105579.524029,0.441842435,0.114895194,-0.0562070404,0.400011212,-0.0953976214,-0.135330349
105579.534055,0.631599356,-0.0157597696,-0.116758247,0.595512509,-0.108868159,-0.17302072
105579.544082,0.651259165,-0.0403526148,-0.320124519,0.807064176,-0.0985036641,-0.214113295
105579.554109,0.44051652,-0.0932248117,-0.536252072,0.946960032,-0.0771483108,-0.249129862
105579.564135,0.286750511,-0.28053233,-0.681790424,0.990483761,-0.0489851199,-0.253122211
105579.574162,0.160167766,-0.460421974,-0.75511811,0.8848961,-0.0329070836,-0.223557144
105579.584188,0.0546101266,-0.723631889,-0.714767395,0.646305382,-0.0327784531,-0.15255034
105579.594215,0.114348045,-0.975599694,-0.655946373,0.311731666,-0.0571445115,-0.0427546054
105579.604241,0.254641262,-1.03271114,-0.614392712,-0.0253044199,-0.101102114,0.0814352557
105579.614268,0.332152445,-0.909646628,-0.522363247,-0.310586751,-0.175380602,0.183435649
105579.624294,0.477600123,-0.736548654,-0.432527494,-0.466493785,-0.272185445,0.262420237
105579.634321,0.641977688,-0.61347925,-0.313795316,-0.530599058,-0.380650938,0.335068315
105579.644347,0.783937378,-0.53913698,-0.139298581,-0.50868839,-0.470904917,0.392058372
105579.654374,0.837495146,-0.295252601,-0.0332896907,-0.407648593,-0.526453435,0.429470718
105579.664401,0.79450451,-0.00264335412,0.0896253259,-0.248217389,-0.526701331,0.426226467
105579.674427,0.715150695,0.362993062,0.267958278,-0.0672156513,-0.47275582,0.383456886
105579.684454,0.739057495,0.587467259,0.363519424,0.103804566,-0.362993896,0.321208984
105579.694480,0.752540515,0.644845645,0.445500957,0.232864007,-0.212424636,0.245348275
105579.704507,0.693484076,0.629217794,0.502391303,0.260416299,-0.0400163904,0.155757159
105579.714533,0.65753598,0.451775361,0.552419363,0.209206358,0.121098466,0.0707916617
105579.724560,0.504600942,0.228504147,0.433333549,0.113888621,0.237545177,0.0089248335
105579.734586,0.356540671,-0.056085606,0.205185888,0.0428357497,0.289975911,-0.0100690983
105579.744613,0.243819716,-0.32619171,-0.115240244,0.0261555742,0.282166183,0.0121507207
105579.754639,-0.0165421156,-0.385092739,-0.366181921,0.0531120896,0.22917141,0.0512656309
105579.764666,-0.205072345,-0.300445128,-0.57124389,0.118718795,0.148261905,0.0855706111
105579.774691,-0.241977157,-0.139554966,-0.574278728,0.14939788,0.0616820082,0.103182361
105579.784718,-0.205687262,0.035107846,-0.341721434,0.118454076,-0.00349459797,0.0968461633
105579.794745,-0.102180125,0.153933913,-0.0878980637,0.0358470827,-0.0404238552,0.070880346
105579.804771,-0.0894122676,0.222707516,0.169445297,-0.0714791045,-0.0507329516,0.0396553129
105579.814798,-0.144377784,0.300495835,0.322863588,-0.153923109,-0.0370040908,0.00754052214
105579.824824,-0.262388661,0.406948377,0.438980615,-0.229268998,0.00410233485,-0.0232818387
105579.834851,-0.410798185,0.516721369,0.568314267,-0.281570554,0.0744505376,-0.0605442524
105579.844877,-0.61961673,0.647886839,0.631452568,-0.314651251,0.150494173,-0.101150535
105579.854904,-0.780571262,0.717787766,0.646705666,-0.32321465,0.212725058,-0.139377028
105579.864930,-0.935630526,0.730795132,0.574406738,-0.29251641,0.249025002,-0.175497741
105579.874957,-1.07005938,0.619134646,0.459323146,-0.247918859,0.245605245,-0.194856256
105579.884983,-1.16942036,0.423035991,0.418477926,-0.18870081,0.217654571,-0.198331952
105579.895010,-1.16077601,0.259318679,0.40357554,-0.132200778,0.168034822,-0.19372496
105579.905036,-1.1236124,0.176833106,0.348784796,-0.0463748164,0.113991551,-0.19112891
105579.915063,-1.0624869,0.120568928,0.314976635,0.031705603,0.0712941587,-0.1854119
105579.925090,-1.02544231,0.0745714761,0.437079166,0.0546101183,0.0517082028,-0.170697123
105579.935116,-0.924170024,-0.0699886418,0.525630725,0.0370694734,0.0712179914,-0.126805037
105579.945143,-0.840093857,-0.183223647,0.593950812,-0.0617223494,0.132305041,-0.0503012054
105579.955169,-0.819314396,-0.170936011,0.63668287,-0.214909509,0.225927949,0.0434023812
105579.965196,-0.827089195,-0.128594523,0.527963552,-0.367934465,0.336120754,0.136318475
105579.975222,-0.888024944,0.0166896343,0.345000017,-0.475877702,0.431026757,0.228287011
105579.985249,-0.909487565,0.238269352,0.0726502257,-0.534700036,0.486500412,0.2977404
105579.995275,-0.774039961,0.364596332,-0.00679740506,-0.576205134,0.500842571,0.347448289
105580.005302,-0.464306195,0.36113768,-0.137203654,-0.563761532,0.484728873,0.365071505
105580.015328,-0.213968256,0.519793178,-0.238894681,-0.48478359,0.443751097,0.346272528
105580.025355,-0.0661518036,0.644776598,-0.323367446,-0.344445914,0.387988746,0.289464086
105580.035381,0.0634314387,0.71493413,-0.390403339,-0.140061364,0.331336379,0.205438167
105580.045408,0.0891653071,0.91169545,-0.595315086,0.11032398,0.284969956,0.0954362899
105580.055435,-0.0899702668,1.10119489,-0.603648615,0.329011321,0.254822701,-0.0301908776
105580.065461,-0.0908599822,1.09307815,-0.826472451,0.553372264,0.236450359,-0.136153251
105580.075488,-0.208124426,1.09245782,-1.0491975,0.713467121,0.223687157,-0.22378698
105580.085514,-0.306667583,0.968909403,-1.08158294,0.78743881,0.215289146,-0.278040081
105580.095541,-0.217421027,0.737244089,-1.13977443,0.779628277,0.205867141,-0.282943755
105580.105567,-0.0982510789,0.397262484,-0.996049265,0.634742439,0.19342193,-0.263745576
105580.115594,0.0693576869,0.120151543,-0.797145234,0.384778738,0.169652417,-0.235827655
105580.125620,0.18921116,0.0454030666,-0.711658323,0.0825408176,0.124353118,-0.217549592
105580.135647,0.151633709,-0.00292301131,-0.715906044,-0.207994074,0.042812977,-0.20778057
105580.145673,0.144569214,0.0198319875,-0.824700181,-0.441189229,-0.074869439,-0.205855906
105580.155700,0.0159466339,0.11063381,-0.777485425,-0.612405241,-0.224112451,-0.224199504
105580.165726,-0.00971234265,0.127084375,-0.659916446,-0.693710983,-0.393374979,-0.237051368
105580.175753,0.103580494,0.106151513,-0.608184505,-0.656058967,-0.5479936,-0.24013266
105580.185780,0.125298989,0.222032996,-0.431838927,-0.536750376,-0.664767087,-0.260966837
105580.195806,0.154757723,0.361403893,-0.183921566,-0.367796779,-0.735911846,-0.295782328
105580.205833,0.285405526,0.343823703,0.11062369,-0.200118035,-0.758682668,-0.334090829
105580.215859,0.309151289,0.247923078,0.39726095,-0.0437255055,-0.728011549,-0.376157075
105580.225886,0.276577711,0.14635365,0.584795446,0.090399012,-0.660511851,-0.405012935
105580.235912,0.307764511,0.00222591415,0.742832629,0.201712489,-0.566570222,-0.411038339
105580.245939,0.277061914,-0.171765337,0.800547152,0.295664549,-0.444912225,-0.386687994
105580.255965,0.217214472,-0.348724517,0.852871213,0.339063972,-0.296463341,-0.32469973
105580.265992,0.141017952,-0.475771373,0.856127585,0.318239629,-0.137556523,-0.23153758
105580.276018,0.179261977,-0.615417817,0.949319663,0.201764151,-0.0045606615,-0.102734052
105580.286045,0.373499331,-0.763796068,0.886375423,0.0748722479,0.0918620154,0.0313593
105580.296071,0.405527843,-0.70417469,0.749009272,-0.0243203826,0.151510432,0.15545702
105580.306098,0.389329719,-0.565218237,0.668336483,-0.0677362978,0.180114642,0.256119967
105580.316124,0.407727034,-0.381787085,0.591307604,-0.0531586893,0.186820224,0.326225579
105580.326151,0.388398941,-0.175057328,0.486247978,0.0151380775,0.177982792,0.364928216
105580.336177,0.415614572,0.0213293134,0.434797777,0.115582123,0.171408236,0.384961307
105580.346204,0.397165015,0.230532109,0.410962143,0.208026573,0.182671815,0.378238171
105580.356231,0.317145503,0.345831828,0.463791816,0.26546672,0.213202819,0.34982276
105580.366257,0.314060835,0.31599995,0.379037311,0.298371494,0.246459797,0.324675471
105580.376284,0.284050531,0.312195297,0.161750066,0.319944948,0.268063068,0.301443368
105580.386310,0.0997084015,0.335185419,-0.102485392,0.348745465,0.277404368,0.274975538
105580.396337,-0.114036494,0.385993231,-0.225858674,0.343328834,0.265472353,0.241861001
105580.406363,-0.202239678,0.35964324,-0.337896322,0.330550998,0.23008135,0.201933295
105580.416390,-0.239416074,0.345432307,-0.342441565,0.259655803,0.165624067,0.154962063
105580.426416,-0.130156366,0.207452993,-0.350243178,0.194671735,0.0738019943,0.120981723
105580.436443,-0.127273285,0.0845131705,-0.386888609,0.134082153,-0.029743569,0.0986926705
105580.446469,-0.127355849,-0.0145349405,-0.274048996,0.079451941,-0.126945212,0.0933932364
105580.456496,0.035245574,-0.171447577,-0.115043845,0.0436015278,-0.198575452,0.106284544
105580.466522,0.133600077,-0.250770485,0.0675035104,-0.0195854325,-0.230673477,0.115787491
105580.476549,0.267032103,-0.360096902,0.221475344,-0.102325581,-0.221101537,0.118047729
105580.486575,0.404688835,-0.544854517,0.21774551,-0.167730168,-0.184968039,0.118244797
105580.496602,0.540875932,-0.685603552,0.120446581,-0.186071888,-0.146239012,0.125753313
105580.506628,0.536060568,-0.756816,0.0593020838,-0.162905842,-0.090819709,0.132007211
105580.516655,0.4542465,-0.722342799,0.144437113,-0.119022541,-0.0282178447,0.146385357
105580.526682,0.249339137,-0.565130595,0.287602305,-0.0898436159,0.0352282412,0.171563402
105580.536708,-0.0130494512,-0.398629279,0.549128505,-0.101303726,0.0985092074,0.205531493
105580.546735,-0.0984666578,-0.281623341,0.679925214,-0.120335214,0.148211524,0.248021424
105580.556761,-0.158021036,-0.130658324,0.658672583,-0.112813115,0.186902985,0.271463364
105580.566788,-0.183689073,0.0313447306,0.690749391,-0.0907291174,0.215741828,0.256880969
105580.576814,-0.127147686,0.169875067,0.638590164,-0.0343646407,0.233122155,0.211299896
105580.586841,-0.144084719,0.299574629,0.529439469,0.0476956069,0.236736059,0.144727528
105580.596867,-0.175181356,0.351943881,0.438629902,0.154201537,0.22763072,0.0710000545
105580.606894,-0.21673721,0.453931224,0.41000645,0.246491522,0.203493953,-0.00531842094
105580.616920,-0.238846677,0.534275913,0.334159474,0.34570837,0.167558327,-0.0798799992
105580.626947,-0.197160914,0.456929712,0.323121947,0.426229596,0.143744871,-0.147335753
105580.636973,-0.0578844721,0.262463809,0.336707989,0.478130609,0.144532099,-0.197383463
105580.647000,0.107122769,-0.0316242417,0.330517903,0.468870252,0.157626331,-0.222963139
105580.657026,0.330989685,-0.369896412,0.280350142,0.40404731,0.179356664,-0.213540062
105580.667053,0.487874629,-0.566032147,0.101845925,0.311365575,0.19706136,-0.18601124
105580.677079,0.411325935,-0.57740329,-0.024046646,0.159187764,0.205224738,-0.159961537
105580.687106,0.356111851,-0.607298662,-0.0757739106,-0.00204318925,0.196987048,-0.134411156
105580.697133,0.264051992,-0.605333719,-0.253704712,-0.123424478,0.153699234,-0.108953729
105580.707159,0.157797602,-0.623772973,-0.377702848,-0.177794248,0.0800423175,-0.0873235464
105580.717186,0.0706004535,-0.584636456,-0.519542929,-0.165103495,-0.0131877614,-0.0700055361
105580.727212,-0.0376364146,-0.564010432,-0.501878678,-0.125066057,-0.105611168,-0.052529607
105580.737239,-0.0387096699,-0.60249718,-0.369939812,-0.0788865685,-0.186962485,-0.0227719806
105580.747265,-0.00881225201,-0.620578999,-0.214568633,-0.0664666519,-0.253584921,0.0118584353
105580.757292,0.0489223633,-0.648940074,0.0270142637,-0.0804900602,-0.293822378,0.0599127822
105580.767318,0.115909595,-0.645589668,0.128160516,-0.0773715004,-0.298217922,0.107485086
105580.777345,0.0521406677,-0.466090302,0.259393864,-0.0754007623,-0.262604266,0.144536316
105580.787371,0.0316796982,-0.239278931,0.378978274,-0.0549908243,-0.186252743,0.168536723
105580.797398,0.0887229702,-0.062140376,0.423449869,-0.0272734445,-0.0778514445,0.176981077
105580.807424,0.0178707339,0.194332486,0.453805259,-0.000998963835,0.0518623441,0.189231351
105580.817451,-0.0270577375,0.453797368,0.455083024,0.0157608408,0.189104363,0.197892755
105580.827477,-0.0512945723,0.70744224,0.433373297,0.0142588187,0.324028611,0.188495785
105580.837504,-0.150279993,0.945476212,0.367778835,-0.0127256606,0.431146532,0.139787108
105580.847530,-0.239315464,1.11600974,0.206031107,-0.0455105044,0.479194492,0.0617231987
105580.857557,-0.229508063,1.15149643,-0.057851885,-0.06021275,0.464523137,-0.0357317217
105580.867583,-0.275086011,1.06057961,-0.290809577,-0.0494530462,0.395823956,-0.140827522
105580.877610,-0.225599146,0.851384262,-0.419244234,-0.0402728654,0.286220521,-0.233041868
105580.887636,-0.129354585,0.59512592,-0.558539307,-0.00336571503,0.159320101,-0.304351479
105580.897663,-0.219920297,0.467332265,-0.624582682,0.0168436822,0.0372589007,-0.360999018
105580.907690,-0.314547157,0.312403934,-0.57287646,0.0239572506,-0.060746491,-0.38459757
105580.917716,-0.263269572,0.0828322317,-0.519084664,0.0096182609,-0.123873271,-0.376609683
105580.927743,-0.236297102,-0.0845401316,-0.433262238,-0.0203694664,-0.151328057,-0.341197371
105580.937769,-0.265685438,-0.186048861,-0.388301983,-0.0484594218,-0.137863636,-0.276834339
105580.947796,-0.336010582,-0.176335349,-0.384324896,-0.0669481531,-0.0906990692,-0.209055573
105580.957822,-0.412844961,0.00952200771,-0.319347689,-0.108325683,-0.0141643425,-0.147773311
105580.967849,-0.690764442,0.258208088,0.0298328282,-0.262550145,0.0697782263,-0.0817639232
105580.977875,-0.674049089,0.178044016,0.216323953,-0.422840208,0.148348406,0.0417252555
105580.987902,-0.281526968,-0.0515680555,0.137074475,-0.548735321,0.212548167,0.181111366
105580.997928,-0.0838324582,-0.0997360202,0.186623226,-0.636150122,0.258076221,0.28772223
105581.007955,-0.0141533938,-0.0731736285,0.198676652,-0.677070916,0.282582909,0.347728848
105581.017981,0.00731726421,0.0655362655,0.186084297,-0.693552136,0.266965866,0.371922612
105581.028008,-0.0527255184,0.28778285,0.233508896,-0.691719353,0.1992044,0.357856065
105581.038034,-0.0465962219,0.465152291,0.142525141,-0.630493045,0.0903130621,0.333877206
105581.048061,0.00943129722,0.56622672,-0.0320657018,-0.498954415,-0.0267762747,0.274825871
105581.058087,-0.0542249632,0.756351305,-0.0903396116,-0.285110056,-0.115865409,0.17636162
105581.068114,-0.149319514,0.817007873,-0.151233933,-0.0271035358,-0.166085422,0.0584978424
105581.078140,-0.166445275,0.812347333,-0.216595755,0.263218045,-0.176704243,-0.0652976036
105581.088167,-0.188406931,0.854929095,-0.293777779,0.507284999,-0.146267518,-0.197223946
105581.098193,-0.125408112,0.775792211,-0.248259891,0.662334025,-0.0970997065,-0.29797852
105581.108220,0.111445345,0.52851366,-0.331499899,0.739965141,-0.0417837203,-0.36143446
105581.118246,0.176500074,0.324220775,-0.22075229,0.688655376,0.00895429216,-0.395598561
105581.128273,0.275441766,0.00682447573,-0.133825118,0.540616632,0.0460904762,-0.386011183
105581.138300,0.28559071,-0.300124993,0.020360651,0.281127244,0.056324739,-0.333934933
105581.148326,0.315906317,-0.51918933,0.0868991158,-0.00841906294,0.033351779,-0.239956498
105581.158353,0.346490767,-0.587792472,0.137171505,-0.314993918,-0.0334866419,-0.131403655
105581.168379,0.316749161,-0.494795405,0.158331782,-0.564959824,-0.133131474,-0.0375586487
105581.178406,0.296555866,-0.345478411,0.169187523,-0.715089917,-0.247605056,0.020969376
105581.188432,0.195815892,-0.175716358,0.291547828,-0.758011043,-0.35558641,0.0431798734
105581.198459,0.0834320242,-0.0463100254,0.5103484,-0.719046593,-0.445494443,0.0371062681
105581.208485,0.0490380255,0.0591369016,0.738006232,-0.596643984,-0.507065654,0.0217105336
105581.218512,0.0207171363,0.162332287,0.788282713,-0.38942048,-0.538531423,0.00802108739
105581.228538,-0.175602724,0.341370757,0.828389098,-0.142213091,-0.543219388,-0.00556582771
105581.238565,-0.320580373,0.448013342,0.846457839,0.114671446,-0.515006363,-0.0224300288
105581.248591,-0.400603758,0.44129682,0.913553938,0.321359366,-0.468500167,-0.0286327973
105581.258618,-0.349419879,0.323736901,0.963041314,0.461293042,-0.40842858,-0.0122016259
105581.268644,-0.298512845,0.138716926,1.07553197,0.499369055,-0.341173649,0.0276557747
105581.278671,-0.220581026,0.00145622669,1.10047469,0.487406939,-0.272849172,0.099485755
105581.288697,-0.0993195483,-0.080167305,1.1081968,0.433289349,-0.212982625,0.185826227
105581.298724,-0.0352134983,-0.0340415685,1.02780576,0.380517215,-0.162751675,0.25623408
105581.308750,-0.0942445101,0.0997903442,0.899564575,0.341702193,-0.116285384,0.287323296
105581.318777,-0.120322443,0.21812786,0.752737937,0.316829592,-0.0769957751,0.292102337
105581.328803,-0.0270404941,0.234188841,0.727430477,0.259637684,-0.0421214066,0.277184367
105581.338830,0.0791740745,0.203990358,0.569492078,0.195095167,-0.0061745937,0.243606448
105581.348856,0.014394363,0.207345842,0.430056135,0.136811092,0.01832995,0.197961465
105581.358883,-0.0806491155,0.137800195,0.191458391,0.102104783,0.0249060933,0.148722008
105581.368909,-0.210414509,0.0698378717,-0.0397013113,0.117344812,0.0069751814,0.105051264
105581.378936,-0.403706034,0.0223481715,-0.214305014,0.165237233,-0.0336518735,0.0723969117
105581.388963,-0.563928818,-0.0877954801,-0.349219096,0.230352312,-0.097523801,0.0555428341
105581.398989,-0.644000499,-0.196256841,-0.351517436,0.263749689,-0.163939834,0.0694083124
105581.409016,-0.572723461,-0.316891601,-0.160379947,0.244216457,-0.215907961,0.109319247
105581.419042,-0.537711696,-0.363627743,-0.01839958,0.19101955,-0.248586282,0.151440591
105581.429069,-0.44907224,-0.379494517,0.080657591,0.0956110209,-0.263903171,0.207224756
105581.439095,-0.231916805,-0.421303029,0.118597738,-0.0202522036,-0.263720483,0.264019877
105581.449122,0.0415004696,-0.500570883,0.101363694,-0.116450638,-0.23770754,0.30079785
105581.459148,0.123582833,-0.410353912,0.166665311,-0.22500056,-0.180312946,0.292455763
105581.469175,0.167384419,-0.194218321,0.251160873,-0.320823997,-0.111411653,0.260658681
105581.479201,0.125022218,0.0809125522,0.201033444,-0.363651633,-0.0470608883,0.196983576
105581.489228,0.0227691734,0.35677068,-0.00301437939,-0.310649395,-0.00877954718,0.136281341
105581.499254,0.0445041815,0.443642433,-0.225384042,-0.175940603,-0.00543222018,0.0819944143
105581.509281,0.188869544,0.366563797,-0.296581146,-0.0215491634,-0.0238346625,0.0473099351
105581.519307,0.336779447,0.203820006,-0.327319399,0.140931085,-0.04482783,0.0321022198
105581.529334,0.278404415,0.169854134,-0.315425547,0.267148972,-0.0530122556,0.0101979887
105581.539360,0.281085032,0.112201132,-0.247483061,0.343876213,-0.054441575,-0.00243418384
105581.549387,0.482405331,-0.0450724464,-0.213172795,0.360271722,-0.0437362008,0.00525169913
105581.559413,0.64337433,-0.156636998,-0.135618431,0.306894779,-0.0271902457,0.0205582175
105581.569440,0.740817782,-0.28867841,-0.170402744,0.188753471,0.00686146412,0.044322934
105581.579466,0.559446631,-0.187525144,-0.225590963,0.0231514629,0.0622882359,0.046984233
105581.589493,0.43823082,-0.144455963,-0.302197232,-0.131482065,0.122334264,0.038600333
105581.599519,0.445058182,-0.216539459,-0.50971887,-0.213275731,0.159019038,0.0192205124
105581.609546,0.317610636,-0.200907845,-0.736594027,-0.194814429,0.164390638,-0.0187508389
105581.619572,0.167446524,-0.198602016,-1.06315238,-0.0553787686,0.131163448,-0.0517932102
105581.629599,-0.0529658665,-0.176353286,-1.35097388,0.17514126,0.0672004372,-0.079428032
105581.639626,-0.228384539,-0.179257081,-1.49750767,0.421907634,-0.00714090466,-0.0872958079
105581.649652,-0.246129893,-0.322392573,-1.48289287,0.593473017,-0.0689102635,-0.0549972579
105581.659679,-0.208508895,-0.51961077,-1.31385265,0.640519619,-0.0956369489,0.0080482848
105581.669705,-0.221501647,-0.527082677,-1.15863052,0.572651625,-0.0750323385,0.0748334378
105581.679732,-0.2414657,-0.415756099,-0.987156349,0.417388529,-0.0112437708,0.122808956
105581.689758,-0.255652485,-0.254938053,-0.787166276,0.205330849,0.0837565139,0.140815109
105581.699785,-0.272635476,-0.0508514316,-0.59505965,-0.0317868888,0.183379248,0.116145723
105581.709811,-0.281073415,0.044782487,-0.484725883,-0.23748599,0.233696207,0.077438809
105581.719838,-0.274850887,0.0124685826,-0.475181225,-0.386565477,0.216192842,0.047869999
105581.729864,-0.3167774,-0.0273552591,-0.326421573,-0.503847361,0.142679214,0.0285442378
105581.739891,-0.401670072,0.00857376708,-0.128172791,-0.587297499,0.0174153056,0.0269553959
105581.749917,-0.331872459,0.019278153,0.0880184752,-0.638057351,-0.12075562,0.0315765142
105581.759944,-0.241130185,0.0673094857,0.495890836,-0.665322781,-0.250554353,0.0275988169
105581.769970,-0.201814512,0.230031247,0.900097659,-0.665396333,-0.333616734,0.0193408877
105581.779997,-0.114639356,0.332619222,1.31618606,-0.610034764,-0.356708199,0.00867918786
105581.790023,-0.124354109,0.443615143,1.66547413,-0.512364924,-0.318395704,-0.0220499635
105581.800050,-0.120077455,0.563323327,2.00997496,-0.390182853,-0.232073352,-0.0673125163
105581.810076,-0.0781421011,0.6109075,2.20561795,-0.2386197,-0.120258406,-0.117926426
105581.820103,-0.0601424801,0.571571515,2.17518482,-0.0559393615,-0.00420397054,-0.15562588
105581.830129,-0.0403241193,0.463281236,2.15173555,0.11062219,0.10895481,-0.170325458
105581.840156,-0.100883071,0.433792545,1.96850255,0.27840507,0.214349136,-0.168679625
105581.850182,-0.199592744,0.330351825,1.64569566,0.423941493,0.303540289,-0.13173759
105581.860209,-0.290604848,0.209383742,1.2772382,0.533576369,0.385302514,-0.0788615793
105581.870236,-0.458349917,0.210289641,1.00493926,0.542340338,0.460309654,-0.0289707184
105581.880262,-0.398371834,0.102610407,0.866359056,0.46099326,0.527030885,0.0286371838
105581.890289,-0.232727244,-0.0191870406,0.701865828,0.327998459,0.584538877,0.095154956
105581.900315,-0.0282093917,-0.0340794528,0.546540826,0.165151745,0.612940729,0.167179614
105581.910342,0.190515411,0.008022636,0.207617499,0.0487111509,0.612918079,0.223967791
105581.920368,0.288197129,0.0967125442,-0.128409522,-0.0578120984,0.58715868,0.239465535
105581.930395,0.299579451,0.265430952,-0.266723183,-0.17023851,0.546782196,0.195413113
105581.940421,0.272537861,0.408013778,-0.437480732,-0.26261422,0.481616288,0.110567465
105581.950448,0.287956526,0.466649069,-0.622751959,-0.318439156,0.38983044,0.0128028262
105581.960474,0.250289351,0.547073435,-0.800459473,-0.314733624,0.276600808,-0.0874737129
105581.970501,0.0183867936,0.693158279,-0.969390976,-0.227387011,0.153677538,-0.199814111
105581.980527,-0.33658049,0.924113545,-1.14876262,-0.0807890519,0.0281752739,-0.326356858
105581.990554,-0.652679188,1.02801881,-1.13403092,0.070497945,-0.0922270343,-0.458531946
105582.000580,-0.706952484,0.868956159,-0.90076343,0.127150029,-0.209754735,-0.554440618
105582.010607,-0.367125997,0.382993136,-0.59622168,0.099129051,-0.329951167,-0.58667016
105582.020633,0.0246786603,-0.12235362,-0.380594477,0.0132911094,-0.440793246,-0.555328488
105582.030660,0.286352671,-0.469408341,-0.152100779,-0.0880339146,-0.524767578,-0.494608194
105582.040686,0.428229796,-0.616043109,0.0430780942,-0.174855366,-0.56360656,-0.445061147
105582.050713,0.497939877,-0.520578337,0.342445656,-0.266381264,-0.558618486,-0.425349236
105582.060739,0.546771128,-0.343537032,0.542882304,-0.296494156,-0.518437207,-0.431032151
105582.070766,0.553002131,-0.13297789,0.542767738,-0.238626361,-0.465258658,-0.445379138
105582.080792,0.485336562,0.010717355,0.441803272,-0.0943466723,-0.406252861,-0.444232911
105582.090819,0.316958383,0.121191809,0.295185308,0.0985788479,-0.338054895,-0.426555097
105582.100845,0.123316802,0.20909992,0.1794301,0.297141731,-0.262095422,-0.387349129
105582.110872,-0.0297409852,0.176163682,0.053580199,0.448990405,-0.188930139,-0.332374007
105582.120899,-0.0376716321,0.0520742149,0.00361468337,0.531804323,-0.115219437,-0.255472034
105582.130925,0.0690956019,-0.124667815,-0.0810544814,0.551899493,-0.0507669449,-0.158948958
105582.140952,0.107187432,-0.24820458,-0.166639592,0.528464437,0.000869617856,-0.0500499047
105582.150978,0.106796679,-0.327047852,-0.297680632,0.483516932,0.0449417382,0.0618744977
105582.161005,0.0111374801,-0.247420956,-0.433683678,0.435724646,0.0877214223,0.158895046
105582.171031,-0.123796841,-0.0796297824,-0.603105594,0.409329534,0.125617415,0.24247542
105582.181058,-0.172712336,0.0384125866,-0.717431646,0.374052495,0.160229713,0.318301201
105582.191084,-0.182741051,0.129228584,-0.83076518,0.32421571,0.192919225,0.382127613
105582.201111,-0.132367978,0.237880316,-0.830684516,0.244740844,0.224084854,0.425882816
105582.211137,0.00606857932,0.219493303,-0.835581056,0.16203025,0.245462313,0.465872824
105582.221164,0.051013125,0.262614214,-0.910316271,0.0923656896,0.239507496,0.489468962
105582.231190,0.0499989065,0.32606728,-1.03342184,0.0669575334,0.2018179,0.501590073
105582.241217,-0.172823687,0.485474948,-1.19355044,0.101117104,0.129213214,0.488119543
105582.251243,-0.569217061,0.70419281,-1.31334353,0.16965194,0.0232705306,0.443416536
105582.261270,-0.79701737,0.747498867,-1.36979022,0.241946921,-0.10966941,0.397228241
105582.271296,-0.769716618,0.59112706,-1.33451199,0.291972816,-0.253628969,0.39006862
105582.281323,-0.813448207,0.350298342,-1.26255793,0.294470847,-0.386374503,0.344814569
105582.291349,-0.943316477,0.220064454,-0.957938438,0.168314248,-0.497366518,0.293169767
105582.301376,-0.766149354,0.0463491518,-0.684250676,-0.0511866845,-0.563250482,0.274133235
105582.311403,-0.561590658,-0.0393676954,-0.329585006,-0.363651901,-0.586047709,0.271871656
105582.321429,-0.389131127,-0.118167237,-0.0162947167,-0.662468433,-0.600842893,0.268880397
105582.331456,-0.156670863,-0.217558317,0.0877846664,-0.85407275,-0.612384737,0.269390404
105582.341482,-0.0368174264,-0.229617003,0.267342777,-0.902448297,-0.609143436,0.254301459
105582.351509,0.112215197,-0.24575821,0.395793216,-0.795587599,-0.584795177,0.22238642
105582.361535,0.155189247,-0.17096783,0.527653171,-0.554878294,-0.537443161,0.189368278
105582.371562,-0.0193036893,-0.0737065298,0.576599865,-0.221376419,-0.462978691,0.139737338
105582.381588,-0.153294811,-0.0558095655,0.661596946,0.103547879,-0.373736709,0.119246446
105582.391615,0.0343288245,-0.21498737,0.806889799,0.314832419,-0.264514327,0.170799911
105582.401641,0.390025738,-0.448282879,0.986858243,0.377440393,-0.134155795,0.254264176
105582.411668,0.626168782,-0.580995615,1.05974695,0.297331721,0.0118783694,0.332789868
105582.421694,0.888583893,-0.680070176,1.06191027,0.131229579,0.161222592,0.398694605
105582.431721,1.17112862,-0.704563397,0.979329017,-0.053932827,0.29240644,0.439622045
105582.441747,1.19311278,-0.544310145,0.761212336,-0.188769728,0.370507628,0.445013076
105582.451774,1.20753674,-0.424390803,0.537402996,-0.267995596,0.387382478,0.437133312
105582.461800,1.19274074,-0.327613084,0.350927653,-0.28512612,0.36209178,0.402476281
105582.471827,1.07505821,-0.0740637823,0.171431502,-0.23063463,0.306107342,0.336722553
105582.481853,0.896294321,0.204386847,-0.00671557199,-0.111294121,0.24056454,0.249201506
105582.491880,0.837472568,0.337064146,-0.0386053327,0.0130376853,0.178113952,0.142157882
105582.501907,0.867343829,0.40229087,-0.0117886375,0.139815345,0.140376419,0.0229326896
105582.511933,0.818419785,0.426297842,-0.0125426707,0.256248206,0.125298664,-0.0939422622
105582.521960,0.744798376,0.430904861,-0.0133978262,0.362891018,0.140535414,-0.206253901
105582.531986,0.666545508,0.360438372,-0.0967681834,0.453815609,0.174258232,-0.322002053
105582.542013,0.54525517,0.305968093,-0.148716982,0.491405845,0.216616064,-0.435870588
105582.552039,0.456118943,0.159841493,-0.239116799,0.47306785,0.261488199,-0.535295665
105582.562066,0.303279767,-0.0843321879,-0.349591436,0.399454355,0.280009687,-0.598897278
105582.572092,0.122443892,-0.34204314,-0.422754872,0.261146545,0.275107861,-0.621504605
105582.582119,0.0878162306,-0.631989378,-0.442744936,0.0792348161,0.260809362,-0.602912545
105582.592145,-0.00607069822,-0.785983423,-0.375485756,-0.13466762,0.239520326,-0.572381258
105582.602172,-0.125687696,-0.808157407,-0.210180043,-0.346407831,0.205447569,-0.534924686
105582.612198,-0.1038786,-0.854322069,0.0137158061,-0.556525111,0.157423586,-0.47993046
105582.622225,0.0186075237,-0.947635071,0.304741072,-0.746320367,0.0813546479,-0.389152884
105582.632252,0.121459995,-1.06289913,0.605716069,-0.891871989,-0.0049807718,-0.289144784
105582.642278,0.0651798898,-1.04526484,0.900274185,-0.963530719,-0.081349045,-0.210782871
105582.652305,-0.0576293283,-0.876920489,1.2503461,-0.976242781,-0.134741962,-0.168476164
105582.662331,0.00655234425,-0.788791101,1.60924137,-0.910320997,-0.159310162,-0.128394514
105582.672358,0.118353408,-0.676592124,1.91044433,-0.77962476,-0.147746176,-0.103441492
105582.682384,0.0681098058,-0.479324791,2.17199976,-0.593949974,-0.0945575237,-0.0978813469
105582.692411,0.0190140587,-0.359272324,2.19189513,-0.329968691,-0.0119830212,-0.108166203
105582.702437,-0.126166858,-0.258259124,2.22518248,-0.0543876961,0.0985983536,-0.131589249
105582.712464,-0.284452317,-0.283030961,2.08529119,0.234546646,0.212855414,-0.144217685
105582.722490,-0.401740433,-0.401917105,1.79823016,0.490938723,0.314517051,-0.120817818
105582.732517,-0.313241043,-0.572660845,1.53143741,0.656615317,0.403008312,-0.0625569075
105582.742543,-0.191122145,-0.667864628,1.31236095,0.693725109,0.47839734,0.0128204003
105582.752570,-0.180666291,-0.587716448,1.0167729,0.674438775,0.533957839,0.0711521506
105582.762596,-0.397693569,-0.419708308,0.612020722,0.632347763,0.576326311,0.0848360062
105582.772623,-0.549183304,-0.300684892,0.323624051,0.544355869,0.608822703,0.078502208
105582.782650,-0.407723526,-0.444322342,0.00310907193,0.415757686,0.624097049,0.0726049095
105582.792676,-0.181634551,-0.645730465,-0.300330854,0.260078073,0.619595468,0.0704008713
105582.802703,0.031176644,-0.772918848,-0.615909546,0.11298985,0.584416747,0.073014237
105582.812729,0.112845531,-0.730134257,-0.944697264,0.0236559752,0.508614659,0.0582507327
105582.822756,-0.0581956569,-0.439684197,-1.25127081,-0.014102323,0.399280161,0.0157453492
105582.832782,-0.210871094,-0.124862205,-1.34436527,-0.0289278738,0.262740701,-0.0394209661
105582.842809,-0.217552471,0.0432824577,-1.27868372,-0.0502054654,0.106379308,-0.0991607234
105582.852835,-0.167584545,0.108906255,-1.11748369,-0.071341373,-0.0523269847,-0.158697292
105582.862862,-0.31369149,0.284306369,-0.888977715,-0.102400757,-0.197202146,-0.232503876
105582.872888,-0.468141024,0.439305317,-0.606548428,-0.129380703,-0.322277248,-0.319455296
105582.882915,-0.409862219,0.431891242,-0.425565253,-0.122584857,-0.426632136,-0.395950317
105582.892941,-0.201959035,0.239439017,-0.328427068,-0.0543850325,-0.51734072,-0.435692161
105582.902968,0.00218012052,0.0876726209,-0.163886494,0.0429412536,-0.582167387,-0.448967725
105582.912995,0.136769574,0.0603533099,0.01738485,0.163600296,-0.608944952,-0.442029953
105582.923021,0.181424562,0.182377405,0.254394448,0.277395815,-0.585838318,-0.430698723
105582.933048,0.14288981,0.340049336,0.549890137,0.360966355,-0.519209743,-0.405238897
105582.943074,0.180393684,0.352466261,0.854112738,0.370815784,-0.419906586,-0.34428367
105582.953101,0.532601514,0.218894972,1.17868722,0.327570587,-0.294230163,-0.237350568
105582.963127,0.870847526,0.202957544,1.1550474,0.286968827,-0.157411858,-0.119514741
105582.973154,0.890606558,0.428710566,1.09273854,0.250620931,-0.00798375253,-0.0272090435
105582.983180,0.774294228,0.74163341,0.988423008,0.210412011,0.159698457,0.0359222591
105582.993207,0.59410045,1.0149416,0.874984261,0.177924111,0.329558343,0.0688668936
105583.003233,0.323505686,1.1854196,0.71719433,0.164897785,0.462385356,0.080988802
105583.013260,0.0848733821,1.23771341,0.391524452,0.221223906,0.542639434,0.0937006027
105583.023287,-0.129923361,1.18471737,0.00271861131,0.317580253,0.561333776,0.11692071
105583.033313,-0.326004517,1.16325467,-0.245379951,0.431689262,0.53093195,0.150902361
105583.043340,-0.438612951,1.10533294,-0.462421112,0.526779532,0.47345373,0.194025874
105583.053366,-0.423637208,0.96975126,-0.559414336,0.573118567,0.417966485,0.249792457
105583.063393,-0.241259437,0.814186678,-0.446697473,0.525931895,0.379698455,0.313322961
105583.073419,-0.0618833325,0.679434874,-0.345961555,0.421513319,0.35749808,0.377411932
105583.083446,-0.0811746006,0.602706877,-0.285388721,0.28730917,0.342909813,0.420810819
105583.093472,-0.107288408,0.533799272,-0.352756038,0.164966241,0.316551179,0.450460851
105583.103499,-0.0831471428,0.507457647,-0.457976408,0.0766211897,0.269057959,0.448853642
105583.113526,-0.124894427,0.559248478,-0.611105361,0.0632244274,0.205105081,0.418731689
105583.123552,-0.35348121,0.723023182,-0.767762488,0.0788108408,0.128059834,0.356098384
105583.133579,-0.485291773,0.774554778,-0.733538731,0.0859965831,0.047857672,0.292180926
105583.143605,-0.340207376,0.55783452,-0.707619277,0.0776984394,-0.0407579467,0.258814454
105583.153632,-0.329737858,0.408502256,-0.699855073,0.0738648176,-0.120743588,0.219832167
105583.163658,-0.487461226,0.390672,-0.564204493,0.0595013238,-0.185455471,0.171798334
105583.173685,-0.477532391,0.31255781,-0.491164976,0.0644169897,-0.229539305,0.13150391
105583.183711,-0.516366857,0.252027792,-0.35239305,0.0762171894,-0.26585418,0.106141031
105583.193738,-0.52096361,0.0843655056,-0.185761641,0.0879486799,-0.281384677,0.109282225
105583.203764,-0.475605223,-0.0354869084,0.0664589698,0.075989224,-0.283553809,0.144198388
105583.213791,-0.279812967,-0.129306471,0.238604758,0.0628028437,-0.271708339,0.203240409
105583.223818,0.00384228158,-0.240943211,0.199188693,0.0859859288,-0.243533954,0.267990381
105583.233844,0.0810005593,-0.172003457,0.17533494,0.136054963,-0.18988058,0.301847398
105583.243871,0.108966644,-0.00667114833,0.138662621,0.179935589,-0.116382927,0.293538868
105583.253897,0.074584847,0.120752578,0.13836393,0.187216416,-0.0388481915,0.259442955
105583.263924,0.0559742545,0.181780097,0.133374451,0.128429532,0.0164182596,0.236470267
105583.273950,0.0437212144,0.160034056,0.176979784,0.0217238516,0.0330837891,0.242971569
105583.283977,0.177929048,0.0250771581,0.12393793,-0.0714628175,0.00559543958,0.276307434
105583.294003,0.283972571,0.0493864737,-0.0220242003,-0.108906329,-0.034848921,0.293280542
105583.304030,0.298960589,0.161078889,-0.0480839397,-0.0896570012,-0.0710652471,0.288257033
105583.314057,0.406623529,0.163171112,-0.0582224719,-0.0454077832,-0.0997711942,0.268274009
105583.324083,0.595226166,0.0508656794,-0.0531681111,0.0359858759,-0.121013097,0.253001302
105583.334110,0.76011643,-0.0191946759,-0.144176416,0.161305979,-0.125062168,0.236596495
105583.344136,0.78560363,0.0427080188,-0.184543497,0.289440513,-0.101124078,0.212100744
105583.354163,0.786766464,0.119897715,-0.190555305,0.38371402,-0.0566279888,0.198771358
105583.364189,0.711190998,0.210146725,-0.217539174,0.432376355,0.0083925575,0.183800668
105583.374216,0.568630566,0.295316095,-0.281623231,0.440216541,0.083553642,0.167824909
105583.384242,0.645655061,0.265159734,-0.354200391,0.419034541,0.153860033,0.155606315
105583.394269,0.766007826,0.20142069,-0.472701683,0.392397612,0.220382333,0.129371524
105583.404296,0.768027642,0.222176916,-0.521732548,0.36457476,0.27479285,0.0924875438
105583.414322,0.772173217,0.11515505,-0.606112375,0.344618112,0.313551426,0.0536775626
105583.424349,0.708107061,0.054123366,-0.755266579,0.319241643,0.320174158,0.011767664
105583.434375,0.638962286,0.00938596024,-0.81355744,0.259509087,0.302965343,-0.0272548348
105583.444402,0.625767362,-0.107921299,-0.880209886,0.168257192,0.264133543,-0.0613076128
105583.454428,0.500584108,-0.0308725465,-0.988108536,0.0469653793,0.195314795,-0.104934454
105583.464455,0.35371838,0.131228671,-1.06527887,-0.0771429837,0.0996947959,-0.175019801
105583.474482,0.220034132,0.256231746,-1.11080143,-0.166853428,-0.0161702894,-0.262804776
105583.484508,0.0466778723,0.423434963,-1.01848848,-0.243264839,-0.139235765,-0.358651936
105583.494535,-0.0707752986,0.503027263,-0.753139504,-0.322778314,-0.2533831,-0.447014272
105583.504561,-0.115859326,0.467014577,-0.380529011,-0.432126105,-0.349606574,-0.514180005
105583.514588,-0.0640157414,0.365497154,0.116237438,-0.566543281,-0.422432303,-0.544218898
105583.524614,-0.0493248797,0.253537977,0.500186487,-0.69494015,-0.470202237,-0.545090556
105583.534641,-0.189260662,0.212635473,0.923114962,-0.815937161,-0.493070543,-0.540634274
105583.544668,-0.340337578,0.216450355,1.18846861,-0.891991675,-0.501426995,-0.539000988
105583.554694,-0.320594694,0.214178684,1.48334471,-0.922263861,-0.489582598,-0.536734879
105583.564721,-0.166967436,0.180687845,1.73307467,-0.89367485,-0.449542761,-0.53780812
105583.574747,-0.0905664061,0.206363334,1.94689804,-0.776926637,-0.381893665,-0.541425228
105583.584774,-0.097388215,0.211522398,1.97476804,-0.585144162,-0.282438725,-0.550154567
105583.594800,-0.192027862,0.243025935,2.12416774,-0.381772399,-0.149508908,-0.559473991
105583.604827,-0.18510683,0.225576642,2.09501472,-0.163371071,0.0114056785,-0.552535117
105583.614853,-0.166836795,0.214548394,1.98744106,0.00363681512,0.180843443,-0.526351452
105583.624880,-0.163352972,0.190891624,1.82876032,0.106532566,0.347818851,-0.469590157
105583.634907,-0.226517357,0.223780625,1.49006086,0.149704009,0.490650564,-0.388081998
105583.644933,-0.297253565,0.268297228,1.06270697,0.145753488,0.601338744,-0.278597832
105583.654960,-0.358931292,0.293364376,0.677213617,0.0732449219,0.6813398,-0.161285073
105583.664986,-0.387814126,0.401021325,0.315206352,-0.010100835,0.733714342,-0.0820043683
105583.675013,-0.367747563,0.519052808,-0.272692906,-0.0424742214,0.736659527,-0.0586708151
105583.685039,-0.322473785,0.648393181,-0.731672353,-0.0606473684,0.679806113,-0.0881685242
105583.695066,-0.207713982,0.687592826,-0.984658103,-0.0942561924,0.568474531,-0.160916224
105583.705093,-0.0905912118,0.637749403,-1.06484282,-0.14812021,0.406583637,-0.244125351
105583.715119,0.153979725,0.455550934,-1.06712888,-0.218074799,0.210237011,-0.292548269
105583.725146,0.431336969,0.216057191,-0.918185104,-0.308600962,0.00329528702,-0.30115056
105583.735172,0.583391717,0.172928171,-0.66563307,-0.384196132,-0.186113253,-0.30322969
105583.745199,0.506609104,0.279388165,-0.587140548,-0.371871829,-0.330205977,-0.341433793
105583.755226,0.344650729,0.510747044,-0.45504503,-0.306234211,-0.416281223,-0.424798191
105583.765252,0.185124001,0.71678458,-0.273687177,-0.218739793,-0.45964092,-0.539072573
105583.775279,0.120542223,0.732372829,-0.120457687,-0.128321752,-0.48082611,-0.655821562
105583.785305,0.0930463864,0.489438006,-0.061897361,-0.0221140888,-0.489081383,-0.742575943
105583.795332,0.129468822,0.107409916,0.0482832617,0.0551609918,-0.495975494,-0.772525847
105583.805358,0.323754911,-0.388991353,0.215092949,0.0963968411,-0.501132429,-0.742209494
105583.815385,0.53278045,-0.737369615,0.424890715,0.092362687,-0.502362311,-0.656262338
105583.825412,0.641043914,-0.895289528,0.567445083,0.0779515207,-0.479402661,-0.52877897
105583.835438,0.713359647,-0.903395678,0.70836162,0.0313246325,-0.433217049,-0.385994077
105583.845465,0.872563171,-0.885427986,0.839473971,0.0158522017,-0.354985625,-0.233811736
105583.855491,1.01260475,-0.800851103,0.77351243,0.0329797901,-0.247270614,-0.102332547
105583.865518,1.04909784,-0.640378655,0.773257578,0.0733293444,-0.111185484,0.00642403122
105583.875544,1.1047094,-0.50775115,0.772255708,0.103740774,0.0508215278,0.0933045968
105583.885571,1.05765911,-0.314482056,0.711451987,0.143481538,0.216694921,0.152648613
105583.895598,0.844947727,-0.0933919119,0.477435726,0.199088082,0.362586349,0.187308595
105583.905624,0.605507029,0.0634740357,0.173369777,0.253209382,0.464292198,0.201778084
105583.915651,0.392056805,0.144133965,-0.0851046336,0.294506222,0.519267023,0.202203915
105583.925677,0.213632302,0.173384463,-0.281935366,0.314490288,0.530999064,0.205696657
105583.935704,0.146683211,0.03408749,-0.437075074,0.309954673,0.496225625,0.234029755
105583.945731,0.197519299,-0.103571214,-0.544083496,0.277504325,0.441107512,0.291036069
105583.955757,0.175378852,-0.174963841,-0.502360908,0.200141624,0.387312204,0.350301772
105583.965784,0.237910711,-0.162952647,-0.365414444,0.0949052051,0.344232917,0.404814839
105583.975810,0.246365455,-0.0703773123,-0.171424488,-0.0334133506,0.315203905,0.439302236
105583.985837,0.191936457,0.108161976,-0.0358119026,-0.135859296,0.29481101,0.445875168
105583.995864,0.139036021,0.279051554,-0.00568155277,-0.167008951,0.277480513,0.422978908
105584.005890,-0.05396602,0.580093625,-0.0196206463,-0.130307138,0.263503969,0.359276116
105584.015917,-0.315196049,0.864499984,-0.0831616828,-0.0279248394,0.23991102,0.264065981
105584.025943,-0.604327501,1.06469208,-0.19210195,0.0937656388,0.200127929,0.146645844
105584.035970,-0.836593447,1.09838582,-0.285375862,0.207056522,0.140023306,0.0360431746
105584.045996,-0.954014543,1.00203002,-0.347772404,0.280120075,0.0523203537,-0.0419379063
105584.056023,-0.918775106,0.838940157,-0.301485285,0.303397983,-0.0372350924,-0.0849170685
105584.066050,-1.14262427,0.856566341,0.0150736505,0.225293577,-0.115154393,-0.114387609
105584.076076,-1.27093676,0.862786823,0.501536732,0.0665563941,-0.17433089,-0.111711666
105584.086103,-1.03080633,0.715792281,0.918726372,-0.130687967,-0.222530112,-0.0668912008
105584.096129,-0.562129039,0.39164669,1.26220955,-0.29166621,-0.262390703,0.0207182821
105584.106156,-0.125075373,0.138964015,1.46684248,-0.414509296,-0.277300149,0.130834937
105584.116183,0.175483116,0.0249823194,1.6541876,-0.486998677,-0.236770034,0.220407695
105584.126209,0.222127378,0.170559396,1.5219138,-0.44614473,-0.137575284,0.255704165
105584.136236,-0.0606366203,0.470375797,1.33321143,-0.334290624,-0.0108578159,0.231885374
105584.146262,-0.0970890128,0.635203518,1.10140583,-0.170196757,0.104077823,0.207985371
105584.156289,0.0627444793,0.556952622,0.744635879,-0.000704403734,0.183178768,0.206297994
105584.166316,0.136859005,0.491824536,0.387053444,0.154190108,0.221211642,0.211076766
105584.176342,0.132277158,0.36109585,0.0576870498,0.253761441,0.228957444,0.219695032
105584.186369,0.148980857,0.195647441,-0.203535198,0.2961981,0.220742121,0.232188985
105584.196395,0.269434123,-0.047786345,-0.329299759,0.273270965,0.198946014,0.259004623
105584.206422,0.505843088,-0.389478406,-0.324269948,0.16917944,0.173565552,0.301923871
105584.216449,0.828074187,-0.690961864,-0.2494529,0.0151941357,0.149086043,0.358287811
105584.226475,0.947424935,-0.856507231,-0.171720841,-0.16594103,0.131026879,0.404152781
105584.236502,0.844362693,-0.829842731,-0.312363237,-0.306320518,0.120839231,0.426814675
105584.246528,0.709331926,-0.709203404,-0.429034975,-0.369395614,0.116567515,0.418344229
105584.256555,0.598776954,-0.551223504,-0.690516167,-0.320489049,0.110098168,0.387873918
105584.266582,0.424373085,-0.323163156,-0.87340196,-0.189153135,0.107087463,0.333021343
105584.276608,0.284474638,-0.0640597997,-0.952456792,-0.0163257066,0.117145956,0.258849084
105584.286635,0.22176903,0.0992290936,-0.934754547,0.117910922,0.143416703,0.164670929
105584.296661,0.258942028,0.130699971,-0.918746246,0.231611669,0.172485113,0.0669310465
105584.306688,0.15924718,0.196279016,-1.06112409,0.335430741,0.190645739,-0.0288138501
105584.316715,-0.044474517,0.247590175,-1.18970838,0.421183735,0.19244124,-0.126343608
105584.326741,-0.0886012435,0.143934789,-1.23014327,0.451563478,0.179777384,-0.209644347
105584.336768,-0.0609651216,-0.0161562581,-1.11112409,0.402653188,0.153482929,-0.278449506
105584.346795,-0.0152639854,-0.202362282,-0.999273488,0.287479728,0.111349054,-0.325876683
105584.356821,-0.0630146015,-0.313216639,-0.925873905,0.126432508,0.0536846928,-0.367388427
105584.366848,-0.235594543,-0.290703121,-0.834761556,-0.0471643172,-0.0178896263,-0.418050289
105584.376874,-0.352953789,-0.247675369,-0.69888652,-0.211799413,-0.108309768,-0.463200331
105584.386901,-0.42484757,-0.312735212,-0.440922397,-0.368830025,-0.218927622,-0.496060818
105584.396928,-0.4373068,-0.383851872,-0.199318457,-0.479313403,-0.331441671,-0.505258083
105584.406954,-0.442346877,-0.430909902,0.185396899,-0.571076632,-0.423176378,-0.503852427
105584.416981,-0.327332441,-0.523363291,0.674309713,-0.631154895,-0.490005463,-0.477129459
105584.427007,-0.253366091,-0.553162144,1.04718382,-0.636471868,-0.510703802,-0.451073885
105584.437034,-0.335225459,-0.454882387,1.38795892,-0.55980587,-0.478940845,-0.43891415
105584.447061,-0.337073571,-0.4283505,1.67171273,-0.417125642,-0.390189648,-0.416858405
105584.457087,-0.343140689,-0.414571566,1.78232707,-0.216694832,-0.258677989,-0.389417708
105584.467114,-0.45585642,-0.372163443,1.79265148,-0.0122618051,-0.106353946,-0.363575727
105584.477140,-0.441171111,-0.406931317,1.67815299,0.150464788,0.0426230207,-0.336523622
105584.487167,-0.315826712,-0.520057235,1.37143448,0.288565159,0.163500443,-0.299138427
105584.497194,-0.269738915,-0.612937545,0.852199013,0.410358697,0.239985362,-0.243168101
105584.507220,-0.403461266,-0.544581947,0.226522106,0.522772849,0.287090003,-0.173979193
105584.517247,-0.670973554,-0.316747005,-0.432067475,0.616663635,0.316784531,-0.1100263
105584.527274,-0.875458235,-0.222317421,-1.01119247,0.671159625,0.340890139,-0.055138018
105584.537300,-0.905342501,-0.27272089,-1.51976393,0.671748221,0.362522721,-0.00466924999
105584.547327,-0.674860186,-0.471424649,-1.83156778,0.606788635,0.386657089,0.0562058166
105584.557353,-0.409306521,-0.528952709,-1.98399063,0.491274059,0.398267925,0.104762703
105584.567380,-0.4806533,-0.275491816,-2.11507375,0.339399576,0.392979443,0.119635656
105584.577407,-0.622544892,-0.00467741723,-2.20356628,0.150791034,0.344715238,0.0981775075
105584.587433,-0.514061429,0.155360877,-2.18992763,-0.0706646591,0.242498592,0.064351894
105584.597460,-0.300207191,0.219489285,-2.13756674,-0.292948842,0.0801355094,0.0383951291
105584.607487,-0.165418124,0.155318864,-1.81751003,-0.547225356,-0.121014111,0.0215770006
105584.617513,0.101086412,-0.0229551245,-1.31192373,-0.807525635,-0.334577799,0.0140855294
105584.627540,0.373199691,-0.10545374,-0.915695626,-0.990462482,-0.535466671,0.0111619113
105584.637566,0.366442874,0.0356467752,-0.447341032,-1.10012424,-0.697918475,-0.00648126565
105584.647593,0.42598947,0.15595424,0.0910240867,-1.10931563,-0.80142355,-0.0198260993
105584.657620,0.461638803,0.367589231,0.44986149,-0.984666348,-0.83971101,-0.0447389036
105584.667646,0.259071354,0.733593311,0.97632925,-0.785929024,-0.797198713,-0.105713844
105584.677673,0.192074477,0.9058552,1.61903971,-0.577114582,-0.687269032,-0.161031693
105584.687700,0.320971856,0.800360689,2.09330557,-0.382482469,-0.544782698,-0.190513149
105584.697726,0.459963636,0.633954614,2.48301859,-0.242341608,-0.38493976,-0.195118293
105584.707753,0.669208152,0.390963311,2.66287715,-0.124984093,-0.226259038,-0.174558163
105584.717780,0.870018966,0.221254815,2.67499604,-0.0349889547,-0.077890344,-0.129282549
105584.727806,0.781903899,0.240438896,2.57376152,0.0374159999,0.0608994961,-0.0926577002
105584.737833,0.623639191,0.244406941,2.42615513,0.0953637213,0.177117988,-0.0632438809
105584.747859,0.510011423,0.227439075,2.06725752,0.186467007,0.26647529,-0.0366945602
105584.757886,0.326946985,0.322231063,1.64309805,0.308658451,0.318755269,-0.0270256884
105584.767913,0.095564945,0.457562055,1.08263099,0.470409513,0.333372295,-0.0332505591
105584.777939,-0.154584339,0.657281129,0.58125675,0.607413709,0.319106817,-0.0528863147
105584.787966,-0.217226381,0.699003132,0.19958383,0.68115288,0.300091028,-0.0742392689
105584.797993,-0.281777472,0.696613607,-0.0982248119,0.657203078,0.275268763,-0.095265463
105584.808019,-0.352789502,0.652247299,-0.232847217,0.520160019,0.234161034,-0.0996761918
105584.818046,-0.268205677,0.464034539,-0.39806759,0.3327595,0.165236026,-0.069449842
105584.828073,-0.286240808,0.313240897,-0.539601382,0.139449954,0.0698157623,-0.0277253017
105584.838099,-0.279354738,0.162757855,-0.568343493,-0.00258068182,-0.0314333588,0.0264716242
105584.848126,-0.198081609,0.0333361602,-0.55235565,-0.0665948167,-0.111127391,0.0796712041
105584.858152,-0.171968532,0.0368954601,-0.453910473,-0.0462330878,-0.167702511,0.118125379
105584.868179,-0.257782629,0.135988945,-0.378920991,0.053080447,-0.19319056,0.129756734
105584.878206,-0.418042311,0.247527558,-0.321468335,0.191735536,-0.183829814,0.114898428
105584.888232,-0.601682356,0.334384003,-0.21792262,0.309508264,-0.161435291,0.0926154852
105584.898259,-0.644359322,0.283508533,-0.154537066,0.385214984,-0.136355773,0.0799564272
105584.908286,-0.641436786,0.142584032,-0.190776254,0.421488047,-0.118095554,0.0803196728
105584.918312,-0.659579834,0.0185086664,-0.218326525,0.435309857,-0.10944321,0.0972938687
105584.928339,-0.734312711,-0.0477660328,-0.225956873,0.409602374,-0.106024511,0.121489212
105584.938366,-0.876852539,-0.0113774994,-0.0328559754,0.29092285,-0.0991463661,0.160138607
105584.948392,-0.775791919,-0.163365758,0.197987501,0.107278705,-0.0897161067,0.236288235
105584.958419,-0.563390912,-0.357608958,0.411058589,-0.116202056,-0.0763046965,0.345205933
105584.968446,-0.326379049,-0.457229608,0.571267856,-0.299024045,-0.0539719611,0.449460179
105584.978472,-0.125811834,-0.465051388,0.539480386,-0.371732861,-0.0130205322,0.523794293
105584.988499,-0.0711613754,-0.338438613,0.466198877,-0.332580686,0.0507920012,0.543747485
105584.998525,0.0260780788,-0.195198893,0.386278953,-0.230330482,0.108949311,0.521925271
105585.008552,0.116104241,-0.0143658675,0.218378547,-0.0848574489,0.139051557,0.465422899
105585.018579,0.0711132254,0.215482387,0.0926508112,0.0576706715,0.130103871,0.377307415
105585.028605,-0.0561474192,0.435427015,-0.165193485,0.197491691,0.0810021013,0.250505
105585.038632,-0.179022469,0.526318926,-0.419838692,0.309899747,-0.0120857619,0.130480051
105585.048659,-0.115899658,0.29643297,-0.607684154,0.391638011,-0.137297735,0.0687652826
105585.058685,0.129039272,-0.100525636,-0.66043024,0.409753352,-0.248136908,0.0694656968
105585.068712,0.409812973,-0.446737294,-0.527778258,0.36043188,-0.301156998,0.109952673
105585.078739,0.603209639,-0.593424523,-0.3047551,0.257471412,-0.265402198,0.147416949
105585.088765,0.710095896,-0.540597335,-0.104968441,0.124690987,-0.165066257,0.163051844
105585.098792,0.758860658,-0.406079632,-0.0182850138,-0.00550403399,-0.0394015387,0.169552609
105585.108819,0.682143913,-0.170831345,-0.110514969,-0.0678105503,0.0634819642,0.170933992
105585.118845,0.539427487,0.0209752027,-0.445804324,-0.0323771946,0.127826601,0.168811455
105585.128872,0.38414574,0.22995493,-0.708798258,0.0440728404,0.165519387,0.122165933
105585.138899,0.339826267,0.342352133,-0.893460998,0.154341549,0.184864864,0.050440874
105585.148925,0.38784233,0.280204742,-1.1668676,0.278877646,0.176117703,-0.01812567
105585.158952,0.457784831,0.143071889,-1.1816601,0.338516474,0.156190068,-0.0974255502
105585.168979,0.556976807,-0.0274415492,-1.04961485,0.336213887,0.14742668,-0.20290564
105585.179005,0.548028361,-0.0798464938,-0.881166164,0.307148695,0.149735898,-0.320622146
105585.189032,0.571042157,-0.180906895,-0.751127579,0.259214729,0.164076492,-0.441240162
105585.199059,0.399749698,-0.253380375,-0.628868981,0.215184927,0.183294922,-0.550398886
105585.209085,0.10462993,-0.277378579,-0.643008565,0.187571153,0.177467391,-0.61758405
105585.219112,-0.161121632,-0.423885411,-0.756043408,0.161513984,0.145183757,-0.61810261
105585.229139,-0.398669867,-0.568904342,-0.66870181,0.0752632469,0.0983957425,-0.564419389
105585.239165,-0.593277516,-0.732597066,-0.421320455,-0.0690787509,0.0634793043,-0.478161961
105585.249192,-0.774399588,-0.813662873,-0.222223532,-0.245881751,0.0244895592,-0.387904763
105585.259219,-0.83914642,-0.841994284,-0.0371101257,-0.408135355,-0.0260359328,-0.284419388
105585.269245,-0.799041496,-0.851473475,0.0961550199,-0.522991657,-0.0742375553,-0.193769142
105585.279272,-0.7756916,-0.632083778,0.394054847,-0.584423065,-0.108161166,-0.144161895
105585.289299,-0.579203617,-0.451662183,0.684004008,-0.579693019,-0.123828538,-0.123871803
105585.299325,-0.373114278,-0.24484884,0.946442646,-0.50540787,-0.108570755,-0.114031166
105585.309352,-0.300349924,-0.0606695728,1.15996089,-0.37077865,-0.0583957359,-0.104600906
105585.319379,-0.392271983,0.107048389,1.20900403,-0.174585208,0.0211217254,-0.0992554128
105585.329405,-0.46127618,0.284548836,1.09408586,0.0409422927,0.113961384,-0.0843483657
105585.339432,-0.58931022,0.437848762,0.894830532,0.204823911,0.20434694,-0.0562730543
105585.349459,-0.765483145,0.542298001,0.65838266,0.259061843,0.278085321,-0.0106555037
105585.359485,-0.792024676,0.633757484,0.384787837,0.180616304,0.334863663,0.0512107946
105585.369512,-0.837239344,0.761077896,0.111228086,-0.00993606634,0.353660792,0.106725454
105585.379539,-0.805209956,0.807005169,-0.236443196,-0.234556735,0.333324939,0.139151677
105585.389565,-0.722166273,0.765892237,-0.618168139,-0.415563524,0.269684732,0.139593765
105585.399592,-0.598980769,0.732853306,-0.967391326,-0.522791207,0.167181775,0.0999677926
105585.409619,-0.470331885,0.767134492,-1.05142804,-0.589251995,0.0349329263,0.0312457196
105585.419646,-0.446723265,0.797802748,-1.04896603,-0.578920782,-0.105467327,-0.0405973122
105585.429672,-0.448690803,0.725115186,-1.07106096,-0.493564576,-0.236794204,-0.0923609063
105585.439699,-0.432982033,0.696842447,-0.957584218,-0.356311381,-0.33517614,-0.131168485
105585.449726,-0.433102188,0.748506218,-0.768596016,-0.214767843,-0.388479859,-0.182603717
105585.459752,-0.466839696,0.698335462,-0.545644754,-0.0973528102,-0.401444107,-0.240533337
105585.469779,-0.299548618,0.40746451,-0.306012407,-0.0474036261,-0.391667664,-0.265417904
105585.479806,-0.134711691,0.145985365,-0.14683073,-0.0781034827,-0.362746775,-0.280875951
105585.489832,-0.175608569,0.0199830133,0.0650695613,-0.166566223,-0.324956,-0.283174515
105585.499859,-0.0471687976,-0.161407902,0.150178871,-0.264722884,-0.282985657,-0.258827627
105585.509886,0.0460742073,-0.221492807,0.357847808,-0.385200024,-0.204449832,-0.232053295
105585.519912,0.0551766744,-0.124833819,0.644718292,-0.52566421,-0.0996770784,-0.214339808
105585.529939,0.257232448,-0.164219087,0.786871677,-0.645534158,-0.00850749388,-0.160570323
105585.539966,0.537244079,-0.337841048,0.732675977,-0.71621263,0.0410629883,-0.0696145818
105585.549992,0.764923611,-0.451555544,0.737096131,-0.702111185,0.0361665003,0.0581705421
105585.560019,1.01962449,-0.588947963,0.689540015,-0.609219313,0.004118287,0.19108811
105585.570046,1.03093945,-0.382572061,0.765562347,-0.456233203,-0.0272777192,0.290105522
105585.580072,0.807312992,0.0512607248,0.829313227,-0.251553833,-0.048257038,0.325816393
105585.590099,0.565124969,0.448462802,0.931008346,-0.046183899,-0.0592465699,0.323036849
105585.600126,0.430372654,0.639247752,0.970571125,0.145833746,-0.0602473877,0.325248063
105585.610153,0.328025282,0.797531968,0.928165231,0.325249851,-0.0569900759,0.327885926
105585.620179,0.190303084,0.907058,0.781906164,0.47839278,-0.0478309318,0.332327545
105585.630206,0.109998325,0.947105348,0.639021542,0.585090995,-0.0293347444,0.333041012
105585.640233,0.0320323841,0.898911518,0.563607696,0.622148335,-0.00712770922,0.329366893
105585.650259,0.0862042654,0.686845661,0.460779775,0.581752956,0.00906990189,0.33136481
105585.660286,0.123560767,0.541995328,0.392466701,0.470272809,0.0270728711,0.332127541
105585.670313,0.0879960442,0.480371341,0.342625689,0.318241745,0.0546424463,0.340275228
105585.680339,0.018930472,0.481047267,0.324507848,0.128828138,0.088163659,0.344765842
105585.690366,0.110378045,0.405173404,0.445142061,-0.0847360864,0.136508286,0.362182379
105585.700393,0.351480757,0.287230842,0.537916206,-0.263916224,0.192501247,0.397643179
105585.710420,0.290058101,0.414760659,0.495706127,-0.348966658,0.241401672,0.40059182
105585.720446,-0.00968392028,0.687272947,0.382217695,-0.317789048,0.271567047,0.371374816
105585.730473,-0.17863347,0.866813595,0.169002229,-0.175849736,0.274748474,0.325288534
105585.740500,-0.373374171,0.965390581,-0.0297112477,0.0169279594,0.250326455,0.265876621
105585.750526,-0.462919636,0.929921866,-0.259682617,0.226550967,0.193221092,0.197366521
105585.760553,-0.432841455,0.710447778,-0.383092724,0.386451155,0.111129962,0.135416329
105585.770580,-0.334832989,0.375564447,-0.534192217,0.49057889,0.0251615196,0.0873779655
105585.780607,-0.340889878,0.13085666,-0.571945901,0.495805591,-0.0472769924,0.0628656968
105585.790633,-0.291745689,-0.167740904,-0.414154217,0.371965677,-0.0994443223,0.0782973841
105585.800660,-0.212843271,-0.579090731,-0.307127675,0.168216825,-0.14220804,0.134833097
105585.810687,-0.037445276,-0.965067779,-0.269019185,-0.041986756,-0.179051012,0.210781649
105585.820713,0.322152591,-1.28182684,-0.309964944,-0.159371704,-0.190218702,0.289200574
105585.830740,0.496067069,-1.26657506,-0.331136911,-0.168700218,-0.163101867,0.337039471
105585.840767,0.40076925,-0.915611455,-0.367251596,-0.0729478672,-0.109301209,0.330622047
105585.850793,0.17915742,-0.387922299,-0.483998738,0.0865488499,-0.056806583,0.282355994
105585.860820,0.0459112718,-0.0434113448,-0.543597759,0.226236448,-0.0288854688,0.218836918
105585.870847,0.251566019,-0.141874824,-0.500712557,0.288023651,-0.0318479687,0.169406787
105585.880874,0.492777014,-0.415404765,-0.510025744,0.297989994,-0.0760242119,0.146787226
105585.890900,0.642792365,-0.572211968,-0.582832037,0.282660842,-0.136722192,0.146217838
105585.900927,0.870883401,-0.71911653,-0.510081858,0.242907301,-0.18147555,0.153930888
105585.910954,1.09076987,-0.788074331,-0.28857495,0.170664802,-0.199435636,0.164046645
105585.920980,1.22234867,-0.721622522,-0.0735509739,0.0897821933,-0.188406155,0.162924126
105585.931007,1.22781716,-0.493606597,0.160552381,0.00749184703,-0.152097151,0.146219179
105585.941034,1.1868169,-0.319865283,0.41553778,-0.0576400161,-0.0996909291,0.131003737
105585.951061,1.07600053,-0.13514358,0.508182746,-0.0861065462,-0.0387178585,0.104654424
105585.961087,0.878942789,0.0743049341,0.554219106,-0.0587361753,0.0182199907,0.0583068952
105585.971114,0.770950105,0.205849174,0.497832033,0.0239299424,0.057693366,-0.000988651067
105585.981141,0.712495286,0.328656785,0.31240883,0.188814238,0.0831814185,-0.0688886046
105585.991168,0.539541396,0.522127612,0.0551800354,0.388074607,0.109376267,-0.153170466
105586.001194,0.342877106,0.683235216,-0.127156892,0.589181304,0.136415333,-0.24528043
105586.011221,0.273520515,0.665083984,-0.317265038,0.767273307,0.168285385,-0.336234272
105586.021248,0.220092,0.576894464,-0.474102198,0.890853822,0.18691206,-0.419232756
105586.031274,0.0197599817,0.4729786,-0.556914336,0.935110748,0.21077852,-0.513122737
105586.041301,-0.233608776,0.395299733,-0.548327125,0.885602057,0.220748857,-0.604958653
105586.051328,-0.266592762,0.123753586,-0.441891534,0.720742285,0.200750649,-0.646268308
105586.061355,-0.250697055,-0.240506573,-0.327590032,0.459290475,0.145855978,-0.637866318
105586.071381,-0.28361477,-0.602441139,-0.165886143,0.135327578,0.0598534532,-0.573665738
105586.081408,-0.263798017,-0.927292686,-0.0996843631,-0.183222964,-0.0443243459,-0.464248955
105586.091435,-0.399317225,-1.03374033,0.00835515589,-0.461146742,-0.152448431,-0.352981567
105586.101462,-0.481604828,-0.951588119,0.183465639,-0.682135582,-0.245849475,-0.254871249
105586.111488,-0.555082372,-0.746216865,0.342462607,-0.845056593,-0.324569046,-0.192394838
105586.121515,-0.648891486,-0.475958639,0.65208619,-0.952831268,-0.379273027,-0.172636837
105586.131542,-0.538178583,-0.310287088,0.916896818,-0.978294313,-0.420101434,-0.16112107
105586.141568,-0.329240576,-0.184161366,1.13913905,-0.886167049,-0.440016001,-0.152239427
105586.151595,-0.299091156,0.00644822629,1.40801211,-0.722830057,-0.424702823,-0.152167514
105586.161622,-0.2767934,0.151092186,1.7302374,-0.495302558,-0.355783165,-0.1506093
105586.171649,-0.147425773,0.200359198,1.91406895,-0.2331101,-0.238162801,-0.147212446
105586.181675,-0.110141167,0.298518544,2.00690272,0.0169529933,-0.0817963481,-0.147618309
105586.191702,-0.177048392,0.419340388,1.94836986,0.224951208,0.079509981,-0.137713209
105586.201729,-0.197054166,0.452268625,1.6350825,0.365645736,0.218412995,-0.0965372771
105586.211756,-0.21362295,0.433721526,1.2521359,0.39926815,0.32932514,-0.0308520086
105586.221782,-0.230871387,0.396936394,0.858808786,0.357805133,0.414077848,0.0439290218
105586.231809,-0.26175051,0.40216845,0.318580796,0.294709504,0.483827114,0.0966971591
105586.241836,-0.218716255,0.40273624,-0.208107328,0.233944431,0.543503761,0.106825426
105586.251863,-0.0254952374,0.347533481,-0.674891312,0.18453294,0.579982162,0.0808164626
105586.261889,-0.0911364611,0.48750755,-1.16741413,0.143971398,0.577101648,0.00253124954
105586.271916,-0.39842181,0.669397464,-1.61385734,0.131245747,0.510417461,-0.114462748
105586.281943,-0.566866479,0.650446533,-2.0641578,0.132770672,0.375633538,-0.224070206
105586.291970,-0.601588431,0.506335511,-2.33838859,0.140047774,0.18897815,-0.324065238
105586.301996,-0.569979862,0.282042991,-2.51255857,0.156496778,-0.0290316772,-0.404754221
105586.312023,-0.481103455,0.010009572,-2.43547884,0.146537095,-0.244666234,-0.473894417
105586.322050,-0.422636835,-0.224121475,-2.26184428,0.118863113,-0.43851772,-0.524532557
105586.332077,-0.322459939,-0.449134564,-1.97269182,0.063461639,-0.602015316,-0.547974467
105586.342103,-0.17918745,-0.651688131,-1.68463943,-0.00587961823,-0.728906393,-0.547355056
105586.352130,0.0037457624,-0.772065884,-1.29497727,-0.0915894657,-0.818309784,-0.514789104
105586.362157,0.126468983,-0.774375476,-0.859276988,-0.199950278,-0.862358212,-0.457785755
105586.372184,0.149337598,-0.690494832,-0.352561392,-0.342361748,-0.871913612,-0.38206327
105586.382210,0.29005737,-0.658078636,0.257633284,-0.510213971,-0.847537756,-0.289787084
105586.392237,0.524312993,-0.646520811,0.86779698,-0.660380542,-0.800133526,-0.182019636
105586.402264,0.709543961,-0.495652862,1.33333126,-0.730194271,-0.727714717,-0.0680603012
105586.412291,0.727981974,-0.223298029,1.77384215,-0.723356843,-0.61536634,0.0411588624
105586.422317,0.726701871,0.0863898876,2.24768774,-0.673035622,-0.473973751,0.142120361
105586.432344,0.795161805,0.375787662,2.70190626,-0.582942188,-0.302390307,0.207895905
105586.442371,0.823499865,0.636967678,2.9056209,-0.417874962,-0.116787948,0.232636139
105586.452398,0.683490652,0.909697262,2.83097687,-0.167879507,0.0629346818,0.218914211
105586.462424,0.565194235,1.03970165,2.56118554,0.109979533,0.211418435,0.184844658
105586.472451,0.595263064,0.990176428,2.10643452,0.386147738,0.314734429,0.150310636
105586.482478,0.579334404,0.873149593,1.56286774,0.597985446,0.375101358,0.107280359
105586.492505,0.457971074,0.785874191,1.09072661,0.725236833,0.396460712,0.070714891
105586.502531,0.355596668,0.63044003,0.62036711,0.769355059,0.390542388,0.0652873665
105586.512558,0.359670566,0.426206985,0.294980725,0.699692905,0.366531044,0.101921283
105586.522585,0.402267234,0.286939969,0.0491518612,0.536184132,0.335899115,0.164552167
105586.532612,0.237401447,0.355458502,-0.0403992304,0.284296751,0.30242157,0.216549322
105586.542639,0.160036102,0.361514368,-0.0492459692,-0.00672604283,0.255973369,0.263575971
105586.552665,0.292486424,0.292446969,-0.0445224478,-0.273858398,0.198407024,0.318386495
105586.562692,0.363890814,0.317542466,-0.00656476534,-0.452517092,0.121010497,0.362336904
105586.572719,0.248780042,0.501549007,0.0740560008,-0.525874674,0.0485653318,0.370406806
105586.582746,0.15702691,0.655232818,0.180966223,-0.506324112,-0.0161814429,0.354610533
105586.592772,0.0682551325,0.782580629,0.390116339,-0.415009141,-0.0576777533,0.314099312
105586.602799,-0.0507708407,0.935437414,0.524518964,-0.239428788,-0.0691575781,0.246770874
105586.612826,-0.168608919,1.01903164,0.565852261,-0.0158375148,-0.0701983422,0.173371747
105586.622853,-0.0463427951,0.849238556,0.65944649,0.179015607,-0.0502320863,0.137737066
105586.632879,0.262439003,0.488429231,0.756513364,0.30368349,-0.0178555064,0.161323607
105586.642906,0.398990185,0.186180232,0.712947194,0.35701251,0.0443625972,0.219410345
105586.652933,0.422639868,0.0223181417,0.550458877,0.361985147,0.132133469,0.29757309
105586.662960,0.446366269,0.0160806356,0.337613414,0.323704332,0.236520588,0.367189169
105586.672987,0.443319302,0.0337947906,0.179834589,0.238653362,0.33458671,0.430037111
105586.683013,0.559921701,-0.0243630916,-0.0905038623,0.1688402,0.409397036,0.48208487
105586.693040,0.688358404,-0.0850832255,-0.452719218,0.139181629,0.453849435,0.510525525
105586.703067,0.83325064,-0.178521315,-0.737792882,0.134970918,0.475228757,0.516581297
105586.713094,0.972434435,-0.280196998,-0.995426165,0.136866018,0.485139191,0.497877419
105586.723120,0.847493027,-0.21362032,-1.12265846,0.113190509,0.487563729,0.439361364
105586.733147,0.549254761,-0.0905430252,-1.24878426,0.0858757943,0.463169456,0.362376034
105586.743174,0.300660378,-0.0388199253,-1.35091952,0.0432713442,0.402541518,0.28595531
105586.753201,0.0474131278,0.0511420852,-1.25874159,-0.0373803563,0.310898155,0.203733385
105586.763228,-0.14888642,0.0210895498,-1.04729722,-0.15173462,0.198878407,0.133783072
105586.773254,-0.323128888,-0.0335864086,-0.854222043,-0.26223132,0.0671275556,0.0959094614
105586.783282,-0.469152978,-0.0868633869,-0.595588058,-0.360531241,-0.0710135326,0.0906454548
105586.793309,-0.527807046,-0.127892878,-0.365540701,-0.39543888,-0.185654357,0.085592106
105586.803336,-0.58668674,-0.0857945155,-0.199033795,-0.321997166,-0.248176858,0.0497917645
105586.813363,-0.568516877,-0.0432887413,-0.164890702,-0.113138236,-0.243441492,-0.00566057488
105586.823389,-0.543027704,-0.0256716899,-0.0597954203,0.145237401,-0.176391616,-0.0741954222
105586.833416,-0.401958825,-0.131493606,-0.0770282946,0.426814228,-0.0620879494,-0.122318484
105586.843443,-0.423801678,-0.184454796,-0.257560803,0.649092317,0.0781394616,-0.156861544
105586.853470,-0.593397562,-0.207991739,-0.553006807,0.808048129,0.223786145,-0.18074584
105586.863496,-0.672389412,-0.276276682,-1.02291974,0.909566462,0.347562164,-0.192233384
105586.873523,-0.697712216,-0.429322852,-1.48806472,0.967710197,0.439668924,-0.185149118
105586.883550,-0.618478081,-0.707626072,-1.77077575,0.923730493,0.487693965,-0.152958155
105586.893577,-0.477040005,-1.02113738,-1.88387313,0.786378264,0.488346428,-0.112622708
105586.903604,-0.432820997,-1.19313646,-1.92560917,0.586194038,0.447145998,-0.0897709206
105586.913630,-0.380190865,-1.34383088,-1.9882968,0.354881167,0.357961535,-0.0621872321
105586.923657,-0.261793143,-1.54315971,-2.00911396,0.133488059,0.223750472,-0.0313156024
105586.933684,-0.120563595,-1.75890031,-1.85609256,-0.101967871,0.0645389631,0.00907442905
105586.943711,0.0583294028,-1.90359271,-1.51137779,-0.350458622,-0.102603689,0.0599234961
105586.953738,0.234814353,-1.86666583,-1.12947048,-0.55743444,-0.248528659,0.120700292
105586.963764,0.315069793,-1.57722827,-0.978285061,-0.656788468,-0.348842472,0.176898316
105586.973791,0.129463708,-1.12299098,-0.534707765,-0.731782019,-0.387263358,0.210774258
105586.983818,0.0531607315,-0.811876647,-0.148225399,-0.745750308,-0.362418473,0.252503067
105586.993845,-0.127079735,-0.43235031,0.305050868,-0.773596287,-0.297348142,0.266039401
105587.003872,-0.272757313,-0.0793823104,0.783619398,-0.768532038,-0.216989905,0.267263383
105587.013898,-0.298425167,0.197349788,1.18159639,-0.739245772,-0.120915048,0.24365817
105587.023925,-0.327327217,0.412932712,1.55919987,-0.690823138,-0.0403512269,0.205150723
105587.033952,-0.257607272,0.460536979,1.9110458,-0.670259535,0.019499056,0.177361429
105587.043979,-0.0566155481,0.383820234,2.36523802,-0.686676085,0.0507797487,0.15543589
105587.054006,0.220158635,0.188622474,2.5582337,-0.657881439,0.0499128886,0.158082813
105587.064032,0.216919873,0.246514874,2.53299288,-0.542115152,0.0482188538,0.136983126
105587.074059,0.052238429,0.470640403,2.48330793,-0.33997643,0.0644777119,0.0834450647
105587.084086,0.0145480922,0.613885347,2.4061563,-0.114696987,0.109873421,0.0201909952
105587.094113,-0.166262868,0.74075217,2.36069511,0.0665529668,0.173147738,-0.0475108176
105587.104140,-0.41461672,0.773704591,2.10818224,0.203602433,0.241998717,-0.0868390501
105587.114167,-0.771220008,0.717196668,1.71214528,0.285294116,0.293815583,-0.0916766822
105587.124193,-1.09140583,0.631184126,1.24176765,0.294281214,0.331227392,-0.0542467535
105587.134220,-1.18527157,0.475198322,0.68207567,0.262691051,0.350942761,0.0126550496
105587.144247,-1.21893528,0.277150579,0.155909524,0.181080356,0.364792019,0.0689223185
105587.154274,-1.03195316,-0.00023987317,-0.156267836,0.0390845872,0.372979373,0.10534557
105587.164301,-0.778262255,-0.217267152,-0.399403223,-0.126253232,0.366544098,0.117194511
105587.174327,-0.72934654,-0.242901944,-0.738311352,-0.222539559,0.314130694,0.106163166
105587.184354,-0.792384303,-0.221979933,-1.15477326,-0.203453213,0.212864533,0.0776103511
105587.194381,-0.83930446,-0.149725574,-1.54824593,-0.0820317119,0.0812103525,0.0327278264
105587.204408,-0.938969022,0.0373277505,-1.74769941,0.102611899,-0.0532313399,-0.0382510088
105587.214435,-0.972210563,0.250370161,-1.90326757,0.306570351,-0.166559219,-0.132343426
105587.224462,-0.958093483,0.389906094,-1.8543314,0.447934419,-0.250265568,-0.241220102
105587.234488,-0.712198714,0.310480054,-1.65955818,0.495118171,-0.310863137,-0.33138141
105587.244515,-0.305066906,0.0979804087,-1.39658763,0.435972571,-0.357465804,-0.384496838
105587.254542,0.0593617416,-0.116634986,-1.02239601,0.281861812,-0.399974644,-0.396205932
105587.264569,0.377397544,-0.321444515,-0.616005408,0.0723083243,-0.442074686,-0.367634475
105587.274596,0.651590224,-0.405298857,-0.254686709,-0.135413438,-0.476001233,-0.32096073
105587.284623,0.719997259,-0.289787614,0.143928578,-0.314644188,-0.490195066,-0.274428636
105587.294649,0.701392073,-0.117868766,0.540325021,-0.435361266,-0.480495036,-0.222103938
105587.304676,0.775425716,-0.019133155,0.923879517,-0.51195085,-0.445635587,-0.164725602
105587.314703,0.938281332,0.0514008822,1.38517367,-0.56453681,-0.385893434,-0.110639185
105587.324730,0.920200682,0.308111863,1.78215814,-0.57513994,-0.313977987,-0.0788871199
105587.334757,0.806254204,0.62921458,2.03490073,-0.49954772,-0.232767001,-0.0740079358
105587.344783,0.622173283,0.890726166,2.11209094,-0.310101628,-0.145601213,-0.0911224782
105587.354810,0.391826285,1.11430082,2.16085058,-0.0404861383,-0.0637540221,-0.126442388
105587.364837,0.359690806,1.04649102,2.08678757,0.276296884,0.0147421183,-0.159060255
105587.374864,0.429313281,0.830503606,1.98685362,0.56369561,0.0881628022,-0.182362124
105587.384891,0.420235144,0.621083295,1.7841876,0.810644329,0.160870954,-0.192104101
105587.394918,0.306183672,0.495109038,1.41858319,0.991567254,0.222923145,-0.190678507
105587.404944,0.169396563,0.293271729,1.08380237,1.08085132,0.270631015,-0.172791123
105587.414971,0.106211281,0.0887559226,0.740676913,1.06931686,0.306632966,-0.139941037
105587.424998,0.00679177903,-0.0624517069,0.463484357,0.947161973,0.318548739,-0.0862333328
105587.435025,-0.0565091651,-0.254767373,0.182389534,0.755469263,0.309261769,0.000424333848
105587.445052,-0.0158688925,-0.475861462,-0.0394879608,0.51131916,0.280736655,0.102924079
105587.455079,0.092572814,-0.58570467,-0.0728437024,0.2536937,0.256753564,0.198488951
105587.465106,0.148170015,-0.592169701,-0.19971301,0.0523992218,0.213467315,0.272617519
105587.475132,0.125887712,-0.540417375,-0.251153858,-0.0905504748,0.153637543,0.322706252
105587.485159,0.180546646,-0.521509188,-0.258418881,-0.13318795,0.0868457258,0.351726979
105587.495186,0.0931628523,-0.409474973,-0.283730432,-0.0871765167,0.0236699544,0.350583673
105587.505213,0.0392694957,-0.365967329,-0.178232415,-0.00115907658,-0.024122335,0.348018527
105587.515240,0.109056733,-0.432829399,-0.0721902069,0.119512215,-0.0547548123,0.351236671
105587.525267,0.0246168471,-0.322311507,-0.0462684147,0.239076436,-0.0691289604,0.34360674
105587.535293,-0.0700091731,-0.299420023,-0.00978489643,0.356603056,-0.0531286858,0.329900771
105587.545320,-0.00565400717,-0.386041345,-0.0551437951,0.422384739,-0.0169752091,0.321710467
105587.555347,0.0125163307,-0.419885673,-0.000405658191,0.428842098,0.0261147358,0.314985722
105587.565374,0.0700664197,-0.453419402,0.00645662879,0.324826211,0.0634306818,0.309916943
105587.575401,0.127211947,-0.604205372,0.0369271704,0.174265221,0.0787401274,0.31283471
105587.585428,0.310832192,-0.832419304,-0.0748813457,0.0527124107,0.0583552308,0.341415733
105587.595455,0.513404975,-1.02738782,-0.286431508,0.000745882513,0.00606193207,0.392756164
105587.605481,0.677319562,-1.08169027,-0.307220614,-0.00896080676,-0.0340548605,0.426946104
105587.615508,0.802905478,-1.00525432,-0.352186129,0.065386124,-0.0495435409,0.434446603
105587.625535,0.636811026,-0.743224843,-0.441445544,0.169817731,-0.0451037847,0.394675761
105587.635562,0.391473781,-0.45363341,-0.372502356,0.253850847,-0.0275639389,0.354696661
105587.645589,0.412949225,-0.36536096,-0.2811901,0.270228207,0.00756209157,0.34674871
105587.655616,0.385280918,-0.289886179,-0.158754976,0.211165711,0.0481843501,0.368873745
105587.665643,0.303240677,-0.187986331,-0.0702490097,0.0874378979,0.0865274817,0.394228369
105587.675669,0.245434458,-0.0733911072,0.0376677596,-0.0705615878,0.111640021,0.404750228
105587.685696,0.278723454,-0.00814107475,0.0986725557,-0.212527767,0.105770148,0.41091758
105587.695723,0.377276695,0.0451189524,0.148819858,-0.316248327,0.0678427443,0.407852292
105587.705750,0.515122957,0.117673316,0.178601248,-0.337664932,0.00609575491,0.402797878
105587.715777,0.586066671,0.259474674,0.161569449,-0.283865869,-0.0545124635,0.384736598
105587.725804,0.492321891,0.417194973,0.289452902,-0.185272187,-0.0946319178,0.36459136
105587.735831,0.437614916,0.537540797,0.338728097,-0.0529306605,-0.103713833,0.344799548
105587.745857,0.40828116,0.631503129,0.314537659,0.111803956,-0.0699207187,0.324993372
105587.755884,0.347756768,0.76875486,0.149127901,0.305891931,0.0173870251,0.290591985
105587.765911,0.183732181,0.961619611,-0.089361122,0.474265486,0.145035267,0.220150307
105587.775938,0.0821606525,1.00674908,-0.302394216,0.55072993,0.279248476,0.13815397
105587.785964,0.0829943269,0.88282986,-0.583300239,0.54913044,0.379978806,0.0580775104
105587.795991,-0.0512186941,0.812461023,-0.908412483,0.496397972,0.418715566,-0.0260195248
105587.806018,-0.159981303,0.693261812,-1.18429512,0.409535766,0.384925902,-0.0952169672
105587.816044,-0.207173043,0.450804616,-1.44445939,0.316503823,0.290058523,-0.148444235
105587.826071,-0.318545396,0.201460876,-1.56554777,0.197810754,0.157754794,-0.182579845
105587.836098,-0.334163273,-0.0333799993,-1.53090491,0.0613146871,0.00623210892,-0.199528992
105587.846125,-0.320310799,-0.189042416,-1.32961603,-0.107098557,-0.144744888,-0.216521829
105587.856152,-0.271952901,-0.346095119,-1.05113987,-0.288094193,-0.282439619,-0.227151304
105587.866179,-0.176273974,-0.448751337,-0.650459466,-0.491754115,-0.400693297,-0.216764435
105587.876206,-0.130321018,-0.480139286,-0.144200381,-0.71606493,-0.49421367,-0.197492212
105587.886233,-0.0516592044,-0.466494645,0.346056832,-0.918766916,-0.560596704,-0.16967842
105587.896259,0.0335471726,-0.381380952,0.791845959,-1.06326151,-0.599196315,-0.133853316
105587.906286,0.0708751788,-0.232317129,1.16405839,-1.10519803,-0.599039197,-0.101014405
105587.916313,0.0361170961,0.0332563729,1.53244045,-1.04120469,-0.548314452,-0.0908587053
105587.926340,0.0851912159,0.209162537,1.97895088,-0.897352457,-0.446068227,-0.0904416591
105587.936367,0.211843373,0.232873009,2.38946177,-0.710329294,-0.296330392,-0.0783152208
105587.946394,0.278271656,0.250313389,2.64475346,-0.466966718,-0.119534612,-0.0693651363
105587.956421,0.273277354,0.298937865,2.54732594,-0.159972951,0.066170007,-0.0572621301
105587.966448,0.131527947,0.391866471,2.29897135,0.123003617,0.234860495,-0.0390684791
105587.976475,0.0537859507,0.376743428,1.96747964,0.323435783,0.384307265,0.00552828237
105587.986501,-0.11676475,0.399962537,1.57038937,0.421298414,0.517943561,0.0588373095
105587.996528,-0.475149222,0.488903826,0.990210476,0.441124856,0.628342509,0.131725103
105588.006555,-0.778460188,0.410589949,0.326947643,0.388033956,0.720256209,0.210703
105588.016582,-0.886382511,0.254117165,-0.300414441,0.277538061,0.783257246,0.276051641
105588.026609,-0.676727807,-0.0192520322,-0.96280166,0.134377986,0.80745846,0.325247437
105588.036636,-0.416371016,-0.217198763,-1.44404321,-0.0457438566,0.779960275,0.344356418
105588.046663,-0.251853239,-0.216487546,-1.7498902,-0.238399312,0.691470087,0.331994265
105588.056690,-0.0835903383,-0.165218546,-2.05240249,-0.388034105,0.536535919,0.291182935
105588.066717,-0.0608393033,-0.0146640468,-2.32093944,-0.449069768,0.329573691,0.220494121
105588.076743,-0.197467368,0.160616825,-2.54193255,-0.393564671,0.100957818,0.121927328
105588.086770,-0.287108165,0.308066928,-2.6402468,-0.235548675,-0.111051373,0.00614959747
105588.096797,-0.281042143,0.381214582,-2.37725637,-0.074444741,-0.271146744,-0.13662912
105588.106824,-0.228738193,0.388191362,-1.87426885,0.0285258479,-0.378503829,-0.290186733
105588.116851,0.0825478252,0.274327083,-1.41714059,0.0888208821,-0.449434191,-0.419793457
105588.126878,0.397690975,0.150407638,-1.02380353,0.112063885,-0.498268068,-0.509361148
105588.136905,0.40626825,0.190385428,-0.804654587,0.144739285,-0.530501664,-0.596216977
105588.146932,0.177484848,0.296383505,-0.501748329,0.146557689,-0.543865681,-0.682017863
105588.156959,0.249606885,0.0537852931,-0.249582079,0.129847944,-0.558882713,-0.718830466
105588.166986,0.279927898,-0.223670078,0.127547353,0.0531989709,-0.582382679,-0.714512944
105588.177012,0.391593316,-0.551872616,0.406960506,-0.0125835044,-0.603347659,-0.670669079
105588.187039,0.599022709,-0.741910838,0.689277565,-0.0950136706,-0.600877285,-0.600485444
105588.197066,0.695078944,-0.744516491,1.0828531,-0.198181853,-0.573843777,-0.527784109
105588.207093,0.86143044,-0.749618198,1.4242852,-0.26802513,-0.527299464,-0.430231988
105588.217120,0.936856926,-0.601187851,1.64097915,-0.259550959,-0.456022859,-0.341108501
105588.227147,0.742105119,-0.220017912,1.8389538,-0.180269971,-0.355387866,-0.270929664
105588.237174,0.591442921,0.0228701496,1.91173963,-0.026162697,-0.233195394,-0.209433287
105588.247201,0.535948048,0.129623355,1.91577575,0.164364383,-0.0960535184,-0.154631302
105588.257228,0.408002416,0.231556666,1.86764271,0.349790961,0.0369998738,-0.115068175
105588.267255,0.346513417,0.199157348,1.68360015,0.507428527,0.155273259,-0.0780848563
105588.277281,0.261456495,0.183732619,1.36667589,0.613783479,0.246538445,-0.0389214754
105588.287308,0.103180608,0.193984184,1.06788701,0.63418144,0.31475082,0.00466781482
105588.297335,-0.00275799347,0.170707426,0.67149524,0.611979723,0.349360734,0.0573776327
105588.307362,-0.162590317,0.192899969,0.299142521,0.556515634,0.361328155,0.125968933
105588.317389,-0.29293183,0.256641715,0.0391302334,0.455019891,0.351669937,0.199701488
105588.327416,-0.354712506,0.416314172,-0.0735392835,0.303055674,0.340899318,0.251837373
105588.337443,-0.227096326,0.493274004,-0.107272042,0.127920881,0.314966798,0.291520357
105588.347470,-0.11035028,0.563581466,-0.244247732,0.00896546338,0.268616885,0.318800986
105588.357497,-0.175924503,0.742617817,-0.29778117,-0.0841024294,0.214823395,0.311694592
105588.367524,-0.227087375,0.86011965,-0.284728796,-0.139759824,0.158916995,0.280699939
105588.377551,-0.151022263,0.798093694,-0.253347569,-0.162262738,0.0960639939,0.236367092
105588.387578,-0.0752941643,0.670419573,-0.230946937,-0.134895533,0.0272494406,0.189091101
105588.397604,-0.0435702617,0.478835875,-0.217235807,-0.0504309759,-0.0500767753,0.150665686
105588.407631,-0.0212221267,0.181549796,-0.133863112,0.0576595403,-0.130330861,0.13856402
105588.417658,-0.0183605632,-0.0648102528,0.0697714554,0.144420803,-0.194271505,0.161649629
105588.427685,-0.044238151,-0.194065067,0.318003289,0.174413055,-0.225892276,0.20995298
105588.437712,-0.0839922154,-0.225216138,0.590976765,0.166405991,-0.215745896,0.280048966
105588.447739,0.0542991609,-0.248602493,0.763593678,0.144441307,-0.156038627,0.37518239
105588.457766,0.378644293,-0.283616158,0.90434538,0.0946101025,-0.0439006388,0.48232004
105588.467793,0.711310167,-0.231642079,1.09693014,0.0018599272,0.119854741,0.557774603
105588.477820,0.753513525,0.0886217748,1.03835111,-0.0711682066,0.291518122,0.577028215
105588.487847,0.442587115,0.557077126,0.726475369,-0.100399062,0.405871034,0.547374725
105588.497874,0.136835917,0.86057112,0.346454892,-0.106014073,0.437025517,0.479448617
105588.507901,0.101222094,0.796869413,0.0268880069,-0.0840741545,0.390997291,0.414472818
105588.517928,0.172974567,0.58409022,-0.302266791,-0.0163438432,0.289038181,0.366640836
105588.527955,0.176383024,0.424671958,-0.620688013,0.0900651589,0.176698849,0.325755209
105588.537981,0.273407593,0.190542373,-0.846582927,0.2367699,0.0684504062,0.314963788
105588.548008,0.468033509,-0.114909916,-0.970664064,0.348504186,-0.000154752983,0.315339833
105588.558035,0.556244766,-0.208905128,-0.886724967,0.376843661,-0.0137105091,0.319513291
105588.568062,0.536173308,-0.171927981,-0.714989514,0.299779773,0.018709749,0.320704788
105588.578089,0.548675135,-0.143595912,-0.614696663,0.147366256,0.0648151934,0.346259922
105588.588116,0.632608314,-0.17082623,-0.558864886,-0.0527897365,0.111578166,0.383921027
105588.598143,0.758314276,-0.175929764,-0.51738429,-0.238885581,0.163910076,0.409137696
105588.608170,0.7566234,-0.0389814726,-0.593237696,-0.333056808,0.205507055,0.390398622
105588.618197,0.597614851,0.261050618,-0.753846191,-0.298743576,0.227343649,0.323445708
105588.628224,0.410940297,0.51272207,-0.9679852,-0.145943925,0.226613417,0.223887697
105588.638251,0.225514536,0.65933112,-1.13061789,0.0594212227,0.207168072,0.116326086
105588.648278,0.118866472,0.628496129,-1.1979139,0.2386453,0.174457535,0.0129941031
105588.658305,-0.0140693323,0.523884977,-1.16585404,0.333978772,0.138738945,-0.085120745
105588.668332,-0.0697611897,0.429270465,-1.11434831,0.372837752,0.103048593,-0.17188786
105588.678359,-0.114554198,0.276333162,-1.05070206,0.360043377,0.0661065578,-0.234125137
105588.688386,-0.177483532,0.131449767,-0.893503668,0.295443624,0.0317986533,-0.27224803
105588.698412,-0.229410959,0.0174988318,-0.627565497,0.170416713,0.00669010356,-0.29196021
105588.708439,-0.241161822,-0.160614486,-0.265614345,-0.0155712608,-0.0120931715,-0.28281492
105588.718466,-0.119492714,-0.455889957,0.122950088,-0.245946944,-0.038931977,-0.242971107
105588.728493,-0.0919731311,-0.645320642,0.352930225,-0.464348793,-0.0674187467,-0.196582019
105588.738520,-0.195664209,-0.592844166,0.553130726,-0.653640985,-0.108050592,-0.155788794
105588.748547,-0.250860611,-0.476721075,0.817623959,-0.798448205,-0.144937769,-0.12548548
105588.758574,-0.143343143,-0.398956429,1.12423842,-0.875780284,-0.169307023,-0.11370711
105588.768601,-0.0674011826,-0.155984489,1.29330144,-0.862266362,-0.179523185,-0.128615752
105588.778628,-0.0406340255,0.0996506069,1.45032097,-0.771830976,-0.185716629,-0.153898746
105588.788655,0.0447526764,0.256911399,1.50818747,-0.60365504,-0.182102188,-0.176527888
105588.798682,-0.0506431592,0.455396328,1.49486154,-0.381990522,-0.145363078,-0.211994797
105588.808709,-0.301224296,0.686464334,1.49241532,-0.143013105,-0.0693535358,-0.250964046
105588.818736,-0.465573073,0.75661624,1.47505443,0.019041311,0.027146643,-0.263377309
105588.828763,-0.380175046,0.566156943,1.52939042,0.0645363629,0.126735553,-0.238710299
105588.838790,-0.193682132,0.30668563,1.41590666,0.0445306897,0.21352078,-0.170469463
105588.848817,-0.05901059,0.141708491,0.985308676,0.051630944,0.286608309,-0.0851250067
105588.858844,0.102436986,-0.00498195313,0.431487045,0.0750281513,0.350616574,0.0107099097
105588.868871,0.390791498,-0.157767134,-0.132253923,0.143072173,0.4265441,0.0865756497
105588.878898,0.408105621,-0.0934931803,-0.696463677,0.219375998,0.513097942,0.10502816
105588.888925,0.0615388116,0.214044171,-1.167759,0.284718543,0.581116676,0.0610543042
105588.898952,-0.28055741,0.34901992,-1.61144268,0.316796839,0.608652949,-0.0133722564
105588.908979,-0.206108501,0.0777889037,-1.9349434,0.27134493,0.579868734,-0.051010713
105588.919006,0.119877412,-0.273089211,-2.02202839,0.108128846,0.48430115,-0.0539961196
105588.929032,0.362382456,-0.42033897,-1.93839266,-0.130731672,0.348713219,-0.0510346815
105588.939059,0.532826518,-0.346230655,-1.88614926,-0.346037328,0.178890899,-0.0676248372
105588.949086,0.513347655,-0.0838970113,-1.88915078,-0.478378832,0.00653004739,-0.133579358
105588.959113,0.164583682,0.379397377,-1.80505036,-0.517872214,-0.160935119,-0.273420095
105588.969140,-0.115787375,0.649143488,-1.59275318,-0.482238293,-0.324649483,-0.453834862
105588.979167,-0.198269094,0.546341285,-1.27169108,-0.422761649,-0.492335677,-0.605293334
105588.989194,-0.204353456,0.190665561,-0.855192934,-0.379398465,-0.649343371,-0.7015661
105588.999221,-0.215986026,-0.186584831,-0.270715468,-0.395888239,-0.779389262,-0.737932622
105589.009248,-0.118677032,-0.498925162,0.276961084,-0.446721047,-0.873248398,-0.715075254
105589.019275,-0.029567163,-0.574180492,0.886735489,-0.509194851,-0.914631486,-0.664865613
105589.029302,0.0403673009,-0.483982956,1.51693893,-0.5245381,-0.898252785,-0.608585835
105589.039329,0.137914688,-0.31756877,2.0778777,-0.466546685,-0.817877769,-0.564095557
105589.049356,0.241818131,-0.129834806,2.59296833,-0.32139802,-0.681226492,-0.529700041
105589.059383,0.321334333,0.0471529059,2.9374791,-0.0936444923,-0.496185541,-0.506891966
105589.069410,0.361135013,0.174756921,3.10660466,0.184198305,-0.276028693,-0.489485294
105589.079437,0.423986387,0.272062462,3.05252353,0.460927933,-0.0491928719,-0.467725933
105589.089464,0.370959292,0.364739796,2.78754164,0.688368797,0.159649029,-0.452287585
105589.099491,0.299678162,0.311808526,2.35580734,0.839473307,0.335092753,-0.425757438
105589.109518,0.198548715,0.294694967,1.67628194,0.929394424,0.469902217,-0.397762299
105589.119545,-0.0989077892,0.401811014,1.04734574,0.954296291,0.553563893,-0.377763271
105589.129572,-0.254214671,0.39197658,0.396532636,0.950827539,0.585669577,-0.35531044
105589.139599,-0.315160321,0.38734724,-0.12089374,0.891729593,0.561854005,-0.327168822
105589.149626,-0.284310972,0.2971588,-0.350947527,0.759004831,0.499263316,-0.282141954
105589.159653,-0.181292277,0.154917152,-0.520924155,0.564203382,0.401465118,-0.226069614
105589.169680,-0.109439193,0.113863476,-0.655693859,0.345217824,0.287256241,-0.164732754
105589.179707,-0.150983922,0.19358459,-0.752362674,0.15363507,0.162928447,-0.125953123
105589.189734,-0.305277243,0.357823843,-0.849669787,0.0180034768,0.0418648683,-0.113401383
105589.199761,-0.335916912,0.472053448,-0.866350872,-0.0627414361,-0.0776210502,-0.11908564
105589.209788,-0.321946729,0.491442405,-0.813928611,-0.0827612132,-0.17946592,-0.143304422
105589.219815,-0.48004631,0.515632989,-0.736928958,-0.0782607421,-0.267921478,-0.183085382
105589.229842,-0.57637771,0.466034188,-0.608556845,-0.0462948196,-0.329355538,-0.215916574
105589.239869,-0.547458343,0.295204378,-0.364768547,-0.0242233388,-0.360629052,-0.234685197
105589.249896,-0.590183788,0.128721292,-0.111578799,0.00336461328,-0.370707512,-0.252437592
105589.259923,-0.540807543,-0.0330315512,0.170171858,0.0378339067,-0.364240021,-0.270152122
105589.269950,-0.445708828,-0.175050643,0.409444724,0.088886708,-0.357377589,-0.273448855
105589.279977,-0.395576321,-0.327523543,0.594797785,0.136238232,-0.3415097,-0.260346889
105589.290004,-0.332362361,-0.466731669,0.680444854,0.198719457,-0.311713427,-0.220345944
105589.300031,-0.338488845,-0.593221256,0.733362206,0.245261133,-0.263992786,-0.159319341
105589.310058,-0.226118311,-0.81670319,0.778760267,0.286244005,-0.196232647,-0.0714472756
105589.320085,0.0476866475,-1.06623778,0.74770345,0.325876892,-0.113284774,0.0352799669
105589.330112,0.250065917,-1.18147583,0.641412821,0.373243868,-0.0122859841,0.133584961
105589.340139,0.159398864,-1.0229361,0.477258616,0.413466394,0.0860112906,0.207937762
105589.350166,-0.0475617424,-0.747572663,0.261956992,0.39940384,0.162926838,0.266174942
105589.360193,-0.131464782,-0.556078762,0.111413379,0.314632237,0.186823919,0.320767879
105589.370220,-0.0223060494,-0.5244421,-0.0784042592,0.195892781,0.169980764,0.375032723
105589.380247,0.0329088016,-0.49729135,-0.104057756,0.0373406895,0.115641616,0.42009154
105589.390274,0.320708602,-0.566724952,-0.248931506,-0.0647208616,0.0482331254,0.492289126
105589.400301,0.57157462,-0.58271674,-0.343300227,-0.0903676376,-0.0121580446,0.558314741
105589.410328,0.709743722,-0.441966353,-0.324260011,-0.0618510358,-0.0418203324,0.601696312
105589.420355,0.868650455,-0.307567966,-0.198100314,-0.0145237353,-0.0339831822,0.638014078
105589.430382,1.04259409,-0.160005122,-0.0212058696,0.0430772416,0.00560657214,0.666899264
105589.440409,1.0746885,0.0334007498,0.0675794983,0.118339233,0.0784474909,0.686832488
105589.450436,1.0912258,0.196861858,0.0496124644,0.204231516,0.172049612,0.703373373
105589.460463,1.14333446,0.342566798,-0.0141407536,0.277906269,0.271711469,0.710118115
105589.470490,1.08731366,0.524056607,-0.160387546,0.340219438,0.368884087,0.692870677
105589.480517,0.949166153,0.732379478,-0.386015918,0.395609468,0.452892184,0.645865619
105589.490544,0.717938207,1.03756303,-0.646624418,0.450674325,0.503938913,0.554345548
105589.500571,0.513523815,1.249417,-0.929551133,0.522959113,0.503162861,0.441120744
105589.510598,0.324069421,1.3061374,-1.17266606,0.552809417,0.469774216,0.330669343
105589.520625,0.172175745,1.24862848,-1.13847504,0.463548034,0.419238091,0.227492884
105589.530652,0.139091879,1.10927101,-1.16914081,0.300617695,0.352985561,0.157802492
105589.540679,0.0198144518,1.0310234,-1.21232003,0.108799793,0.266600877,0.102626048
105589.550706,-0.164406298,1.05463736,-1.2323475,-0.0603178553,0.164726987,0.0503474027
105589.560733,-0.269288504,1.05400008,-1.24337392,-0.195627734,0.0572822802,0.0022911937
105589.570760,-0.452775186,1.09548813,-1.11212713,-0.297376484,-0.0524940155,-0.0698605031
105589.580787,-0.419152793,1.03925172,-0.780984373,-0.40035373,-0.157193527,-0.142922461
105589.590814,-0.236008677,0.879027399,-0.287080327,-0.511195838,-0.245538041,-0.209318534
105589.600841,-0.179087643,0.760707016,0.177943076,-0.590189457,-0.31750226,-0.253645509
105589.610868,-0.147082293,0.627547085,0.613378566,-0.63867873,-0.355487198,-0.283436686
105589.620895,-0.164928221,0.542334022,1.16594231,-0.676442564,-0.355781466,-0.3083013
105589.630922,-0.127415799,0.410679381,1.58066293,-0.659188747,-0.326268315,-0.330527514
105589.640949,-0.114799734,0.367165087,1.85964236,-0.587562263,-0.26848039,-0.343279779
105589.650976,-0.216107826,0.423575979,2.08745685,-0.487363994,-0.192301452,-0.373349816
105589.661003,-0.272910421,0.44267589,2.15820153,-0.341317564,-0.100287102,-0.403514117
105589.671030,-0.345495728,0.496955761,2.11863992,-0.182021648,-0.00869060867,-0.426082253
105589.681057,-0.346834027,0.366601242,1.8423224,-0.00393793639,0.0788155422,-0.39168939
105589.691084,-0.395428474,0.305320479,1.45996383,0.141775861,0.142408103,-0.308042169
105589.701111,-0.490038749,0.384130689,1.070259,0.235078648,0.197075069,-0.210107893
105589.711139,-0.557741216,0.480829898,0.642858928,0.258805811,0.268680274,-0.123846233
105589.721166,-0.579355264,0.580408317,0.248024913,0.24213016,0.359802186,-0.0538373254
105589.731193,-0.54569126,0.590127016,-0.38142859,0.237944201,0.446559191,0.00118012261
105589.741220,-0.412290615,0.465636129,-1.13456926,0.25008902,0.511045277,0.0221322775
105589.751247,-0.468225086,0.462456622,-1.78107853,0.242845759,0.542982697,-0.0176159367
105589.761274,-0.567373186,0.441316073,-2.27853939,0.205023274,0.525481462,-0.0845755339
105589.771301,-0.548607732,0.284163709,-2.75310278,0.158583343,0.436408281,-0.151443511
105589.781328,-0.353464515,0.000520662873,-2.97564955,0.0808584392,0.288187921,-0.197716206
105589.791355,-0.0477154169,-0.323744901,-2.93701967,-0.0420016982,0.108132683,-0.208132088
105589.801382,0.22459249,-0.451797865,-2.58202842,-0.250491261,-0.0914589912,-0.184464842
105589.811409,0.543693109,-0.501814234,-2.31767313,-0.438021481,-0.302985638,-0.153654739
105589.821436,0.853928394,-0.50635027,-2.12891757,-0.554641068,-0.490659118,-0.151707157
105589.831463,0.771899807,-0.256590497,-1.75212891,-0.610197544,-0.632618904,-0.210899383
105589.841490,0.589154153,-0.108335287,-1.34456869,-0.6080212,-0.73241204,-0.311026782
105589.851517,0.635947395,-0.213108644,-0.930916576,-0.572858155,-0.800304592,-0.389918119
105589.861544,0.734608406,-0.346972486,-0.504356466,-0.513954639,-0.83545804,-0.435962051
105589.871571,0.746613755,-0.423501891,-0.112211252,-0.423100054,-0.841127872,-0.44298774
105589.881598,0.743149586,-0.496981188,0.343354588,-0.339437634,-0.812389433,-0.41175285
105589.891625,0.848237197,-0.611487127,0.817820358,-0.25095278,-0.748586237,-0.33208707
105589.901652,1.02487986,-0.665749097,1.22023328,-0.181666389,-0.633042872,-0.230670154
105589.911679,1.08776784,-0.663828651,1.70463008,-0.121458977,-0.466754317,-0.124927208
105589.921706,1.30336618,-0.639661958,2.00469089,-0.0647237897,-0.265903234,-0.0142044267
105589.931733,1.50947108,-0.549187249,2.15783971,0.0144152381,-0.0503477752,0.0821330249
105589.941761,1.59920834,-0.332967195,2.20058697,0.12512365,0.156355873,0.138940379
105589.951788,1.57010032,-0.0836506354,2.05931563,0.292187214,0.329656541,0.15956603
105589.961815,1.40281644,0.209684368,1.70609606,0.488012642,0.456246436,0.147896856
105589.971842,1.13344939,0.475506511,1.30588503,0.692476809,0.53824389,0.110365726
105589.981869,0.812286908,0.636219709,0.860977947,0.868079484,0.577415764,0.0623819605
105589.991896,0.488955666,0.691706911,0.420110495,1.00640309,0.566408098,0.0314272419
105590.001923,0.272007992,0.636986529,0.0844037918,1.04434967,0.514050663,0.0269025303
105590.011950,0.205967065,0.395523605,-0.0550356585,0.979477406,0.433233261,0.0530795418
105590.021977,0.272215936,0.157129275,-0.195886145,0.836904287,0.336821765,0.112390794
105590.032004,0.252425668,0.0132667472,-0.183869544,0.634746909,0.239561543,0.19206059
105590.042031,0.251322785,-0.02713789,-0.140123925,0.417231143,0.153734252,0.271589518
105590.052058,0.235753204,0.0945170434,-0.181291218,0.232788861,0.0932887569,0.321258783
105590.062085,0.153721731,0.278116684,-0.168364516,0.0875192732,0.064449653,0.35251978
105590.072112,0.0530059428,0.469776443,-0.1587994,-0.0133026754,0.0592772551,0.369677722
105590.082139,-0.0553561226,0.634792526,-0.249221429,-0.0514932051,0.0670494288,0.346026987
105590.092166,-0.367807184,0.983620576,-0.36672085,-0.012294936,0.0771430731,0.271299213
105590.102193,-0.615722134,1.14744511,-0.429822911,0.0614602454,0.0714210048,0.180455595
105590.112221,-0.519778017,0.958218424,-0.445672222,0.142601177,0.0407869294,0.118526451
105590.122248,-0.335969738,0.683419486,-0.443012647,0.225678757,-0.00508095976,0.0914058834
105590.132275,-0.404188155,0.553397706,-0.384850966,0.267440856,-0.0439809561,0.0741081238
105590.142302,-0.409701841,0.452954049,-0.117976391,0.228017271,-0.0736743957,0.0794919655
105590.152329,-0.318146789,0.274512522,0.057652563,0.129704013,-0.0921500772,0.113441944
105590.162356,-0.304016082,0.206372029,0.113491355,0.00665052561,-0.110945068,0.164671585
105590.172383,-0.0882005172,0.0556669422,0.122221774,-0.114615455,-0.121964164,0.233673811
105590.182410,0.183397944,-0.0514786967,-0.00385550638,-0.189704329,-0.125722691,0.290212721
105590.192437,0.147581402,0.0581914922,-0.176439101,-0.204604983,-0.108406015,0.299870938
105590.202464,-0.0142227693,0.294340528,-0.363071096,-0.175537378,-0.0765945539,0.274693429
105590.212491,-0.151628778,0.489734505,-0.358152344,-0.182328716,-0.0590629689,0.249262363
105590.222518,-0.10498415,0.542825021,-0.310897841,-0.213940427,-0.0646886304,0.236164942
105590.232545,0.104913423,0.375432711,-0.17674656,-0.284596503,-0.0960497484,0.243548021
105590.242573,0.441653196,0.0506792169,-0.0934662192,-0.334578156,-0.149470627,0.284058422
105590.252600,0.762413528,-0.25740532,-0.00827215378,-0.353979558,-0.205976516,0.342534781
105590.262627,1.12267556,-0.618619243,0.201748899,-0.363310754,-0.240868449,0.424286366
105590.272654,1.5140967,-0.947126683,0.398333548,-0.33076638,-0.248359129,0.520083189
105590.282681,1.54544884,-0.82101477,0.420476406,-0.24172093,-0.204673156,0.578812838
105590.292708,1.27664768,-0.426794211,0.445520246,-0.11873962,-0.119884238,0.587054253
105590.302735,1.20557516,-0.218424724,0.471476525,-0.0230450518,-0.00646580383,0.594085515
105590.312762,1.32474799,-0.15342399,0.452525741,0.00540789496,0.135909721,0.614098907
105590.322789,1.22006085,-0.00059095163,0.294796601,-0.0244378857,0.28173241,0.619274795
105590.332816,0.915800328,0.272608004,0.091871059,-0.099537164,0.409354031,0.59656626
105590.342843,0.771625301,0.478503501,-0.173590142,-0.175719008,0.491858482,0.55871743
105590.352870,0.648393619,0.690752752,-0.476053332,-0.203395918,0.518866181,0.495827138
105590.362898,0.416612607,0.953570891,-0.726080816,-0.179389641,0.514279664,0.375574499
105590.372925,0.2759503,1.05702425,-0.835152017,-0.123568468,0.464062542,0.243020177
105590.382952,0.311581403,0.909201441,-0.934375776,-0.0559952781,0.376800627,0.120161101
105590.392979,0.259080816,0.710566729,-1.00381931,0.0051471456,0.259287089,0.0176184624
105590.403006,0.156464271,0.490799065,-0.929558147,0.0356262252,0.129591152,-0.0630380362
105590.413033,0.178607057,0.246455179,-0.784407918,0.0218132082,0.0150714945,-0.118816085
105590.423060,0.223980313,0.0667822104,-0.494755694,-0.0607471839,-0.0770472512,-0.153177768
105590.433087,0.178628976,-0.03502499,-0.256753578,-0.179025084,-0.143666476,-0.177294299
105590.443114,-0.025939949,-0.0400520244,-0.0146270758,-0.31384629,-0.193664134,-0.193843976
105590.453141,-0.238329704,0.0023426176,0.174312611,-0.427575797,-0.230123878,-0.197694376
105590.463168,-0.432080809,0.0929096813,0.487888146,-0.527933002,-0.250956714,-0.202043846
105590.473196,-0.539638536,0.175769751,0.784926973,-0.607075989,-0.263878375,-0.205023125
105590.483223,-0.588341229,0.191620742,1.05375385,-0.632840216,-0.270530939,-0.198946595
105590.493250,-0.584510236,0.248035361,1.20184423,-0.588275969,-0.265587062,-0.204650283
105590.503277,-0.635082229,0.316598171,1.42937697,-0.485222578,-0.2368377,-0.228234977
105590.513304,-0.691611414,0.352230626,1.57515673,-0.312309653,-0.187599853,-0.25247559
105590.523331,-0.714710039,0.35863399,1.50860774,-0.0751583427,-0.12202964,-0.243042678
105590.533358,-0.787479872,0.401439332,1.44684774,0.16548942,-0.0230753589,-0.203049451
105590.543385,-0.773912535,0.419925056,1.32463883,0.335278451,0.113557853,-0.147238389
105590.553412,-0.702798725,0.51538201,1.23102765,0.384273142,0.28082329,-0.0894073248
105590.563439,-0.690553722,0.60733629,1.02745563,0.328689247,0.462179482,-0.0569164902
105590.573467,-0.756918145,0.626615284,0.719036159,0.195681676,0.617239594,-0.0487179495
105590.583494,-0.851721459,0.569153056,0.224683785,0.0463052355,0.717612803,-0.0596377105
105590.593521,-0.800138425,0.378080229,-0.391634927,-0.0688160285,0.733667672,-0.070434697
105590.603548,-0.629610812,0.165531265,-1.04132867,-0.0871899724,0.672682881,-0.11183247
105590.613575,-0.551383956,0.116909419,-1.58137604,-0.0257457886,0.547914326,-0.18964684
105590.623602,-0.538932397,0.144074197,-1.83443252,0.0541738085,0.381664664,-0.286891907
105590.633629,-0.49559346,0.118073203,-1.84759361,0.116729602,0.192746416,-0.384515136
105590.643656,-0.381187036,-0.0296053761,-1.71310389,0.123372853,-0.0105896601,-0.447343618
105590.653683,-0.0659555686,-0.351730056,-1.58307116,0.099628374,-0.195520625,-0.448190778
105590.663711,0.171577194,-0.577638268,-1.21903326,-0.0191344917,-0.346951962,-0.412611753
105590.673738,0.201139243,-0.565832095,-0.74896251,-0.20437412,-0.446050853,-0.370253086
105590.683765,0.110571832,-0.421175859,-0.390896091,-0.389406562,-0.499715656,-0.352936685
105590.693792,-0.00684566464,-0.231935948,-0.142226451,-0.538270056,-0.522459924,-0.361504346
105590.703819,-0.121650842,0.051839639,0.00615209289,-0.601277769,-0.527752399,-0.39804852
105590.713846,-0.331015806,0.286029868,0.0176169052,-0.570920944,-0.526690304,-0.473731548
105590.723873,-0.458281455,0.385282927,0.089936876,-0.482921332,-0.517679811,-0.566069484
105590.733900,-0.2533011,0.192672078,0.24089433,-0.413526028,-0.502017975,-0.638726652
105590.743928,-0.0585199935,-0.0768792415,0.342706937,-0.316687346,-0.501546919,-0.687555134
105590.753955,-0.032358255,-0.225374836,0.212791102,-0.160989895,-0.506716371,-0.712965965
105590.763982,-0.0549804943,-0.258167683,0.137628602,0.0419016965,-0.51318115,-0.722450793
105590.774009,0.0914822788,-0.366516048,0.202115394,0.244945094,-0.494157374,-0.70270586
105590.784036,0.336035716,-0.492850664,0.403645683,0.419878542,-0.442002028,-0.659210086
105590.794063,0.534936167,-0.509175776,0.508538136,0.551873922,-0.356998473,-0.596234024
105590.804090,0.705933443,-0.416964891,0.681926617,0.600518942,-0.24509564,-0.52055794
105590.814117,0.865327594,-0.300396613,0.64993515,0.61644572,-0.122405939,-0.447122574
105590.824145,0.830750421,-0.0129044167,0.551587004,0.568246484,-0.00528837182,-0.384961724
105590.834172,0.750744133,0.340094052,0.308113763,0.492983133,0.0877864435,-0.354281306
105590.844199,0.600453764,0.631215398,0.0870095904,0.38688013,0.137857601,-0.34356156
105590.854226,0.586870133,0.72683105,-0.184402043,0.288467258,0.126522124,-0.328134418
105590.864253,0.502834298,0.81489015,-0.518176317,0.243732557,0.0540710948,-0.331953645
105590.874280,0.285872267,0.895184753,-0.814053699,0.256234229,-0.0607068874,-0.341517597
105590.884307,0.196295821,0.833323924,-0.798875419,0.273221463,-0.190607354,-0.351360887
105590.894334,0.292443608,0.657051265,-0.559272882,0.246697456,-0.308011472,-0.33154273
105590.904362,0.538641305,0.327912542,-0.286238616,0.20116885,-0.404078096,-0.274719119
105590.914389,0.631085123,0.16063173,-0.107758364,0.158628061,-0.462196797,-0.208631709
105590.924416,0.541260402,0.166427995,-0.00993278047,0.149680898,-0.471468329,-0.152705327
105590.934443,0.428202324,0.231461608,0.11064824,0.164450258,-0.430664957,-0.103763357
105590.944470,0.426315049,0.273539147,0.167599377,0.224741295,-0.349458247,-0.0650609732
105590.954497,0.337004926,0.460804763,0.177706929,0.279985905,-0.243253261,-0.0472976863
105590.964524,0.249940756,0.719179659,0.181357269,0.309413284,-0.123419277,-0.0471269786
105590.974552,0.0964572177,0.935106136,0.170114575,0.3046031,-0.00879176054,-0.0670769811
105590.984579,-0.156988989,1.16360992,0.123503046,0.273909092,0.0737846047,-0.113187753
105590.994606,-0.48669353,1.28460726,-0.0474871428,0.24899444,0.0957423672,-0.172550932
105591.004633,-0.741796491,1.28467565,-0.225565828,0.255160719,0.0490584895,-0.236519262
105591.014660,-0.816385284,1.11148006,-0.257293676,0.263508111,-0.0477934852,-0.309714913
105591.024687,-0.717927028,0.862825767,-0.219941559,0.291820168,-0.191888079,-0.342829198
105591.034714,-0.499426462,0.468425175,-0.167041159,0.328751028,-0.34824279,-0.341979921
105591.044742,-0.291737798,0.0568739799,0.122312374,0.337757319,-0.481782466,-0.319902301
105591.054769,-0.00902823285,-0.312861542,0.38669221,0.316309541,-0.568822622,-0.276684254
105591.064796,0.242610121,-0.598601122,0.695711982,0.277781069,-0.597536564,-0.198975354
105591.074823,0.522403506,-0.789184338,0.895386413,0.217012271,-0.555193067,-0.0936484039
105591.084850,0.810191617,-0.874466228,1.17876379,0.12596491,-0.456468612,0.0135190599
105591.094877,1.12292785,-0.887616802,1.42306004,0.0128444796,-0.327231258,0.112904765
105591.104904,1.32308196,-0.666376874,1.52749774,-0.0944681242,-0.199847996,0.199843138
105591.114932,1.42445179,-0.372640596,1.38557699,-0.122429989,-0.0870817751,0.258096576
105591.124959,1.38481492,-0.2687826,1.29145143,-0.0988873765,0.00119482738,0.312329203
105591.134986,1.5283149,-0.323151758,1.21703303,-0.0143077783,0.0622744299,0.385840714
105591.145013,1.76453145,-0.218729699,1.19194769,0.115650751,0.123260811,0.44816798
105591.155040,1.74573556,-0.0879528626,1.05543201,0.297057807,0.206661165,0.488210469
105591.165067,1.61276837,0.175551067,0.919648747,0.498697191,0.322586715,0.498332083
105591.175095,1.34578712,0.62271455,0.877559664,0.660831273,0.449504167,0.463672638
105591.185122,1.12543362,0.982456063,0.840717249,0.777423143,0.558270574,0.427646726
105591.195149,1.05104342,1.22609458,0.70945526,0.818623304,0.632868111,0.397583634
105591.205176,1.07273006,1.27195748,0.84390114,0.712450266,0.669095099,0.364524215
105591.215203,1.28541712,1.14670218,0.898964856,0.479448676,0.670693278,0.311665535
105591.225230,1.3592871,1.11121133,0.787629218,0.225820407,0.61905694,0.234544918
105591.235257,1.32865011,1.04034141,0.352166255,0.0901938602,0.512939334,0.140977427
105591.245285,1.13179439,1.04420656,-0.222900408,0.119589038,0.354990989,0.0207567327
105591.255312,0.791474933,1.1600984,-0.717576607,0.279759258,0.174808428,-0.118610479
105591.265339,0.53907429,1.14790075,-1.13337041,0.504151106,-0.00145102316,-0.258247733
105591.275366,0.354730626,1.01929979,-1.30873867,0.722448587,-0.143215075,-0.360265166
105591.285393,0.313361893,0.762729462,-1.44740596,0.912950873,-0.228064716,-0.403023034
105591.295420,0.376968688,0.502529835,-1.304557,0.996195674,-0.243615717,-0.407808989
105591.305448,0.569344706,0.0563180995,-0.978226024,0.922770977,-0.201837912,-0.359437197
105591.315475,0.762946977,-0.472459983,-0.685692107,0.695733607,-0.12286853,-0.282763183
105591.325502,0.856222569,-0.782614312,-0.439963197,0.363733798,-0.0351320207,-0.175685748
105591.335529,0.896472381,-0.974594389,-0.384434786,0.00384139805,0.0399877653,-0.0611708909
105591.345556,0.90172811,-1.04380967,-0.400789124,-0.32152766,0.0815876722,0.044739563
105591.355583,0.944422612,-1.02367845,-0.469390951,-0.5787642,0.0787719116,0.128735393
105591.365611,0.930877778,-0.909942177,-0.523568532,-0.777639508,0.0325841755,0.178093627
105591.375638,0.878235664,-0.77413816,-0.623017332,-0.89600873,-0.0454933122,0.206501305
105591.385665,0.72246153,-0.50969622,-0.755547734,-0.939900041,-0.139271468,0.200358197
105591.395692,0.626873496,-0.242058406,-0.706952338,-0.943357766,-0.234192833,0.182396486
105591.405719,0.676929321,-0.0637324675,-0.517798131,-0.948587179,-0.314629078,0.166359201
105591.415747,0.74678502,0.0483916905,-0.0770721338,-0.984269023,-0.371560812,0.149256647
105591.425774,0.86676771,0.14725217,0.361040467,-1.03394198,-0.396871477,0.138277769
105591.435801,0.961412033,0.369325188,0.800595082,-1.09071577,-0.39023301,0.106943548
105591.445828,1.03897473,0.562569732,1.23363111,-1.11613858,-0.355890214,0.055730693
105591.455855,1.12356768,0.716662123,1.50415544,-1.07917821,-0.295552582,-0.00102952402
105591.465882,1.06128607,0.879567205,1.76332952,-0.994890213,-0.215469211,-0.0761612877
105591.475910,0.965276307,0.965453782,2.01739079,-0.86408025,-0.129505306,-0.154944792
105591.485937,0.858673616,0.974840035,1.95882813,-0.642118871,-0.0376182571,-0.253623694
105591.495964,0.596839958,0.998358419,1.92324419,-0.381781757,0.0388253853,-0.377103835
105591.505991,0.487238889,0.859374457,1.7839234,-0.108485788,0.0905525014,-0.494715959
105591.516018,0.411406087,0.65109601,1.48860716,0.182072282,0.113407746,-0.598902524
105591.526045,0.211697389,0.463776911,1.08568219,0.464766294,0.0999406725,-0.673624933
105591.536073,0.0336463951,0.115685358,0.758725779,0.689950109,0.067222409,-0.711360097
105591.546100,-0.0390213662,-0.266078602,0.581644288,0.812648058,0.0279013664,-0.70065254
105591.556127,0.0134141928,-0.652066463,0.481039888,0.850554466,0.0143900849,-0.656033993
105591.566154,0.0996061833,-0.916194369,0.424314961,0.803847671,0.0149339028,-0.576511443
105591.576181,0.142917283,-1.09251686,0.332383112,0.674406052,0.0326180905,-0.476983815
105591.586209,0.140167034,-1.14676823,0.207822666,0.452971965,0.0680626333,-0.369143635
105591.596236,0.191622788,-1.17536027,0.0768581988,0.192390963,0.107972234,-0.254268974
105591.606263,0.324333296,-1.11097211,-0.21183424,-0.0596087947,0.132583305,-0.144013584
105591.616290,0.430697867,-0.966368121,-0.526861143,-0.241841182,0.137513071,-0.0503765643
105591.626317,0.528466825,-0.899654007,-0.889632379,-0.311875135,0.115707919,0.0299204029
105591.636345,0.60012256,-0.852096137,-1.26138772,-0.285047501,0.0760489255,0.0840837732
105591.646372,0.453407858,-0.702427261,-1.26606506,-0.251086622,0.0391367078,0.113210768
105591.656399,0.411958388,-0.657508508,-1.12645025,-0.234571546,0.0143157821,0.135820195
105591.666426,0.54424044,-0.737514795,-0.9222072,-0.236596882,0.012956772,0.177779898
105591.676453,0.798628458,-0.918641616,-0.716182523,-0.241213471,0.0297224354,0.250965178
105591.686481,0.961486194,-1.07277507,-0.591300006,-0.252600878,0.0599301383,0.341002375
105591.696508,1.06294641,-1.15366647,-0.524527147,-0.234536126,0.0946766734,0.435140073
105591.706535,0.922421062,-0.944324777,-0.540010548,-0.218874082,0.138231069,0.484786451
105591.716562,0.877585018,-0.718056792,-0.40292789,-0.218955308,0.201628417,0.479194343
105591.726589,0.909316373,-0.436590067,-0.419889546,-0.219961718,0.258136988,0.421300411
105591.736617,0.752886187,-0.127284902,-0.543702973,-0.20053874,0.283907861,0.319443822
105591.746644,0.713615156,-0.0290207812,-0.789569246,-0.111839511,0.27628696,0.224056587
105591.756671,0.607574775,0.0523230386,-1.17498544,0.0682423785,0.231543168,0.131006539
105591.766698,0.23794096,0.328898338,-1.33850135,0.256776333,0.177417353,0.0327428207
105591.776725,0.023677009,0.385132559,-1.35300159,0.433196664,0.125729918,-0.0486905202
105591.786754,-0.121969479,0.3141849,-1.33298346,0.548524797,0.0842245594,-0.115037851
105591.796781,-0.107556412,0.0771032596,-1.10517658,0.571857572,0.0663025528,-0.156944558
105591.806808,-0.0152777217,-0.148281513,-0.846093097,0.50750947,0.0590864494,-0.172195151
105591.816835,0.0277427241,-0.315376301,-0.693200876,0.401935935,0.0485584401,-0.171367973
105591.826862,0.0135254712,-0.294740925,-0.625573447,0.251550704,0.0292382743,-0.18409735
105591.836890,0.0200003663,-0.147504537,-0.490384639,-0.00497937202,0.00637796475,-0.225809917
105591.846917,0.071941639,-0.161509243,-0.351064431,-0.29940486,-0.0294716451,-0.280030012
105591.856944,0.000864069483,-0.154679836,-0.498093314,-0.540020943,-0.0972751901,-0.34119162
105591.866971,0.0460541874,-0.19010157,-0.580969166,-0.692321539,-0.217541695,-0.381495118
105591.876999,0.138899717,-0.317203371,-0.586124649,-0.756440639,-0.37467429,-0.375614047
105591.887026,0.104669385,-0.286990165,-0.505422049,-0.708268821,-0.537693858,-0.361964822
105591.897053,0.0505231495,-0.0324374577,-0.215616097,-0.623839676,-0.673160613,-0.365307897
105591.907080,0.143572166,0.123424866,0.286634337,-0.520323157,-0.746887565,-0.381210685
105591.917107,0.340459305,0.165744981,0.866065041,-0.427900523,-0.748661518,-0.398685813
105591.927135,0.560956305,0.184689774,1.38943484,-0.328734517,-0.691040814,-0.402513832
105591.937162,0.707544312,0.189626208,1.70648945,-0.205827519,-0.606570661,-0.375567973
105591.947189,0.807154222,0.132982237,1.90404148,-0.0633140504,-0.488133222,-0.320778489
105591.957216,0.879482157,0.0272622471,2.06181679,0.0714653358,-0.358376294,-0.242611796
105591.967243,1.01578784,0.00823737473,2.10874513,0.165962026,-0.220536947,-0.156396478
105591.977271,1.07217272,0.0401655678,2.04022982,0.24233295,-0.0944754109,-0.0798484385
105591.987298,0.998701972,0.155595782,1.72926125,0.367112428,0.00503333472,-0.0162545498
105591.997325,0.778827195,0.290886003,1.19887895,0.505530715,0.0499368906,0.0351625681
105592.007352,0.564763442,0.319427184,0.750176562,0.632156849,0.0277871173,0.0950149819
105592.017380,0.559927108,0.334003991,0.251425077,0.733833671,-0.0274021029,0.170829311
105592.027407,0.587429009,0.392757647,0.0529004001,0.778793454,-0.0700419694,0.207040042
105592.037434,0.366858797,0.581278378,-0.0635229164,0.76946491,-0.0906066373,0.193205193
