t,ax,ay,az,gx,gy,gz
92259.758907,-0.0105740815,-0.00335009853,-0.00573454844,0.000558612889,-0.00117665566,0.0010424239
92259.768930,-0.00290853815,-0.00261345482,-0.0172572285,-0.000551658953,-0.000821922571,0.00075373718
92259.778954,0.00165426941,0.00961821371,-0.014119515,-0.00175061418,0.000509125341,0.000198202333
92259.788977,0.0200654143,0.00406938395,0.00263989667,0.000798297368,-0.00121793467,3.52518167e-06
92259.799001,-0.00152457754,0.00650873992,0.00892526055,-0.00159082449,-0.000592890675,-2.01769779e-05
92259.809024,-0.000874093726,-0.000279696373,0.0164059717,-0.000400391387,-0.000449612635,0.000653602309
92259.819048,-0.0142555374,-0.00580874373,-0.00469293044,6.48628107e-05,-0.000447482118,0.000795548907
92259.829071,0.0179699056,-0.0137622783,-0.00663938833,0.000594565549,-0.00052391483,0.000507128551
92259.839095,-0.00350632594,-0.00436541305,-0.0174138803,-0.000194529066,0.000976776457,0.000146537214
92259.849118,0.00453448047,-0.0136539225,0.00473248503,0.000525323345,-0.00145761915,0.000991025134
92259.859142,-0.00830086218,-0.0207131934,-0.00439657784,0.000232641955,-0.000175839654,0.000993955075
92259.869165,-0.0218100901,-0.0421249791,0.0250709242,-0.0183540907,0.00564449919,0.0160053942
92259.879189,-0.0125161053,-0.0220329342,0.0340176162,-0.0331511468,0.0129463541,-0.0155559935
92259.889212,0.0224507317,-0.0517286738,0.0559506311,-0.0227134198,0.0111292795,0.00742309181
92259.899236,0.00835371453,0.0529123801,-0.0462945224,-0.012185944,0.00498536635,-0.00287029228
92259.909259,0.00811001685,0.0522042318,-0.046312058,-0.00078575084,0.00151020753,0.00152099425
92259.919283,0.0256579394,0.0432822358,-0.0469059323,0.00216796106,-0.00182699961,0.00312901068
92259.929307,-0.00913052707,-0.0195750197,0.0178906573,-0.00230748117,0.00115946923,-0.000450543934
92259.939331,-0.0107971017,-0.0140980496,0.00142526018,-0.000982558509,-0.00192234073,-0.000905145765
92259.949354,0.022286223,0.0045500984,-0.0112956897,0.00146462019,-0.00148904453,0.000878906003
92259.959377,0.00374729616,0.0091815028,-0.00216428874,0.00208673483,-4.18827546e-05,0.00100780291
92259.969401,0.00798710743,-0.0107964507,-0.00111448743,-0.000707720211,-1.09900863e-05,-0.00032404332
92259.979425,0.00174642979,-0.0226934622,0.0105549076,-0.000570567421,0.00161114136,0.000159852332
92259.989448,-0.00758544848,-0.00266604352,-0.0118913175,-0.00125473357,9.47374941e-05,5.5723018e-05
92259.999471,0.00275140786,0.00182213474,-0.00261378608,0.000823863744,-0.00106267225,0.000632031015
92260.009495,-0.00183931746,0.0037926311,-0.000967187913,0.000649692977,0.000264114511,-0.000448945784
92260.019518,0.0149147901,-0.0154528434,0.011005574,-2.0890971e-05,-0.00112871862,0.00133350783
92260.029542,0.0050497525,-0.00726670572,-0.00366066478,0.000966076527,-0.0007452235,0.000123899556
92260.039565,-0.00340228333,0.00120571988,-0.00934806277,0.00018763454,0.00200449034,-0.000896356874
92260.049589,-0.0116291869,0.00148738636,-0.000520028667,-0.000379618761,-0.00201848093,0.000203794925
92260.059612,-0.000154250452,0.000213457439,0.00666432988,-0.000706122295,-0.00188851859,0.000788092739
92260.069636,0.0199080592,-0.0144154815,-0.00171479141,2.70459191e-05,0.00224657157,0.000904206312
92260.079659,0.0120455046,-0.00838551715,-0.0059069824,-0.00213117994,0.000854004684,0.000521243676
92260.089683,0.00380216816,0.00215127537,0.00905443989,0.00101827442,0.000143207013,-0.00025613314
92260.099706,-0.00302848615,-0.0031555258,0.019980323,0.000397757939,-0.00033163467,0.00237799961
92260.109730,-0.00678161215,-0.00233670197,0.000229912917,0.000918405966,0.000453731555,0.00107118593
92260.119753,-0.00614405175,0.00076422319,-0.0217679839,-6.90941901e-05,-0.000137490235,-0.0001069958
92260.129777,0.00675408133,0.000591624835,-0.00291423033,3.07747407e-06,-0.00195829351,0.00108343655
92260.139800,-0.00210473607,-0.00776175922,-0.0121917618,0.000268860944,-0.000900752042,0.000449870839
92260.149824,-0.00263727432,-0.0184391293,-0.0111454676,-0.00198976606,0.000807665682,0.000663989349
92260.159847,-0.00368357307,-0.00388130106,0.00995109646,-0.000797735041,0.000314181947,0.000324968374
92260.169871,0.00139552257,0.00759626117,-0.0104007867,0.000135969216,-0.00109702711,0.000764390579
92260.179894,0.0146686219,0.00115424542,-0.000824564572,-0.000474959941,-0.000555606457,-0.000148008452
92260.189918,0.0121473643,0.00509942112,0.00111838619,-8.37411197e-06,0.000807399382,0.00108689921
92260.199941,-0.000309386215,0.0070584097,-0.00771373956,-0.000884021495,0.0011658609,-0.000449744859
92260.209965,-0.00575015478,-0.00463104172,0.00545436957,-8.37415805e-05,-0.00104323136,0.000774510331
92260.219988,-0.00134232088,-0.00111106916,-0.0160957835,8.13744105e-05,-0.000866929898,0.00131353376
92260.230012,-0.00215956696,-0.0075192557,-0.0066680299,0.000720799397,0.000267310287,-0.000672384971
92260.240035,0.00606581366,0.00297238249,-0.00995947266,-0.000795338224,0.000481428448,0.000278096772
92260.250059,-0.00243350223,-0.0189634819,0.000213546305,-0.000888016171,-0.0011763893,-0.000714729414
92260.260082,0.00197876811,9.90190128e-05,0.00365228858,-0.000502124175,-0.000898088925,-0.00092059175
92260.270106,0.0132706076,0.00294006939,0.00679467826,0.000978859686,0.000853738384,-0.000173308761
92260.280129,0.00186237062,-0.00956497272,-0.0089190237,-0.00134661262,0.000254527128,-0.000897422307
92260.290153,0.0150733622,0.00730871293,-0.00143831256,0.000653687769,-0.00144776552,0.00192286506
92260.300176,0.00253324648,0.00582241989,0.000207701086,0.000562341322,3.88111078e-05,-0.000390622639
92260.310200,0.0093812241,0.0117056692,-0.000988230701,0.00238048142,0.00189583328,-0.00105907662
92260.320223,-0.00775286377,-0.00460406238,0.0117315501,-0.000250189137,-0.000506870579,-0.000202869871
92260.330247,0.0124244506,-0.00508543442,0.000357923211,-0.000728759196,0.000139744938,0.000342012509
92260.340270,-0.00197673719,0.00700094389,-0.00682585081,-0.000202252233,-0.00108424401,0.00105014735
92260.350294,-0.0104876453,-0.0172782688,0.00349855932,-0.000154581672,0.00122178729,0.00122112235
92260.360317,-0.00015347185,-0.00673661743,-0.000244718857,-0.00189735442,0.000146136488,-0.000124306292
92260.370341,-0.00747962719,0.00200821363,-0.011170602,0.00177993854,0.00020552495,0.000521510034
92260.380364,0.00999320938,0.00203022454,0.00229736684,0.000380713717,-0.0021207462,0.000637889965
92260.390388,0.000450626956,-0.0164063448,-0.00668205843,-0.000924501548,0.00184390169,0.00129489148
92260.400411,0.0126708631,-0.00946828915,0.00109675888,0.000812145844,-0.000545752831,0.000948414332
92260.410435,0.012189128,-0.00100748092,-0.000546916674,0.00144251595,-0.000716461349,-8.99179373e-06
92260.420458,0.00418757814,-0.0184989879,0.00334366102,-0.000192664849,-0.000279170359,-0.000511797019
92260.430482,0.00150980574,-0.00405280344,0.00169589382,0.000349554719,-0.000112989117,0.00107384951
92260.440505,0.00551327836,-0.00222821836,-0.00548612664,0.000131441839,-0.000226173448,0.00108450198
92260.450529,0.00657011448,-0.00202241185,0.00768315153,-0.000670169634,-0.000125772218,0.00039500942
92260.460552,-0.00322012028,0.00333531579,-0.00638336774,0.000531448654,-0.000252538724,-0.0014886445
92260.470576,0.00955900095,-0.00339285996,-0.0105726361,0.000439036949,0.00093389953,0.00145494764
92260.480599,-0.00443988275,-0.0112485602,-0.00548320403,0.00110749035,-0.00166214992,0.00112285198
92260.490623,0.00337682802,0.00199056838,0.00349680576,0.0010792608,0.000501402174,0.000181690915
92260.500646,-0.00668759089,0.00705227222,-0.00219059223,-0.000862982453,-0.00115881245,0.000686359718
92260.510670,0.0024226143,0.00985341071,-0.00264067408,-0.000626227449,0.000482760006,0.00121845876
92260.520693,0.0103637415,-0.00618320306,0.0224978588,0.000107473394,-0.000755609842,0.0020251308
92260.530717,-0.0163031883,-0.00947115696,0.00992830011,-0.000204116449,-0.00144483604,-0.000550945164
92260.540740,-0.00177678504,-0.00767579797,-0.00713038672,0.00123159362,0.000659593949,0.00126746123
92260.550764,-0.00961069125,-0.00501072522,0.00678532591,0.000366066312,-0.000263724025,0.00215482678
92260.560787,0.00578401017,-0.00318069678,0.0144174282,0.000449689591,0.00115147977,-0.000526177571
92260.570811,0.00899890112,0.0049658396,-0.00937670434,-0.000551126353,-0.000133761801,-0.00103510811
92260.580834,7.73343809e-05,0.00557189747,-0.00264301217,-0.000125281827,0.000268556571,0.00113839855
92260.590858,0.000640044014,-0.00117173158,-0.00264301217,0.000770605539,-0.000778065659,0.0021333556
92260.600881,0.00686680272,-0.0045009856,0.0169583449,-0.000638739302,-0.000642777086,-3.03226057e-06
92260.610905,0.00911392178,-0.0152925931,-0.00294404094,0.0012603609,0.000557243228,0.000682731285
92260.620928,0.00382616324,-0.00501510913,0.00349271411,-0.000208905077,-0.00124065673,0.000451303213
92260.630952,0.00878292028,-0.00940278616,0.00289299465,-0.0012499347,0.000784410848,-0.000355368354
92260.640975,-0.0041750167,0.00460025769,0.0144133366,-0.0002933273,-0.00116848505,0.00124652324
92260.650999,0.0130213433,0.0120833983,0.00304087868,0.00066807385,8.71952946e-05,0.000668883449
92260.661023,-0.00400264896,0.0142335072,-0.00877932297,0.000649964341,-0.00050775487,-0.000603042417
92260.671046,0.0110724423,-0.00535064296,0.00618502193,0.0005069526,-0.00022146503,0.000502701974
92260.681070,0.0064473215,0.00303541952,0.00274394157,0.00104837325,-0.00193174697,0.000520545184
92260.691093,0.00925137576,-0.00436329416,0.00424207117,-0.000155908166,-0.000556224389,-0.000275207558
92260.701117,0.00890441863,0.00274425456,0.0144156747,-6.77575385e-05,0.00143182532,-0.000326606319
92260.711140,0.00643394372,-0.00562047288,0.00438644808,-0.00102116916,2.7274233e-05,0.00058605907
92260.721164,0.00979357233,-0.00206502715,-0.00384478918,0.0016635635,-0.000926403809,0.000535458452
92260.731187,0.00809750215,-0.0153931492,-0.00459356172,-0.00081956792,-0.00171922684,-0.000939133451
92260.741211,0.00920842253,-0.00712061178,0.00498032231,0.000256082849,0.000999594326,0.000198302916
92260.751234,0.00961769745,0.00755642235,-0.0044462622,0.00128273138,0.000452581022,0.00090350782
92260.761258,-0.00319330077,-0.00465422166,0.00198990833,3.18446896e-05,-0.00167315408,0.00204307459
92260.771281,0.00623890748,-0.00725119762,0.00707583329,-0.0012371516,-0.00119485032,-0.000266152308
92260.781305,0.00371307652,-0.00580178426,-0.00519561926,0.00104517754,-0.000524266404,0.000563422344
92260.791328,0.00633845202,-0.00022111632,0.00123996674,0.000555954778,-0.00160817291,0.000172203532
92260.801352,-0.000172804455,-0.00289782472,-0.01207778,-1.97745383e-06,0.000389730427,0.000947184055
92260.811375,-0.00224937098,-0.00936707553,0.0171009682,-0.000930888034,-2.81947694e-06,-0.000117282257
92260.821399,-0.00435161538,-0.000351976158,0.00273634278,3.23773188e-05,-0.000685387655,0.000158089339
92260.831422,0.00433845557,0.0111650596,0.0127620622,-0.00014791867,0.000910644754,0.00175705099
92260.841446,-0.00258706937,-0.0200937463,4.34504347e-05,-0.000210236665,0.000621958039,-0.0011220927
92260.851469,0.00958937097,-0.00151638029,0.00543040417,0.00157914121,-0.000820942587,0.000211884393
92260.861493,0.00898522422,-0.00936049966,-0.0102792061,0.00102120902,-0.000304822009,0.00135704422
92260.871516,0.00349158154,-0.00933443363,-0.00683695673,-0.000967373411,-0.000693377238,-0.00120092171
92260.881540,0.0178096987,0.0130346163,-0.0132731273,6.24710433e-05,0.000503713716,0.000409491486
92260.891563,-0.00603348122,-0.00911803267,0.00498558301,0.00252642781,-0.000895777499,0.000946651339
92260.901587,0.00102065453,-0.0159631676,-0.00144766491,-0.000498923336,0.000343924025,1.93381077e-05
92260.911610,-0.00542605566,-0.00809475404,0.00199224641,-0.000242460891,-0.000821741545,0.00117488404
92260.921634,-0.00488135661,0.00554838873,-0.00264535026,-0.000411837982,0.000415030445,-0.000612363094
92260.931658,0.0162064122,-0.00616846215,0.00483536089,-0.000863776347,-0.00190378401,-0.000275740274
92260.941681,0.0101154681,-0.0105047195,0.00229152162,0.00011227215,-0.000673669754,-0.00114845751
92260.951705,0.0048404617,0.00203849918,-0.000252902163,8.93689635e-05,-0.00100816275,0.000387121118
92260.961728,0.00735222532,-0.00333815236,-0.00848297037,0.0010592922,-3.98374538e-05,-0.000434997366
92260.971752,0.0208339441,-0.0153714488,0.00124581196,-0.000393462172,0.000152442765,-0.00111969548
92260.981775,0.00283377293,0.000457203067,0.00259196587,-0.00139134858,0.000814238316,0.000897382512
92260.991799,-0.00343348903,-0.00978016811,-0.00294637903,-6.74912239e-05,-0.00078339201,-0.000827547037
92261.001822,0.00105341515,-0.0110231356,-0.010729288,-0.000164163962,-0.0010505072,0.000278463713
92261.011846,-0.00410088517,-0.00951105058,0.00438469451,-0.000435007483,0.00239056336,-0.000754309692
92261.021869,-0.0112642808,-0.0109142684,0.00932156639,0.000372196685,-0.000274195583,-0.000845656605
92261.031893,-0.0037266633,-0.0118108702,-0.0168650143,6.75310498e-05,-0.000213741921,0.000896583437
92261.041916,0.00620327677,-0.00694704531,0.00123938222,-0.000216628244,0.000604381188,0.000880604736
92261.051940,-0.0105568998,-0.00574877543,0.0124622025,-0.000949796443,0.000919166822,-0.000386793972
92261.061963,0.00384885456,0.00494286058,0.00378555957,-0.000141793419,-0.000320001985,0.00156024344
92261.071987,-0.00399461178,-0.00580602205,-0.00983087785,-0.000196654518,-0.00106515457,-0.00141264299
92261.082010,0.00728957416,-0.00728979433,0.0118665747,-0.000107172318,-0.000450763167,0.000113347671
92261.092034,0.00369041944,0.0122523616,-0.00190183841,-0.000814774228,0.000583608562,-0.000670952597
92261.102058,0.0015074471,0.00841864693,0.00618034575,0.00112986596,0.000597989638,0.0032825094
92261.112081,0.00737352384,-0.00691624831,0.00992303941,0.000496033658,-0.000801501577,0.00216771023
92261.122105,0.00650498139,-0.0163949101,0.00288831847,3.58394305e-05,-0.000986058512,-0.00140438775
92261.132128,0.00362763586,0.00276995526,-0.022399852,0.000141833245,-0.00057859499,0.000824411525
92261.142152,0.00247151777,0.00130295144,-0.0104282592,-0.00124620627,-0.000581258107,-0.000523946122
92261.152175,0.00657282931,-0.011549936,0.000791053932,-0.000817437403,-0.0007655488,0.00070270536
92261.162199,0.00926784968,0.00473369308,0.00378322148,0.000606554872,0.000368691443,0.000753837763
92261.172222,0.00334441674,-0.000350788848,0.00393285909,-0.000422224266,-0.00152348449,0.00161137584
92261.182246,0.00610570043,-0.0124395235,-0.00489517501,0.00139671467,2.14152827e-05,-0.000443785326
92261.192269,-0.00359524405,0.00481125182,-0.00160197868,-0.000658979328,-0.000821475187,-0.000141250775
92261.202293,0.0142629363,-0.0109603178,-0.00174986272,0.000850500385,0.000349516675,0.00050776185
92261.212316,0.0127545616,-0.0166324086,0.00318876272,-0.000717036231,-0.000305620968,-0.000765761235
92261.222340,0.00811081829,-0.00490359331,0.018150185,-0.00080119211,-0.000359683079,0.000564754135
92261.232363,0.00141028175,-0.00524435131,-0.000256409295,-0.000386271605,-0.000332785202,0.00113813219
92261.242387,0.0117998638,-0.00207370365,-0.00609169132,0.000737848654,-0.000432121116,0.00118793373
92261.252410,0.00390744146,-0.00562377908,0.011566715,-0.000728221473,-0.00083425852,7.04714423e-05
92261.262434,0.00376118769,-0.00449168804,-0.00115423492,0.000781258181,-0.000444371617,-5.62955299e-05
92261.272458,0.011433122,-0.0127923738,-0.010729288,0.000750099213,0.000712239227,0.000772746406
92261.282481,-0.00508718366,-0.0138488971,-0.00504364357,-0.000533810738,-0.00184093324,-0.000250706323
92261.292505,0.00737948779,-0.00770292344,0.00737686206,-0.000151647103,0.00134021264,-0.000223807865
92261.302528,-0.0032428664,-0.0045724982,0.0046833852,-0.000703720414,-0.0011732788,0.000574074811
92261.312552,0.00944297336,-0.00664778837,-0.0102803752,0.000790845565,-0.0011112271,0.000527735925
92261.322575,0.00778698403,-0.00523244168,0.00812329652,-0.00144967184,0.000366560926,0.00131683064
92261.332599,-0.00473349997,0.00422601755,-0.0159712803,-0.00109919979,0.000163095407,0.00138287631
92261.342622,-0.00554845591,0.011119065,0.00213486976,0.00012691954,-0.00270459628,0.000620946414
92261.352646,0.0136623058,-0.00131588929,0.00752123897,-0.000652321419,0.000437400988,0.000482196114
92261.362669,0.0140710989,-0.00304802858,0.00677071286,-0.000423555882,-0.000644907602,0.000644115857
92261.372693,0.00833047294,0.00154108931,-0.00250798761,0.000418003029,-0.000258483007,-0.00136870133
92261.382716,0.00678122278,-0.0112708268,0.000785208713,-1.02332501e-05,-0.00101322286,0.000719483136
92261.392740,0.0147901088,-0.00735873138,-0.00669608695,0.000243033361,-0.000746640391,-0.000295979776
92261.402764,0.00599440837,0.00100086322,-0.00505065783,0.00078205714,0.000160432232,-0.000160957561
92261.412787,0.00743009688,0.000312917492,-0.00759332805,-2.19511653e-05,0.00047761474,0.00094185689
92261.422811,-0.00483660871,-0.0153150972,-0.00295573138,-0.000386005305,-0.00180178486,0.000923748254
92261.432834,0.0260265421,0.00156109092,0.00257969091,0.000991914267,-8.24480227e-05,-2.83325696e-05
92261.442858,0.00513386429,0.00190583097,0.00168303434,0.000389507235,-0.00201803366,0.00177649188
92261.452881,0.018197755,0.0003414312,-0.00115832657,0.000175389074,0.000399584111,0.00115863898
92261.462905,0.00411717751,-0.00133024661,-0.00714441524,-0.00199775029,0.00109120701,-0.000191850462
92261.472928,-0.00201298211,-0.00219069936,0.00362656962,-0.000752988891,-0.0013035075,-0.000521283471
92261.482952,0.0110699512,-0.0133976097,0.000634402065,0.000906160471,-1.69342526e-05,0.00133494021
92261.492975,0.0138595979,-0.00438906792,-0.00385414153,-0.00160972778,-0.000344503103,-0.00170346058
92261.502999,0.0125060347,0.0086262618,0.00437183503,-0.000602253983,0.000397187294,0.000671546101
92261.513022,0.00154993453,8.6798852e-05,-0.00909554931,0.00130962938,0.000329809307,0.000359423584
92261.523046,0.00770777674,-0.00839395618,0.0055701049,-3.6332241e-05,0.000441129422,-9.19819484e-05
92261.533070,-0.00288844749,-0.00920653294,0.00721436498,-0.000393462172,-0.00158580254,-0.000926882834
92261.543093,0.00239133324,-0.00326541592,0.00242479261,0.000266202862,-0.000114938608,-0.000557768964
92261.553117,0.00120916512,0.00717684844,-0.0105942634,-0.00114820203,-0.000621738159,0.000234255693
92261.563140,0.00487347348,-0.0208535882,0.00197354171,-0.000501586511,0.00045311368,-0.0004445844
92261.573164,0.00473993991,-0.00882505934,-0.00745596541,-0.00109200928,-1.61352943e-05,0.00227849803
92261.583187,0.0104664255,-0.00482124879,-0.00730749685,-0.000594993509,-0.00118462801,0.00152529183
92261.593211,0.0115535403,-0.0129266494,0.00451328933,0.000440177237,-0.00148290199,-0.00109552486
92261.603234,0.0019966668,0.00108996628,-0.00132374627,0.000449231992,0.000358141246,-0.000702975192
92261.613258,0.0120954606,0.00097445014,0.00152053725,0.000475330968,-0.000993945534,0.00142515743
92261.623281,0.0100294155,-0.00964830362,-0.011797794,-0.000603515634,-0.000131614055,-0.000208426141
92261.633305,0.0158674238,0.00180001424,0.00840152894,-0.00096543917,-0.0005116471,-6.86104083e-05
92261.643329,0.00748950348,-0.000878813043,-0.00641200932,0.000904366162,0.00076081125,-0.00067660945
92261.653352,0.0118236534,-0.0109759903,-0.00970228303,-0.000426681721,-0.0006775621,0.000251501924
92261.663376,0.00752410444,-0.00245389861,-0.00162185243,-0.000186198254,0.000606880509,0.000406231857
92261.673399,0.0112887496,-0.00228559284,-0.0103002489,-0.000158235061,-1.2038057e-05,0.000449374444
92261.683423,0.00931177102,-0.00989223191,-0.00416452265,0.00118559595,0.000656681645,0.000420612409
92261.693446,0.00930701037,-0.00819748376,0.0357857949,-0.00385709972,-0.00586326899,-0.00257650843
92261.703470,-0.0227768253,-0.00942174659,-0.0574396012,0.0042282573,0.00167534068,0.00255886478
92261.713493,0.0562825139,-0.00215915344,0.00391473891,-0.00141577974,0.00283035367,-0.00255573621
92261.723517,-0.0285162298,-0.00112188282,0.0133413234,0.000656159557,-0.00174149488,-0.000104030469
92261.733540,0.0424707183,-0.00682424091,0.0164866357,-0.00209461948,-0.00357588044,4.77704545e-05
92261.743564,-0.01020918,-0.0185027508,-0.0282555923,0.00161329967,0.00129291076,0.00105417905
92261.753587,-0.00100709529,0.0123370808,-0.00356831032,-0.00202724155,0.00225724127,-4.69374005e-06
92261.763611,0.00699101134,0.00208292284,0.00870372675,0.00109691274,-0.00199023414,0.00203075971
92261.773635,-0.00345458206,-0.00798141159,0.0140930186,0.000958428331,-0.00172791271,-0.0019245668
92261.783658,0.0142528031,-0.0119479589,0.0096021369,-0.000791268461,0.00104230734,0.00245899627
92261.793682,0.0054148572,0.0184135146,-0.0180808198,-0.000539866081,0.00101993686,0.000125534027
92261.803705,0.0269641768,-0.0152380499,0.0112522422,-0.000540665039,-0.0017771813,-0.000565822111
92261.813729,-0.0231834014,-0.00803023743,0.0247167039,0.000657757474,-0.000972374007,-0.000773548954
92261.823752,0.0246910762,-0.0173108376,0.00286902925,0.00164365974,4.57524878e-05,0.00142675465
92261.833776,-0.00854903282,-0.00474193648,-0.0143357881,0.000908893554,0.00173046823,-0.00050243909
92261.843799,0.0207000909,-0.0204102467,0.0197833392,-0.000960645536,0.00106281367,0.000666688322
92261.853823,-0.0134356153,-0.0199350121,0.0271126591,-5.96980985e-05,-0.000894609737,0.000170808411
92261.863846,0.00544000534,-0.0229933402,-0.0234625128,0.000664947982,0.00271610414,0.000970821953
92261.873870,-0.00652250228,-0.00123528006,0.0105028851,-0.00233856499,-0.00220808074,-0.000688327351
92261.883893,0.0138102127,-0.000153183916,-0.00326669703,-0.000613369318,-0.00126851759,-0.000516021498
92261.893917,0.0196057746,0.00720242128,0.0110990975,0.00228335099,-0.00202831732,0.00224328007
92261.903941,-0.0108932716,-0.0221903533,-0.0064061641,-1.54896274e-05,-0.000633353615,-0.000208159783
92261.913964,0.0239633784,-0.00849482274,0.0224715553,-0.000427214321,0.00033177597,-0.00156450725
92261.923988,-0.00207563327,0.0126755372,-0.0122420306,0.00141489421,-0.0015414915,0.00271758915
92261.934010,0.0223456456,-0.00218437922,-0.0022139731,-0.000233336186,-0.0002000573,0.000453902534
92261.944034,-0.00996158248,-0.00900638899,0.00930987595,-0.000566497657,1.6723978e-05,0.000805705911
92261.954057,0.02673954,0.00683598085,0.0139480571,-0.00101816984,-0.00126665331,0.00121689787
92261.964081,0.0019422195,0.000657255684,-0.0233128752,0.00040821931,-0.00107703627,0.00101343276
92261.974104,0.00655021334,0.00716557813,-0.016578014,0.00126815397,-0.000477025998,0.000329266428
92261.984128,-0.0151994512,-0.0141677538,-0.00894474266,0.000427394049,-0.000678893659,0.00021821273
92261.994151,0.000721950144,-0.00366374932,0.00317648776,-0.00112363095,0.000777322785,0.000198238655
92262.004175,-0.000665727655,-0.0204602598,-0.000415983771,0.000862820851,-0.000653859941,0.000801178752
92262.014199,-0.0100897389,-0.00238903494,-0.00161366912,0.00121835289,-0.00123309753,-0.000268880152
92262.024222,0.0128579146,-0.00208811577,-0.00685098525,-0.00024265727,8.83630567e-05,0.000530335247
92262.034246,-0.00138718065,-0.0116802478,0.00257559926,0.000766414413,-0.000494869207,-2.36023823e-05
92262.044269,0.0131523264,-0.0156003987,-0.000417737336,-0.00150046827,3.67451896e-06,-0.001439073
92262.054293,-0.012052826,0.00207041042,0.00287019829,-0.00027834363,-0.00100326668,-0.000367683233
92262.064316,0.0124434635,0.00629160831,-0.0236150731,0.00130943298,-0.000849602176,0.00174313843
92262.074340,0.00405443045,-0.00479671714,-0.00445795264,9.34336554e-05,9.31566904e-05,-0.00102601653
92262.084363,-0.00174346044,-0.00789713084,0.00152813603,-0.000996331838,-3.24963155e-06,-0.00022919836
92262.094387,0.0149705183,0.00434471202,0.00826124368,0.000323530773,-0.00111432037,0.00111942658
92262.104410,0.00570976219,-0.00462961694,-0.00236302619,-0.000475950198,0.000549089906,0.000495714261
92262.114434,-0.00181857835,-0.0206509053,-0.00520672518,0.000228722236,0.000363733896,-0.000801245556
92262.124458,-0.0015351309,-0.0282483747,0.0129005939,0.00146842372,-0.00101791405,-0.00167769181
92262.134481,0.0127958708,-0.0155222189,-0.00505591853,0.00011154315,-0.000624298831,0.000105294525
92262.144505,0.0133288635,0.00690950275,-0.0140347593,4.09693808e-05,-0.000167566715,-0.00131337146
92262.154528,0.0228724848,-0.00129884682,-0.00505533401,0.000726200719,0.000682247963,-0.000236921818
92262.164552,0.0181817902,-0.0059239128,0.00048125733,-0.000134532931,-0.000249325778,-0.000543984459
92262.174575,-0.00100156973,-0.00522526302,-0.000712920891,1.56693555e-05,0.000929921968,0.000836332454
92262.184599,-0.00304560168,-0.00958417061,-0.00984139924,0.00097573894,-0.000947606648,0.0014153031
92262.194622,0.0235871199,-0.00520801962,-0.020610046,0.00108865691,0.00158292904,0.000822217329
92262.204646,-0.00395545567,-0.00899705491,0.0236815157,-0.000570226091,0.000456411901,-0.000237720893
92262.214669,-0.0154688792,-0.0175939654,0.0158986067,-0.00236066924,-0.00374738769,3.12581053e-05
92262.224693,0.0177486367,-0.00491228808,0.00572149607,0.000194101149,-0.00140726812,0.000230196989
92262.234717,0.0106908454,0.00359073359,-0.0113377753,-0.00147330404,0.00191822099,-0.000201768116
92262.244740,0.0118994175,0.00327448898,0.00242888427,0.000403691919,0.000841504996,-0.000412956686
92262.254764,-0.000584524778,-0.00177601761,0.0299627879,0.000121130527,-0.00334658231,-0.000614558221
92262.264787,-0.00746563976,-0.00535727363,-0.00640265696,-0.0012903449,0.000490766703,0.000326070129
92262.274811,0.00391785098,0.00140336134,-0.0201722391,-0.000273017309,-0.0005228324,5.28303301e-05
92262.284834,0.013405977,0.00199471483,-0.00296449921,0.00128360031,-3.57402166e-05,-0.000208958858
92262.294858,0.0238982682,0.000562563138,0.00826007464,-0.000832547471,-0.000720438911,0.000361223831
92262.304881,-0.00356636502,-0.0115864138,-0.00625594197,-0.00032628052,-0.00076304948,-0.000727476426
92262.314905,0.0217230978,0.000779256362,-0.0146362323,0.000668410116,0.00185350618,-0.000760499262
92262.324928,-0.00480316539,-0.00773695358,0.00451738098,0.000238842264,-0.00222352696,0.000532997898
92262.334952,0.00560679958,-0.00456446102,-0.0108947077,-0.000188062471,-0.000262375237,-0.000228132927
92262.344976,0.0108170473,-0.00587581761,-0.0195731042,0.00167774813,-0.00113349514,0.000995323188
92262.354999,0.00376127217,-0.000767151096,-0.00730223615,-0.00129939957,-0.00154548617,-0.000196708241
92262.365023,0.0176844375,0.00613420752,0.0173850459,-0.00162190843,-0.000999005642,0.00043818926
92262.375046,-0.00663445192,-0.00863704422,-0.00446145977,0.00120929811,-0.000483683907,0.00121263707
92262.385070,-0.00628351502,-0.0183325819,-0.0076026804,-0.000755848459,0.00122153804,-0.000460094647
92262.395093,0.00966708042,-0.00640305636,0.000772349231,-0.00199048993,0.000717135365,-0.00230779579
92262.405117,0.0168424519,-0.000533470204,0.0173792006,0.000348564491,-0.00127810486,3.81824886e-05
92262.415140,0.0138515767,-0.00437978864,-0.00701055973,-0.000371554264,7.40295247e-06,0.00210133347
92262.425164,-0.00410682172,-0.0106851724,-0.0104528091,-0.00060697771,6.3595697e-05,-0.000302702063
92262.435187,0.0077277578,-0.00457394123,0.000919648747,-0.00143655242,0.000822330229,-0.000919756354
92262.445211,-0.000567454912,0.00629895137,0.00840035989,0.00143327001,-0.00192711725,0.000153497919
92262.455235,0.0197240467,-0.00273446911,-0.00745888802,0.00138453414,0.000193824279,-0.000857704193
92262.465258,0.00301529666,-0.00469099174,0.00540936138,-0.000677551472,-0.000334546916,-0.00132588843
92262.475282,0.00750279679,7.40124357e-05,-0.00267165374,9.05041802e-05,-0.000352390125,-0.000233193734
92262.485305,0.00364209364,0.00684217313,-0.00895584858,0.00291585173,-0.000530289267,-0.000655570873
92262.495329,0.000954621822,-0.0114895476,0.00316713541,0.000521936242,-0.000444269171,0.000549775674
92262.505352,0.0107173863,-0.00878443507,-0.0011723551,1.02196511e-06,0.000854288214,-0.000176467807
92262.515376,0.0102855297,-0.0110649838,0.00630894057,-0.000203508805,0.00118904757,-0.000433463478
92262.525399,0.00347712375,-0.00799134846,-0.00790838535,0.000493174148,0.000615935293,0.000700777522
92262.535423,0.00505162251,-0.0137042097,0.00406203843,-0.000960911778,-9.1400361e-05,-0.000788994939
92262.545446,0.00880686969,-0.0124951079,-0.0114996878,7.79873212e-05,-0.000574497753,-3.93156568e-05
92262.555470,-0.00130839349,-0.0145685166,-0.0213751852,-0.000110298164,-0.00186746255,0.000513291112
92262.565494,0.00693116406,-0.0148222174,-0.000877756063,-0.00384112055,0.00194192315,-0.0017314878
92262.575517,0.0175885804,0.00105228288,0.00135979373,-0.000570226091,0.00128492129,-0.00132269213
92262.585541,0.00720394399,0.00485010426,-0.0312594503,0.00119979885,0.000345999943,0.00133781613
92262.595564,0.00366631933,-0.0146257998,-0.00043118134,0.000471690632,-0.00273527754,0.000946065537
92262.605588,-0.0241223605,-0.0442947792,0.0109401075,-0.00095602996,-0.000293158707,-0.000887521417
92262.615611,-0.0197661997,-0.0150189638,0.00330391354,-0.00162554874,0.00195588089,-0.00114504887
92262.625635,0.00630163627,0.0224862622,-0.00896753902,-0.00019915963,0.000580624488,0.000317293345
92262.635658,-0.000869038525,-0.00633229268,0.0139281834,0.000545726527,-0.000886510955,0.00100678497
92262.645682,0.0017533687,-0.00280605478,0.011835595,0.000768899414,0.0001670356,2.59430474e-05
92262.655705,0.0061327163,0.00954324878,0.000162108378,0.00153588977,0.000606989765,0.000335402912
92262.665729,0.024509637,0.0140679414,0.00659769438,0.000757181514,-0.000242025955,-0.000398032242
92262.675753,0.00890445517,0.0173942728,-0.00701874304,0.000744132054,-0.00200823428,-0.000511483164
92262.685776,0.000581299564,-0.000533159677,-0.0327558264,-3.96362825e-05,-7.98395046e-05,0.000362034081
92262.695800,0.00938561943,-0.0108642188,-0.0230293821,-3.75057511e-05,0.00298758956,0.000280275135
92262.705823,0.0106557467,-0.00818199393,0.00570162233,-0.000230052299,0.000629094008,0.000590799502
92262.715847,-0.00824778028,-0.0414072593,0.0148330233,0.00150819294,-0.00442079188,0.000818233131
92262.725870,-0.0126508261,-0.0511793328,0.00959746072,-0.00145004647,-6.86886749e-06,-2.89183715e-05
92262.735894,-0.022763532,-0.00840279707,0.0272470992,-0.00400428408,0.00327361292,-0.00304201885
92262.745917,-0.0418441166,0.0890703197,0.0104783352,-0.00342344869,0.00151086667,-0.00383777066
92262.755941,0.000822912601,0.126209781,0.0130157447,-0.000427658824,5.06554355e-05,-0.000199892432
92262.765964,0.00539099455,0.0400098814,-0.0478791612,0.00484193834,-0.000709943371,0.00404598483
92262.775988,0.0184051027,-0.140938222,-0.0194304808,0.00484673186,-0.004662607,0.00662818564
92262.786012,-0.00147443196,-0.26451563,-0.0207696205,0.00186931757,-0.00172274363,0.0055067289
92262.796035,7.75444434e-05,-0.288520044,0.0184266639,-0.00814549978,0.00134628335,-0.00417918792
92262.806059,0.0137159813,-0.105770444,0.0308132672,-0.0154604044,0.00575887492,-0.00737178499
92262.816082,0.102203814,0.117345598,-0.0139652012,-0.0210860658,0.0101200676,0.000932483128
92262.826106,0.136523085,0.17106811,0.101483717,-0.0339616507,0.0118593777,-0.00334402068
92262.836129,0.0782373113,0.25722934,-0.096246594,-0.0009323278,0.000622436099,0.00363479288
92262.846153,0.0724238667,0.201597122,-0.168492915,0.0112180786,-0.000418859897,0.00671953255
92262.856176,-0.139093115,-0.0541138519,0.131385519,-0.0057771502,0.00114867672,-0.00154185934
92262.866200,-0.0931934787,0.0258704065,-0.00358935311,0.00590134385,0.000881828004,0.00401242882
92262.876223,-0.0735821482,-0.00486691457,-0.0182398098,0.00274709539,-0.00217441576,0.000443793028
92262.886247,-0.102038163,-0.150012796,0.00989615141,0.00114147559,0.00218224955,-0.00349155987
92262.896270,-0.0454371681,-0.218697863,-0.0236226718,0.000111897584,0.00202911776,-0.00392245954
92262.906294,-0.0335789588,-0.27182219,0.044159071,-0.00530257522,-0.00137147251,-0.0027256346
92262.916318,0.0190756384,-0.171405256,0.0128655226,-0.00915350559,0.00297054519,-0.00486415333
92262.926341,0.0498391419,0.0482127511,-0.029648508,-0.00217842105,-0.000918735182,-0.00178926705
92262.936365,0.036757969,0.170469833,-0.00615891134,-0.00181489954,0.00462063948,-0.00533792923
92262.946388,0.000705147423,0.204899123,0.0527912903,-0.000879863606,0.00137744226,-0.00787006306
92262.956412,0.0369227174,0.19708359,0.0138878514,0.00220460953,-0.00178612665,-0.002871842
92262.966435,0.0824000388,0.10446659,-0.0241154238,0.00225227998,0.000212309286,0.00204701595
92262.976459,0.13753102,-0.0233105347,-0.0444544475,0.00587284771,-0.0013469715,0.00815524267
92262.986482,0.133070205,-0.123396738,0.0170512839,-0.00128599574,0.000479424358,0.00394611632
92262.996506,0.0473563988,-0.0360171455,0.017496105,-0.00085988988,0.000196330351,0.00303930988
92263.006529,-0.0163561264,0.0348331546,-0.0486378706,0.00548748831,-0.000332040843,0.0032212037
92263.016553,-0.152184286,-0.036880667,0.00598628449,0.00236146963,-0.000664136969,-1.82649726e-05
92263.026577,-0.173072962,-0.123763507,0.026787665,-0.000941382584,-0.000101411031,-0.00246570992
92263.036600,-0.147277143,-0.115192444,0.0459383556,-0.00531882028,0.00178357433,-0.00547055515
92263.046624,0.00169831405,-5.17876348e-05,0.0177930421,-0.00519418418,0.00092710169,-0.00564392644
92263.056647,0.0882434036,0.143196827,-0.0405720531,-0.000753097099,0.00135294114,-0.00175384699
92263.066671,0.143951052,0.120002159,-0.00764768859,0.00161791508,0.00202192726,0.000974294855
92263.076694,0.0502747157,0.0313680358,0.0119571756,0.00201978624,-0.00216429554,0.0016984084
92263.086718,-0.00784560639,0.00422103085,0.0106127752,0.000420291638,-0.000913941432,-0.00151815719
92263.096741,-0.0637938999,0.0114573388,-0.00659788728,-0.000925137292,0.00196893034,-0.00343483488
92263.106765,-0.056189051,0.0126013577,-0.021558725,0.00222351794,0.000731625696,-0.00442473205
92263.116788,-0.0670412889,-0.0576214947,0.0206414173,-0.000447099891,0.000201922944,-0.00642343412
92263.126812,-0.0468937236,-0.0649974668,0.0356005015,-0.00312650627,0.000149192391,-0.00449370767
92263.136835,-0.0276854621,-0.0146803247,-0.0357801426,-0.000770940308,0.00154815089,0.000145785636
92263.146859,-0.00808119839,0.0137621817,-0.0122864543,0.00156651608,-0.000471324092,0.00140679175
92263.156883,0.000925888918,-0.0367121786,-0.0128779905,0.00121923986,0.000158779775,0.00626466436
92263.166906,-0.0324752285,-0.0924719867,0.0254304051,-0.000733922332,-0.00300665329,0.00156045671
92263.176930,-0.0296920435,-0.0945799918,0.0234810246,-0.00340800247,0.00312127998,-0.00246943893
92263.186953,0.00972751678,-0.000431525934,0.00940398398,-0.00446900566,0.00267253756,-0.00493073265
92263.196977,0.028610654,0.0796249939,-0.000924517815,-0.00171689518,-0.00100768487,-0.00448704964
92263.207000,0.0187306677,0.0798616705,-0.0122987293,0.00176891634,0.0011113925,-0.00306545465
92263.217024,0.0267987092,0.0215129236,0.0278041485,0.00332713193,-0.004586707,-0.00347638024
92263.227047,0.0904608422,0.000956074234,0.0309447847,0.000822961584,-0.00327296964,-0.00331712315
92263.237071,0.0969470533,-0.0149322171,0.00356402578,-0.00276990914,0.00159182677,0.00163688942
92263.247094,0.0371917755,-0.0601559085,-0.0401272319,-0.00249453824,0.00041870428,-0.000329854772
92263.257118,0.0622161052,-0.0317628673,-0.019781194,0.0028682693,-0.00245830872,0.000372420191
92263.267141,0.0454353951,-0.0376372027,-0.0187308081,-0.000181050121,0.00147704453,-1.56023214e-05
92263.277165,-0.024890372,0.00391992901,0.021969451,0.00129380842,-0.00448896935,0.00255168521
92263.287189,0.00467945788,-0.0623089401,-0.0317457725,0.00318465285,-0.00111900493,0.000697592399
92263.297212,-0.108172154,-0.14196214,0.0261669027,-0.00130517051,-0.0017781373,-0.000344236256
92263.307236,-0.058408097,-0.133281807,0.00850615835,-0.00150197806,0.00495353514,-0.000241970518
92263.317259,-0.0477802698,-0.0568561363,0.0304982099,-0.00192595324,-0.000347753419,-0.00109205196
92263.327283,-0.0613807424,0.0147338397,0.000414621835,-0.00274407635,0.00139821494,-0.00515949807
92263.337306,-0.0072083725,0.0883817346,-0.049862444,0.00215187898,0.00204589577,-0.00185398186
92263.347330,-0.0505021279,0.0442051776,0.00745168086,0.000366495768,-0.000499021043,-0.00345187901
92263.357353,-0.082074959,0.00156790426,0.0189737764,0.000455977998,-0.000327513451,-0.00445828761
92263.367377,-0.0936112657,-0.0535903212,-0.0134958301,-0.000841514071,-0.00240797493,-0.00442286754
92263.377400,-0.0284174776,0.0037141773,0.00564959988,-0.00449909949,0.00419986049,-0.00790228682
92263.387424,0.0678142449,0.11415146,0.00280765445,0.00477216319,0.00369226198,-0.00551636132
92263.397447,0.0400889377,0.127824925,0.0393244905,0.000738006746,0.000272230464,-0.00692543934
92263.407471,-0.00724067647,0.133909177,0.0261546278,0.00106451028,-0.0016982424,-0.00547508231
92263.417495,0.0303813649,0.120643196,-0.0247116361,0.00448640595,0.00493675737,0.0015404831
92263.427518,-0.0485375407,-0.0245254634,0.00253351368,0.00171298996,-0.0040380956,0.00394025737
92263.437542,-0.0713848483,-0.133526174,0.0191497174,-0.000235112291,0.00333566462,0.00249629154
92263.447565,-0.105122913,-0.168684362,-0.00164990948,0.000241327207,-0.00409588603,0.00394265413
92263.457589,-0.126911286,-0.111519363,-0.0157193514,-0.00492547154,0.00523902556,0.000412101983
92263.467612,-0.064658659,0.00549707866,0.0137522423,0.00342247305,0.00340490682,0.00407101832
92263.477636,-0.156443843,-0.0188113053,0.00972605554,0.0038712157,-0.00224392409,0.00585480373
92263.487659,-0.182525155,-0.0344878353,0.0194495772,-0.00386500083,0.00330716871,0.0036478421
92263.497683,-0.162039252,-0.0220846279,-0.0326202173,0.00629415988,-0.000414865106,0.0103749867
92263.507706,-0.188515336,-0.0683713637,-0.0204931416,-0.00121941666,0.0014464181,0.00920719107
92263.517730,-0.157942503,-0.0470837158,0.0354608008,-0.00466687865,0.00129195476,0.00433200843
92263.527753,-0.0770942435,0.0416047128,-0.0232018161,-0.00115922924,-1.3793018e-05,0.00466730039
92263.537777,-0.0649145243,0.103226088,-0.0510344104,0.000201912428,0.00682387302,-0.000662750439
92263.547800,0.0064539145,0.172900531,0.018991312,0.0031060895,0.00871871212,-0.00463432247
92263.557824,0.000447457751,0.165669813,0.0427947969,0.00735356539,-0.00324687072,-0.00528892769
92263.567848,-0.122996104,0.0698811054,0.0157179894,-0.000279853391,0.00481531663,-0.00312377779
92263.577871,-0.206479575,0.0131806554,-0.0131492086,0.00696767327,0.00401690124,0.00106750534
92263.587895,-0.336564757,-0.111053773,-0.00714499976,0.00464767796,-1.71129502e-05,0.00799774531
92263.597918,-0.46269742,-0.19279262,-0.0105790659,-0.00145122704,0.00641575256,0.0112385462
92263.607942,-0.469526061,-0.143369742,-0.0192726599,-0.00973632074,-0.00662734466,0.00852292044
92263.617965,-0.281490301,0.0344287933,-0.134063407,-0.00448909476,0.0118605856,0.00827870903
92263.627989,-0.0411651762,0.129143168,0.00360435779,0.0035965284,0.00579017621,0.00677375648
92263.638012,-0.154548915,-0.0113769723,0.14891007,-0.000154533912,-0.00945455687,0.00125142572
92263.648036,-0.229154074,-0.00637441479,-0.00717247229,-0.00677062505,0.00679205717,-0.000569111542
92263.658059,-0.171558684,0.154992753,-0.0505720536,-0.000340955195,0.00707142321,-0.00169482908
92263.668083,-0.243486733,0.246204417,-0.0311127353,0.0034652345,0.00115387897,-0.00175794667
92263.678106,-0.291389891,0.193430237,0.0347289794,-0.00117132875,0.00233019736,-0.00556626624
92263.688130,-0.297815815,0.152029154,-0.0240768453,0.000443878371,0.00273393244,-0.00268153089
92263.698153,-0.299509412,0.0966202053,-0.0550489067,-0.000988635971,0.000964261926,-0.00449940457
92263.708177,-0.282436952,0.0598735609,0.00196126675,-5.33337966e-05,0.000821516486,-0.00182905222
92263.718201,-0.265286404,0.0299827189,-0.0017785043,0.00121566254,0.00176107975,-0.000725705051
92263.728224,-0.314972957,0.00549970901,-0.00162711313,0.000753337654,0.00277547781,5.59325656e-05
92263.738248,-0.364641206,-0.0406730268,0.0151340521,-0.000475444869,0.00182286509,-0.000640483447
92263.748271,-0.400589412,-0.0158427013,0.00749844262,-0.00163045774,0.00346230702,-0.00374839256
92263.758295,-0.410532458,0.0626346779,-0.0121052525,0.00244684164,0.00302554863,-0.00289831205
92263.768318,-0.401318128,0.0656644375,-0.00730808137,0.00211767499,0.00087824183,-0.00324692006
92263.778342,-0.42136606,0.00405897215,0.0369858184,-0.0012576152,-0.00189970156,-0.00460672925
92263.788365,-0.385803822,-0.0179267958,0.00227047883,0.00185162535,-0.000539625078,-0.00107537849
92263.798389,-0.408114511,-0.10414677,-0.0122332628,0.00631321893,-0.00212660259,0.00622248197
92263.808412,-0.483282016,-0.236364836,-0.0108777566,0.000501935274,-0.00343101904,0.00888937165
92263.818436,-0.515188253,-0.268706688,-0.00609344489,-0.00339373671,0.000944021959,0.00999884413
92263.828459,-0.458628417,-0.203678226,-0.0028066783,-0.00245497263,0.00375046102,0.0129930369
92263.838483,-0.427640574,-0.075873556,-0.0257082459,-0.00231595551,0.00676249653,0.0146745566
92263.848506,-0.408320408,0.0670907623,-0.00387050814,-0.0110396722,0.00507112253,0.0123368335
92263.858530,-0.324784084,0.107265701,-0.0356001099,0.00603305428,-0.00738075295,0.0251658141
92263.868553,-0.353779146,-0.155725018,-0.0574302489,0.0109615011,-0.00603186213,0.0285469621
92263.878577,-0.390508017,-0.451021093,-0.0125249392,0.00270490205,0.00296030111,0.0254329286
92263.888601,-0.405172977,-0.552674637,0.113618392,-0.00425606853,0.00369773047,0.0255138885
92263.898624,-0.415403499,-0.457696187,0.115101908,-0.00813150014,0.000249735764,0.0203550785
92263.908648,-0.408156779,-0.171650098,0.0383167747,-0.00831898655,0.00524236388,0.0194112539
92263.918671,-0.397329022,0.125373531,-0.0227587485,-0.00683533986,0.00573664658,0.0210688069
92263.928695,-0.408334437,0.220857465,-0.0781234928,0.00632680087,0.00161380692,0.0214323282
92263.938718,-0.443588085,0.0395088731,0.00389428064,0.00498057316,-0.000977715026,0.0198360301
92263.948742,-0.478312886,-0.147768543,0.0499885078,7.34326664e-05,0.00251981417,0.0147698979
92263.958765,-0.468666814,-0.156769888,0.011673098,-0.00540176014,0.000549075121,0.0114987373
92263.968789,-0.453962764,-0.0990214266,-0.00419667135,-0.000436296375,0.00263006926,0.013950443
92263.978812,-0.452117428,-0.0530504239,-0.0641966743,0.00185934858,0.000385024396,0.0139853304
92263.988836,-0.493011931,-0.0432177063,-0.00538149722,0.00419733739,0.00316403281,0.0120028734
92263.998859,-0.47602167,0.0162159497,0.0353246072,0.00178105159,-0.00136147674,0.00864276303
92264.008883,-0.428642043,0.112233863,0.00809699303,0.00369879367,-0.00332928602,0.0083010794
92264.018906,-0.341427869,0.175346719,-0.0837658826,0.00709592198,0.00120234849,0.0104451907
92264.028930,-0.310765057,0.190569568,-0.066085849,0.0098022271,-0.00205922466,0.0101834015
92264.038953,-0.28625768,0.16042561,-0.0373297101,0.00863869135,0.000484360309,0.0111264271
92264.048977,-0.263581171,0.167265247,-0.00348530821,0.00989224129,-0.00212686894,0.00745153114
92264.059001,-0.250282239,0.253652723,-0.0133409318,0.00405112999,3.21555274e-05,0.00673407515
92264.069024,-0.247968299,0.380352793,0.0138995418,0.000793285106,-0.00369813399,0.00312309538
92264.079048,-0.150240806,0.539289775,0.0417175231,-0.0102489794,0.00924669286,0.00213852491
92264.089071,-0.092302439,0.671716205,0.117560407,-0.00471599613,-0.00360039588,-0.00136805965
92264.099095,-0.00293774198,0.533986517,-0.0130632839,0.0108914601,-0.00381877519,0.00873810438
92264.109118,-0.00725024459,0.0798748953,0.0614533202,-0.00826971772,0.00659551598,0.00235956687
92264.119142,-0.172254978,0.0793292259,-0.0115873661,-0.00318947229,0.00986800889,0.00271563151
92264.129165,-0.166825847,0.143413302,0.0617292145,-0.00321770184,0.000281693749,0.00224931225
92264.139189,-0.167440764,0.00474693615,0.168401537,-0.00939996335,-0.00824335137,0.000723587475
92264.149212,-0.0990647636,-0.0906735041,-0.0894386676,-0.00104163288,0.00597473314,0.00378995075
92264.159236,-0.151268103,-0.0939694769,-0.088248581,-0.00397457209,0.0146965858,0.00539796765
92264.169259,-0.208829864,-0.143651335,0.0699113519,-0.000983575862,0.00508683534,0.0114057931
92264.179283,-0.238847657,-0.340395467,0.132614184,0.00415552567,-0.0107073077,0.0144588399
92264.189306,-0.277405753,-0.490507154,0.0295162132,-0.000201405544,0.000554667772,0.0222515158
92264.199330,-0.328866275,-0.435429045,-0.0786787886,-0.00563318915,0.00927012866,0.0207436337
92264.209353,-0.360022095,-0.250312277,-0.0644743222,-0.00375060042,0.00237600353,0.0238230481
92264.219377,-0.267030928,-0.017614515,-0.0918615108,0.00143963432,0.00707568401,0.0254526354
92264.229400,-0.233392625,0.0789946784,-0.0158263189,0.00805066545,0.00900993763,0.0282966244
92264.239424,-0.256671008,0.0363476873,0.0352199778,0.00573930769,0.000256127431,0.0292180787
92264.249447,-0.261402201,-0.0668998664,0.0837183435,0.00665809839,-0.00673893107,0.0278659921
92264.259471,-0.180361328,-0.0606255353,0.00636330111,0.00346390294,0.0067518436,0.0209194041
92264.269495,-0.172293063,0.0635355357,-0.186807739,0.00465779818,0.00913510645,0.0207676023
92264.279518,-0.158788854,0.149155535,-0.0860969559,-0.00216601956,0.00190622207,0.0162412945
92264.289542,-0.077832554,0.217819833,-0.0153230455,0.000384489881,-0.0022690819,0.0154458081
92264.299565,-0.0308254954,0.10891913,-0.0633555473,-0.00179477482,-0.000683702077,0.0170785926
92264.309589,0.00237610228,0.00945533304,0.0485587673,-0.00566354887,0.00179117346,0.0169630117
92264.319612,0.0935303219,-0.0304638405,0.0895565481,0.00267720521,-0.00456552547,0.0179140262
92264.329636,0.1223224,-0.0945447013,0.113509086,0.00545887669,0.00600615876,0.0201654612
92264.339659,0.0321600376,-0.194984029,0.104400481,0.00977293235,0.00181034823,0.0194485403
92264.349683,-0.128196869,-0.187879275,0.0725370242,-0.00290984036,-0.0109054466,0.022127147
92264.359706,-0.155076683,-0.0220384324,-0.0489833231,-0.00460094753,-0.00755252702,0.0210333868
92264.369730,-0.029097393,0.147274434,-0.26999631,0.00419227752,0.000202331561,0.0234989404
92264.379753,0.0696561053,0.172519788,-0.07695328,0.00369346743,0.0085998111,0.021110085
92264.389777,0.0604050965,0.143965273,0.204669951,-0.000736434632,0.00296616006,0.0162197232
92264.399800,0.0850436669,0.0628773641,0.231892304,-0.00724306963,-0.022596459,0.0126433635
92264.409824,0.213799062,-0.098499686,-0.0659005556,0.000238282335,-0.00945988311,0.00820760255
92264.419847,0.295216111,-0.174819156,-0.37535112,0.0031877332,0.025028319,0.00864329574
92264.429871,0.188406244,-0.125046332,-0.12096018,-0.00337056726,0.0178676107,0.0111991308
92264.439894,0.0726658268,-0.0397047115,0.165734948,-0.00259825056,-0.0030597743,0.0154782991
92264.449918,0.0452280359,-0.0575882683,0.163023935,-0.0115320904,-0.00588751877,0.0127062138
92264.459941,0.0938991461,-0.031116788,-0.0252400439,-0.00452344985,0.00713107768,0.0147374069
92264.469965,0.0789638994,0.0798435686,-0.0454469656,-0.000156131829,0.0115732307,0.0107333447
92264.479988,0.0316208801,0.202970785,0.135905042,-0.00246242927,0.00081246176,0.0146380711
92264.490012,0.011586688,0.199476403,0.120794567,0.000332824557,-0.00251009794,0.0118936832
92264.500036,-0.0200484301,0.102426371,-0.0277944046,0.00243166178,-0.00241582202,0.00820999885
92264.510059,-0.0799753381,0.0320604202,-0.173687561,0.00145161858,0.00164496583,0.00737589703
92264.520083,-0.122615671,0.0084133497,-0.0895953194,-0.00277135595,0.00801870959,0.00728561602
92264.530106,-0.0215775188,0.010387408,0.117645163,-0.00341664002,-0.00577247016,0.00562300452
92264.540130,0.0258718744,-0.00290509471,0.0833670458,-0.00238280095,-0.00427444199,0.00295212039
92264.550153,0.0340944945,-0.0439670633,-0.1099624,0.00360052307,0.00643972108,0.00515242399
92264.560177,0.0416420398,-0.0616158798,-0.00671245357,-7.91664583e-05,0.00658406444,0.00299046993
92264.570200,0.0679913687,-0.0402528651,0.0317479177,0.000334422474,-0.00116626687,0.00414335228
92264.580224,-0.00454480785,-0.0295186138,-0.12567201,-0.000196345552,0.00644078651,0.00453803282
92264.590247,-0.0961890621,-0.0374231581,-0.122084215,-0.00320454993,0.00826675618,0.00731004741
92264.600271,-0.0993115141,-0.0956411913,0.0625644963,-0.0011584432,-0.000594645753,0.00984005084
92264.610294,-0.111903915,-0.205289899,0.0835067465,-0.00453639663,-0.00864564734,0.0116027967
92264.620318,-0.088873524,-0.227885031,0.0100148094,-0.00836202669,0.00616525566,0.0108270181
92264.630341,-0.0755922779,-0.115732049,0.0304970409,-0.00393398971,0.0023822357,0.0131170704
92264.640365,-0.119935574,-0.0211135544,0.0553263617,-0.0051776858,0.000944128711,0.0143242806
92264.650388,-0.18106997,-0.0152474388,0.0765597039,-0.00669595393,-0.00558567619,0.0141343979
92264.660412,-0.192626936,0.00576648846,-0.057821294,0.000379266063,-0.00201118099,0.00969597337
92264.670435,-0.203392386,0.078312724,-0.0497496313,-0.00614494578,0.00990539962,0.00275124808
92264.680459,-0.209423702,0.215582082,0.0169776341,-0.00270174494,-0.00293556428,-0.00170635047
92264.690482,-0.164700909,0.27337241,0.0168250739,0.00114332695,-0.00360694727,-0.00379746488
92264.700506,-0.0641697475,0.161578251,-0.0681655779,0.00171564027,0.0117293986,-0.00392795993
92264.710529,0.0185932137,-0.0143151081,-0.0216142546,0.0102715783,0.0108777199,-0.000810462856
92264.720553,-0.042648268,-0.21642758,0.127292112,0.000759032866,0.00384777306,0.000215386166
92264.730577,-0.118829275,-0.186631759,-0.0259408856,-0.00226711718,0.00666965857,0.00163058996
92264.740600,-0.111113139,-0.0370307978,-0.154771848,0.00660680207,0.00471516499,0.00379494125
92264.750624,-0.146773075,0.105146389,-0.0775471542,0.00414710651,0.0172389456,0.00342050068
92264.760647,-0.141862543,0.193646784,0.161882364,0.00187889203,-0.00303250331,0.00214884117
92264.770671,-0.0864731118,0.143662545,0.140637916,-0.000259626287,-0.00790635416,0.00173232298
92264.780694,-0.0441115775,0.0738563657,-0.123777575,-0.00337153002,0.00775835883,-0.0022645489
92264.790718,-0.01926618,0.154281518,-0.16867587,0.00285600588,0.00960046785,-0.00234257976
92264.800741,-0.0624800043,0.0935731841,0.000872302474,0.00240832843,0.0049178315,-0.00105174525
92264.810765,-0.1344949,-0.110592348,0.0634190673,-0.00500245,-0.00743284415,-0.000385955782
92264.820788,-0.0777921672,-0.233996408,0.0233021609,-0.00672711319,-0.00842780074,-0.00152845109
92264.830812,-0.0423599754,-0.213523785,-0.0989640363,-0.00245806579,0.00774530914,0.000883573792
92264.840835,-0.0996570304,-0.121353085,-0.0208543762,0.00193401946,0.00537110107,-0.000934832604
92264.850859,-0.0908082093,-0.0639455283,0.21123647,-0.000343782166,-0.0113295812,-0.00123949895
92264.860882,-0.0322870764,-0.0899568438,0.150937776,0.00408212534,-0.00566184254,0.00161248086
92264.870906,-0.00736369777,-0.0371490174,-0.0335577904,0.00269808034,0.0129901393,-0.000528966882
92264.880929,-0.0815887464,0.0930003161,0.0152340053,0.00461395849,0.00413033446,-0.00193138781
92264.890953,-0.130005507,0.188665488,-0.0339909211,-0.00143834137,-0.00856362203,-0.00573118577
92264.900976,-0.112244381,0.190454144,-0.143384193,-0.00564853269,0.00388745438,-0.00517645
92264.911000,-0.0194104199,0.0847641287,-0.111807736,0.00543927188,0.00176331714,-0.000482894354
92264.921023,-0.108073652,-0.193299949,0.0483156062,0.00279608458,-0.00568501199,0.00223832357
92264.931047,-0.15610188,-0.351456776,0.0896120777,-0.00568901262,-0.00580538683,0.0040428812
92264.941071,-0.1043065,-0.264204061,0.092157086,0.00190312679,-0.00631777909,-0.000175831714
92264.951095,0.0437342628,0.0255872787,0.0598371171,-0.00159813107,0.0128641714,-0.00502864445
92264.961118,0.113378046,0.371322661,0.128518439,0.00367199835,-0.00348657243,-0.00617806415
92264.971142,0.0246053136,0.481963594,-0.0534186752,0.01254938,-0.00487407915,-0.00946120905
92264.981165,-0.0252124801,0.229780813,-0.198399393,0.00260167402,0.0140988136,-0.0153824816
92264.991189,0.0248800412,-0.0406453898,0.0586961304,0.0113794535,0.00573888361,-0.0155254946
92265.001213,0.0259029522,-0.191199524,0.159866348,-0.0020905496,0.00365256365,-0.0152714288
92265.011236,-0.0199768376,-0.173454572,-0.0201617177,-0.00866083409,-0.00231664548,-0.0147507804
92265.021260,0.0538622782,-0.0915734304,-0.144068083,0.00358491294,-0.0065287013,-0.00719113077
92265.031283,0.145647499,-0.129930378,-0.197025767,0.00196784172,0.0175566607,-0.00415725807
92265.041307,0.158752535,-0.264906985,0.0236891144,-0.00224581178,-0.0102834917,0.00207666972
92265.051330,0.0862653085,-0.237639478,-0.0699974695,-0.00722539033,-0.0167491149,0.000954945697
92265.061354,0.0271757258,-0.034090945,-0.444857787,-0.00715934419,0.00105944356,0.00130541821
92265.071377,0.0952773483,0.0908580068,-0.274412373,0.0136087855,-0.0191046792,0.00203858654
92265.081401,0.201113402,0.0858388452,-0.131328429,0.0136095846,-0.0117500947,-0.00234391155
92265.091424,0.159097275,0.126992693,-0.000957835562,0.0158453073,-0.00490550477,-0.00734745885
92265.101448,0.196597076,0.201839972,0.279065559,0.0201385889,-0.0152071446,-0.0167691902
92265.111471,0.260643614,0.342550886,0.437426567,0.016976352,-0.0134992582,-0.0230095097
92265.121495,0.299250244,0.318418753,0.216165743,0.0219793666,-0.0142060613,-0.018506904
92265.131518,0.199949747,0.153902602,0.00416959045,0.0116335193,-0.00576091198,-0.0198624515
92265.141542,0.14914294,0.0498253921,-0.167727776,0.0140990738,0.0115341887,-0.0151497218
92265.151565,0.0479024245,-0.0360139489,0.00424090212,0.012836735,0.00425230745,-0.0115272904
92265.161589,-0.0656626484,-0.118104915,0.246071636,0.00352978563,-0.0211995217,-0.0109334047
92265.171612,-0.104310775,-0.138475138,-0.0129475486,0.000406163998,-0.00620299684,-0.0123113244
92265.181636,-0.0360212443,-0.143235886,-0.120540493,-0.00306659801,-0.00153554046,-0.0161502705
92265.191659,-0.0187744818,-0.0451975367,-0.0231328425,-0.000911834396,0.0038163479,-0.018014484
92265.201683,-0.139515925,0.0113941921,-0.0116066553,0.000747581266,-0.00433399029,-0.0152458622
92265.211706,-0.203088471,-0.110200883,0.127561577,0.00471808781,-0.0111588725,-0.0157007285
92265.221730,-0.130284142,-0.205989864,0.0958489262,0.00312525147,-0.00259201661,-0.0134152042
92265.231753,-0.100044231,-0.165533168,0.0356922714,-0.00235473508,0.00623689486,-0.0143712795
92265.241777,-0.0786047896,-0.0491832453,-0.0235583744,0.00803958272,0.0064275771,-0.00621534871
92265.251801,-0.213076726,0.0415595585,-0.165394365,0.00484725154,0.0140271744,-0.0070182922
92265.261824,-0.269899341,0.16749595,0.0399072588,-0.000497979208,-9.07756764e-05,-0.00990808743
92265.271848,-0.194991546,0.251658298,0.0728327923,0.00391621022,-0.0128252126,-0.00949423189
92265.281871,-0.229314324,0.168543067,-0.215819899,-0.0039760678,0.00103893723,-0.0140546298
92265.291895,-0.251753882,0.15080606,-0.2315412,-0.00262318183,0.00782893306,-0.0160256334
92265.301918,-0.188424972,0.190538077,0.0204502786,0.00152176207,0.0084944571,-0.0166821041
92265.311942,-0.108486188,0.069417342,0.364910782,-0.00424770991,-0.0135354774,-0.0180965074
92265.321965,-0.117749956,-0.134039366,0.0879175487,-0.00496836127,-0.0105516716,-0.0196211681
92265.331989,-0.17767134,-0.322037388,-0.346788458,-0.00509299737,0.0116143505,-0.0160802313
92265.342012,-0.237230468,-0.353878487,-0.0258409324,-0.0150793184,0.00714742985,-0.0215210662
92265.352036,-0.232627705,-0.173030026,0.205317017,-0.00924752819,-0.0189209219,-0.0133385061
92265.362059,-0.102487249,-0.111497498,-0.0205013249,-0.00801182146,-0.0098547229,-0.0122897531
92265.372083,-0.0887917001,-0.107004662,-0.0904007906,-0.00701739759,0.00910432065,-0.0151204261
92265.382106,-0.0708562898,0.0810888559,-0.114944865,0.00821162314,0.00888753949,-0.0130508839
92265.392130,-0.0768712027,0.070183906,0.0828918295,-0.000436193871,-0.00654068556,-0.0163979464
92265.402153,-0.0379683346,0.0601900795,0.180744301,-0.00260161007,0.00472421978,-0.0214893751
92265.412177,0.0528334648,0.110210303,0.0192900027,0.00467094985,-0.00100610407,-0.0180419133
92265.422200,-0.0329098228,0.0181607819,0.026920936,-0.00714922397,0.000365423839,-0.0259024993
92265.432224,-0.101389964,0.0854740305,0.0318391031,-0.00468686529,0.00382300593,-0.0299049661
92265.442247,-0.116305849,0.241672545,-0.0491189321,-0.0019017314,-0.00471428981,-0.0248151318
92265.452271,-0.173615361,0.219288462,-0.023694568,-0.00547489458,-0.00828239242,-0.0254114129
92265.462294,-0.101061289,0.100214211,-0.0494275597,0.0122556334,0.00460597534,-0.0184448518
92265.472318,-0.167206517,-0.0714435011,0.0809330967,0.00975998511,0.00454152688,-0.0158293591
92265.482342,-0.208644169,-0.158294631,0.162192161,-0.00481736035,-0.0194796539,-0.0175958358
92265.492365,-0.0663644674,-0.0461874245,-0.00373723715,0.0174426708,-0.00807333471,-0.0154040538
92265.502389,0.0151775783,0.133063757,-0.174592986,0.00732052905,0.0170317524,-0.0180685454
92265.512412,-0.112445666,0.289746475,-0.0638529754,0.00382379858,-0.0159192729,-0.016089552
92265.522436,-0.0745645332,0.183558192,-0.175022609,0.00258995612,-0.0174452636,-0.0106806717
92265.532459,0.0996328401,-0.133955505,-0.176212111,0.00513300831,0.00373751843,-0.00868010508
92265.542483,0.0595873367,-0.270152302,0.0332881329,0.00368797729,0.012746726,-0.00712108972
92265.552506,-0.0992431524,-0.313695438,0.188009908,-0.00939000751,-0.0066663871,-0.00603744934
92265.562530,-0.0987538436,-0.298055861,0.21535618,-0.0159040995,-0.0222599927,-0.00714692275
92265.572553,0.0678299585,-0.171348375,-0.0845415432,-0.0046985832,0.00905451911,-0.00669578264
92265.582577,0.0955084901,-0.018939206,-0.111779679,-0.000346711642,0.0161017765,-0.00861618842
92265.592600,-0.0281108433,0.171424431,0.110129965,-0.00375309032,-0.000319957864,-0.014092517
92265.602624,-0.0238669975,0.314855508,0.062235995,-0.00502368416,-0.00915552782,-0.0240705822
92265.612647,0.104094824,0.286242814,0.0785295427,-0.00414590611,-0.0109411768,-0.0292496298
92265.622671,0.184200024,0.0136612238,-0.130355784,0.00558874636,0.00424976028,-0.0226607051
92265.632694,0.0924788036,-0.257627752,-0.147559433,-0.00667138192,0.00942055402,-0.0260218818
92265.642718,0.0663992361,-0.206860637,0.177734598,-0.00228275875,-0.00674536651,-0.0195533287
92265.652741,0.111295933,-0.193184743,-0.00752026282,-0.00325454636,-0.0125444002,-0.0116591853
92265.662765,0.0451671269,-0.13601684,-0.166155412,-0.0108421583,0.00485722708,-0.0139431123
92265.672789,0.0617708045,0.123243954,-0.216292193,0.00828546305,0.00991989659,-0.0112466634
92265.682812,0.0035416415,0.168669159,0.00130601772,0.00799943992,-0.0119603687,-0.0120458779
92265.692836,-0.0803277957,0.117814458,0.218133828,-0.00137568607,-0.0128842193,-0.0161386233
92265.702859,0.0444304421,0.100342459,0.0916894685,0.000589993046,-0.0162925321,-0.0130919673
92265.712883,0.0560390012,-0.00343604151,0.0481408341,-0.00291259637,-0.00714670507,-0.0166827076
92265.722906,0.176144162,0.00294653566,-0.062146756,0.00107442211,0.0119915696,-0.0109854069
92265.732930,0.0883680073,-0.03864722,-0.0375898224,0.00942636208,0.00265212996,-0.0109113705
92265.742953,0.000424944525,-0.105215842,0.0683664606,-0.00742212663,0.0123705369,-0.0182845992
92265.752977,0.125718371,0.0407859438,0.245068597,-0.0038444363,-0.00530779235,-0.0229216952
92265.763000,0.131267475,-0.0268524816,-0.114806918,0.00643456654,-0.00167524048,-0.0145721518
92265.773024,0.00594363032,-0.184104981,-0.264891096,-0.00475017753,0.030673378,-0.0134626784
92265.783047,-0.236773682,-0.188409163,0.089741257,-0.00341833084,0.00631131312,-0.0147670944
92265.793071,-0.255508979,-0.167181574,0.168579816,-0.0139876183,-0.0280389368,-0.0134387099
92265.803094,-0.0918835286,-0.0381028657,-0.0916814781,-0.0142771032,0.00651584366,-0.0126088698
92265.813118,0.0576929789,0.110966638,-0.246569842,-0.000133854127,0.0219477963,-0.00861599191
92265.823141,-0.105463726,0.144021588,0.100736114,-0.00314855253,-0.00421642898,-0.0105350659
92265.833165,-0.150560046,0.0794945908,0.207850919,-0.0159732725,-0.0215413562,-0.0163058703
92265.843189,0.131997525,0.0293036506,-0.00136174019,-0.00122681543,-0.0137124622,-0.0122243081
92265.853212,0.307676967,-0.0247588155,-0.204857775,0.00558315377,0.0222846874,-0.0119132519
92265.863236,0.0407214406,0.0235632438,-0.155164647,0.00348351752,0.0183839545,-0.0193538581
92265.873259,-0.0362119993,0.114589888,0.150550238,0.00174846822,-0.0197176236,-0.0163902909
92265.883283,0.151054354,0.00266417506,0.163409135,-0.0076247936,-0.0202302832,-0.0166131992
92265.893306,0.102733747,-0.0548504591,-0.385026126,-0.00410356167,0.0125337884,-0.0141678833
92265.903330,0.036737787,-0.0222584866,-0.370218433,-0.00742399114,0.0218186331,-0.0111933992
92265.913353,-0.0407449415,-0.0220798056,0.222635231,-0.00213149124,-0.00813606953,-0.0123145905
92265.923377,0.0152721282,0.00824297984,0.327509564,-0.0153309161,-0.00816003805,-0.0163870965
92265.933399,0.0460229081,-0.0526256409,0.183219167,-0.00902668181,-0.0158065065,-0.0168139998
92265.943423,-0.063270077,-0.112309691,-0.226941597,0.00402120986,0.00884983862,-0.0110826109
92265.953446,-0.268291906,-0.137603543,-0.110222512,-0.007509745,0.0150747112,-0.014552445
92265.963470,-0.387598413,-0.0403260948,0.253085315,-0.00108193948,-0.0183974962,-0.0133220636
92265.973494,-0.260721471,-0.0132057404,0.0863878549,0.000661898367,-0.0140887668,-0.0100999054
92265.983517,-0.296741975,-0.0624990559,-0.15288092,0.00195832523,0.00547428137,-0.00978964648
92265.993541,-0.245653392,0.10583744,-0.0427341995,0.00662072162,0.0186329604,-0.00998485728
92266.003564,-0.219212233,0.265308583,0.229613254,-0.00112135421,-0.00731768006,-0.00837630673
92266.013588,-0.254685625,0.305119565,0.120073851,0.000235792634,-0.00451443683,-0.011732689
92266.023611,-0.306172669,0.206922354,-0.174550315,0.0090330124,0.0257015218,-0.00776857405
92266.033635,-0.419162559,-0.0700168111,-0.0148565971,0.00890305006,0.00211417126,-0.00567559606
92266.043658,-0.558188387,-0.238147281,0.0683541856,0.00335222362,-0.0124213622,-0.0106522449
92266.053682,-0.451960776,-0.0909494898,-0.0359519921,-0.00437174206,0.00553260498,-0.0138842565
92266.063705,-0.279888967,0.0980853277,-0.0621414953,0.00665534261,-0.00892196795,-0.00493310659
92266.073729,-0.211408939,-0.00271159969,-0.203068554,0.012534803,0.00261164979,0.00286143332
92266.083752,-0.26350511,-0.192113333,0.00434260893,-0.00515178199,0.0103614487,-0.00153384811
92266.093776,-0.281060275,-0.122146957,0.246734484,-0.00705887171,-0.0128144446,-0.0026864641
92266.103799,-0.113848254,0.0612122804,0.0650545595,-0.0057520585,-0.0144568152,0.00353041956
92266.113823,-0.0582467507,0.0661165835,-0.153878699,-0.00595978535,0.00381646385,0.00359353622
92266.123847,0.0842574119,-0.0587912143,-0.128269041,0.0123023095,0.0100509234,0.00810200175
92266.133870,0.193820706,-0.237983724,0.20679235,-0.00132961342,0.0106053938,0.00607480308
92266.143894,0.120454807,-0.10923127,0.254060297,-0.00929219815,-0.00183343237,-0.00364253844
92266.153917,0.113713315,0.337319707,-0.184092635,0.00074978268,0.0176454604,0.00040386816
92266.163941,0.0378731568,0.384914037,-0.231514896,0.00989987162,-0.000937544988,0.00620529813
92266.173964,-0.163795138,-0.0539946825,-0.0634496553,0.00831449144,-0.0150666806,0.0088889656
92266.183988,-0.145711346,-0.359786359,-0.0375500749,-0.00128380702,-0.00245101949,0.00847750728
92266.194011,-0.201349445,-0.308870959,0.142141891,-0.0131955936,-0.00581539109,-0.00426119088
92266.204035,0.0154695105,0.118176514,0.0369069079,-0.0109902302,0.000239572241,-0.00630010745
92266.214058,0.328440025,0.41369246,0.0464784539,0.00538794436,-0.00997045463,-0.00364413659
92266.224082,0.118978615,0.140291644,-0.083387697,0.00567503293,0.00844264111,-0.00318793754
92266.234106,0.0804238616,-0.20044856,0.0428988418,-0.00838565807,-0.00214741904,-0.00494429177
92266.244129,0.205647082,-0.219250784,0.36936893,-0.0191735931,-0.0155377939,-0.00698107748
92266.254153,0.276544345,-0.0459290293,-0.249704633,-0.00672757466,0.0146834924,0.00083210425
92266.264176,0.282008035,-0.0229293716,-0.225321302,-0.00243242857,0.00550171208,1.66447228e-05
92266.274200,0.161113327,-0.036629487,0.082930408,0.00179427451,0.00464230996,-0.00225290085
92266.284223,0.137031464,-0.0589344039,0.0716842068,-0.0167916611,0.00327903811,-0.00394800293
92266.294247,0.0807079575,-0.0954163878,0.153948649,-0.00819817166,-0.0227882482,-0.00179190828
92266.304270,0.172527195,-0.158998597,-0.189777695,0.00321959817,0.00832945654,0.0051019505
92266.314294,0.108737125,-0.288353565,-0.0405884197,-0.00570598598,0.0185008672,0.00412403805
92266.324317,0.0283741327,-0.335616708,0.236521133,-0.00549000342,-0.0180496863,0.00823356131
92266.334341,-0.0155145541,-0.215347347,-0.116780263,-0.000302964859,-0.00892436517,0.00962213439
92266.344365,0.0153350739,-0.00510138091,-0.136689079,-0.0025701139,0.0191312384,0.00365425612
92266.354388,0.0893273538,0.232716611,0.0942198637,0.0190712653,-0.0102716583,0.00946980075
92266.364412,-0.0139693751,0.171164574,0.0936575537,0.0095557917,-0.0153082285,0.0110682306
92266.374435,-0.198281053,0.0530005881,-0.125528803,0.012016019,0.0113023434,0.0112943325
92266.384459,-0.087736702,0.106181358,0.104041585,0.00917575807,-0.00462575689,0.00783701719
92266.394482,0.0284142729,0.24538552,0.235734367,0.00290774201,-0.0137412242,0.0013458283
92266.404506,0.107864799,0.329061034,-0.204337551,0.00750968485,0.011383037,-0.0023833959
92266.414529,0.11742322,0.212184037,-0.139215967,0.0111773901,0.0162952383,-0.0052452291
92266.424553,0.0219094621,-0.0165739564,0.0174709706,0.00454931493,-0.0221562806,-0.0076367472
92266.434576,-0.0246100915,-0.227243299,-0.295123153,0.00125951176,-0.00325582655,0.00117272244
92266.444600,-0.128767572,-0.349739889,-0.24141319,-0.0138203714,0.00842293339,0.00340977836
92266.454624,-0.240866742,-0.371158927,-0.0367481109,-0.0203893248,0.000367403947,0.00913051435
92266.464647,-0.158145898,-0.297977334,0.253654054,-0.01418123,-0.0248780317,0.0103339973
92266.474671,-0.0618549815,-0.250131971,0.178350099,-0.0102488061,-0.0108714021,0.00596428209
92266.484694,-0.025136643,-0.170951868,0.019699168,-0.015014,0.00854117783,-0.00196820951
92266.494718,0.0155526325,0.0451521579,0.158232609,-0.0026438835,-0.00704790199,0.000349805816
92266.504741,0.0754728516,0.190530716,0.1356385,0.000489059274,-0.00300362533,0.000184689774
92266.514765,0.0715853015,0.154755309,0.0566263384,-0.00365162365,0.00928899353,-0.00289898446
92266.524788,0.0487579499,0.129999346,-0.183535586,0.00663137409,-0.00313704986,0.00212533552
92266.534812,0.000639266554,0.114529134,-0.160629342,0.00389684011,0.018606861,0.000766058578
92266.544836,-0.0616472433,0.105145895,0.0490281384,0.00415703115,0.00479703989,0.000139949038
92266.554859,-0.0902561831,0.105814369,0.0551644492,-0.00500477552,-0.0115491768,-0.00247367738
92266.564883,0.00113132895,0.125653846,-0.115736892,-0.000347705945,-0.00588196995,-0.0011327759
92266.574906,-0.0957833125,0.0867470826,-0.281818265,0.0113102814,0.00814862816,-0.00104968517
92266.584930,-0.174461238,-0.0288785441,0.0714948217,0.00272558183,0.00737524578,-0.00625296949
92266.594953,-0.123251174,-0.180652594,0.434516817,-0.00104505037,-0.0284315787,-0.00820387235
92266.604977,-0.0611316539,-0.140759029,0.0708921796,0.00244661999,-0.00384927019,-0.0100148216
92266.615000,-0.0618655531,0.0722983043,-0.0250226018,-0.00244960169,0.0415672146,-0.0126521502
92266.625024,-0.22528527,0.20065385,0.342189831,-0.00276545253,-0.00842697745,-0.00511433917
92266.635048,-0.457007721,0.112417585,0.0986861955,-0.0182056621,-0.0467128448,-0.00744087702
92266.645071,-0.301631427,-0.121758908,-0.649822141,0.0118230779,-0.00994205022,0.00388501411
92266.655095,-0.161436629,-0.384718227,-0.644531634,0.0163115684,0.0344677613,0.00661129238
92266.665118,-0.261175042,-0.37070837,0.316436381,-0.0219998684,0.0179178108,-0.00472525215
92266.675142,-0.150025556,-0.134718909,0.426971809,-0.00737964529,-0.053263954,0.00942998206
92266.685165,-0.199984404,0.0892964566,-0.187168389,-0.00713170487,-0.0177903857,0.00132198831
92266.695189,-0.154970227,0.241992261,-0.472688043,-0.00227543087,0.0417562992,-0.00308527692
92266.705212,-0.152396577,0.262076214,0.116764288,0.0142681256,-0.00206601726,-0.00561208452
92266.715236,-0.353092077,0.180186907,0.478599705,-0.00547761544,-0.0237508073,-0.0136787993
92266.725259,-0.274620397,0.0953630997,0.173170651,-0.00592982051,-0.0122922893,-0.0166223914
92266.735283,-0.131758872,0.115247219,-0.121922303,0.00641659434,-0.0116456739,-0.0106635679
92266.745307,-0.209705551,-0.0166809787,-0.380922198,0.0066663988,0.0195394092,0.000463118902
92266.755330,-0.332772854,-0.183851116,0.0515503503,0.00594601381,-0.0139738099,0.00166926406
92266.765354,-0.128160546,-0.185538101,0.365472507,-0.0179305568,-0.0194423451,-0.00313321395
92266.775377,-0.00659839651,-0.0399511788,-0.202440193,-0.00301259387,0.0010437559,0.000101461201
92266.785401,-0.104849411,0.0487793354,-0.372397531,0.0207052521,0.0188621682,0.0034874041
92266.795424,-0.21851689,0.085083716,0.247440587,-0.000840253409,0.0200616558,-0.00644032738
92266.805448,-0.2567381,0.186273789,0.424148568,-0.00437932815,-0.0343728244,-0.0108779528
92266.815471,-0.24177149,0.196076678,-0.159308907,-0.00827819555,-0.0209318503,-0.0171020263
92266.825495,-0.129110979,0.18147744,-0.437807284,-0.00296572227,0.0364632689,-0.0123533447
92266.835519,-0.064816384,0.0723680816,0.0997056017,0.00812128392,-0.00283673628,-0.00669199681
92266.845542,-0.146991175,-0.224200077,0.245336308,0.0129179034,-0.0194162458,-0.00238832819
92266.855566,-0.16016354,-0.442561198,0.122036676,-0.00865636467,-0.0136832587,-0.00984943925
92266.865589,0.0312340339,-0.121158348,0.0220179664,-0.0193026185,0.00854268471,-0.016622125
92266.875613,0.064225454,0.32093249,-0.35895645,0.0176567316,0.00150395009,-0.00185969087
92266.885636,0.0378889161,0.309989108,0.0645314124,-0.00735487769,0.00165361979,-0.013350698
92266.895660,-0.055126582,0.116714862,0.0372734032,-0.00633275676,-0.0195166461,-0.0130614777
92266.905683,0.152272927,0.0137516237,-0.342492807,0.0102464866,0.00533890245,-0.0138750736
92266.915707,0.0572781191,-0.195671098,-0.119519918,-0.0012655602,0.0161958103,-0.0174343892
92266.925731,0.0606244338,-0.0995773799,0.341038908,-0.00979380104,-0.0113351495,-0.0169584815
92266.935754,0.147664008,0.0478396434,0.23912927,0.0041566358,-0.00983419189,-0.00564404192
92266.945778,-0.0284646023,-0.147804655,-0.0270771962,-0.0031995478,-0.004017315,-0.00397077842
92266.955801,0.038221436,-0.309551452,0.0421863096,-0.0131802762,0.00526167067,-0.00340219295
92266.965825,0.0852020358,-0.289885597,-0.0249004367,-0.0227490149,-0.0122182538,-0.00466240092
92266.975848,0.21926889,-0.023639109,-0.17337075,-0.0133730888,0.0240769022,-0.00343974388
92266.985872,0.196133203,0.180414542,0.121274459,0.00219441853,0.020498148,-0.00697242735
92266.995895,0.042868933,0.182719366,0.311785341,-0.00342991137,-0.0156033981,-0.0136537653
92267.005919,-0.0414360564,0.110874995,0.125027674,-0.012443912,-0.0144321389,-0.0208818511
92267.015943,0.0941260045,0.0767146777,-0.322690959,-0.00476282303,0.0304991164,-0.0206624073
92267.025966,0.082900079,0.0876519043,-0.0552827155,0.00433293703,0.0131970913,-0.0172700722
92267.035990,0.225236274,0.0771581106,0.237262307,-0.00480303708,-0.0145178932,-0.0169709985
92267.046013,0.276828404,0.0258962898,-0.0385367479,-0.0047106252,0.000212583327,-0.0221138307
92267.056037,0.196213483,0.0471619086,-0.182320949,0.0106307801,0.0408785202,-0.0208208644
92267.066060,0.291341608,-0.00241268981,0.51007504,0.00034245647,0.0267680277,-0.021584126
92267.076084,0.361778596,-0.0603617516,0.80725006,-0.00606883717,-0.0248432356,-0.0158817664
92267.086108,0.242996643,0.00232127991,-0.350206158,0.00469752374,-0.0145743519,-0.0156383541
92267.096131,0.0538008805,0.0125421201,-1.29438027,0.0224626709,0.0304330689,-0.00879615998
92267.106155,0.0251518781,-0.0772428533,-0.408930149,0.0045984543,0.0549927436,-0.0107213583
92267.116178,0.212547527,-0.140765203,0.595907987,0.00917216689,-0.0176689449,0.00335025148
92267.126202,0.251629629,-0.168917641,0.480820888,-0.0142713737,-0.0548964731,-0.00856206833
92267.136225,0.309345448,0.103502567,-0.464639761,-0.0153028153,0.0222126905,-0.0174016327
92267.146249,0.414675635,0.370812446,-0.579706987,0.0151059564,0.036498689,-0.0173299935
92267.156272,0.339887923,0.22649306,0.399105312,0.00340695582,-0.00939317247,-0.0199026064
92267.166296,0.301888282,-0.0307252314,0.494865195,-0.000825606033,-0.0392088584,-0.0250222691
92267.176320,0.249511048,-0.227379675,-0.325436458,0.0108624755,0.00415219726,-0.0131104801
92267.186343,0.132752965,-0.17646053,-0.229510571,-0.00922761279,0.0271525875,-0.0143539113
92267.196367,0.0959702624,0.0378362637,0.221326487,-0.00246105324,-0.000184227727,-0.00212680536
92267.206390,0.168067932,0.102015306,0.235543228,0.000265757399,-0.0212535608,0.00437130745
92267.216414,0.0143437944,-0.11212396,-0.0775097448,0.00187377407,0.000244807554,0.00284744672
92267.226437,0.0589717393,-0.193215248,-0.0167703217,-0.0137440672,0.0185268753,-0.0066914641
92267.236461,0.0949391658,-0.0232165363,0.346516462,-0.00917488224,0.00498576682,-0.00667228817
92267.246484,0.158285429,0.0742899896,0.0640018356,0.00236752416,-0.00878410799,-0.00327542691
92267.256508,0.209960634,0.00878344339,-0.146368762,0.0115293313,0.0386302814,-0.00783928564
92267.266532,0.121067906,-0.125250202,0.011540996,0.0179249115,0.0326901012,-0.0114121836
92267.276555,-0.0886146721,-0.0648846358,0.0296839709,0.00691833413,0.014945723,-0.0114494663
92267.286579,-0.260994552,0.1186137,-0.157955154,-0.00192921997,0.013317732,-0.0114601207
92267.296602,-0.115720487,0.292421704,-0.105587254,0.00110731631,0.0147422569,-0.00691410421
92267.306626,-0.0333819795,0.310318595,-0.105871331,0.00855218359,0.0129624669,-0.00595163728
92267.316649,-0.0174385456,0.073422413,0.00338399303,0.00329776617,-0.00142259769,-0.013074261
92267.326673,-0.0671507909,-0.120055063,0.00622710751,-0.000889788245,-0.0107047792,-0.0228102476
92267.336697,-0.0141205779,-0.041307507,-0.071291601,-0.0041620138,0.0251442984,-0.0223034479
92267.346720,-0.0179525367,-0.0057418525,0.115605182,-0.00255692707,0.0131480888,-0.0186591771
92267.356744,-0.115346557,-0.0770320967,0.147027325,0.00109879424,-0.0127618053,-0.0148316816
92267.366767,-0.186124714,-0.191462029,-0.169896352,0.00618356765,-0.000448413324,-0.0165411652
92267.376791,-0.265940795,-0.15130143,-0.175434697,-0.00730614205,0.0244188522,-0.0232800291
92267.386814,-0.289122476,0.0361158696,0.21180521,-0.00569812515,0.000546810028,-0.0197766394
92267.396838,-0.104076135,0.15831766,0.329264883,-0.00383364646,-0.0221944555,-0.014806914
92267.406861,-0.133922142,-0.0278471552,-0.0141662767,-0.00153773526,-0.0140595633,-0.0120449503
92267.416885,-0.107635964,-0.123883755,-0.402167815,0.00942756441,0.00959676398,-0.00809388502
92267.426909,-0.119690103,-0.165646602,-0.0120462158,-0.00132042127,0.0312501275,-0.0147877399
92267.436932,-0.171942679,0.0455839004,0.464839475,-0.00299235391,0.0017702662,-0.0205582761
92267.446956,-0.108001364,0.29152059,0.20056953,-0.00620039766,-0.0331437729,-0.0181723506
92267.456979,-0.0332469527,0.126836991,-0.32630798,0.00736308164,-0.00262208552,-0.0152820226
92267.467003,-0.0448153007,-0.0944807692,-0.568529759,0.0165962607,0.0497804031,-0.00768881744
92267.477026,-0.30935161,-0.22356841,0.201207243,-0.0142953422,0.00953151645,-0.0166929652
92267.487050,0.0075286459,-0.129556192,0.573029801,-0.00719295749,-0.0374546341,-0.00898923805
92267.497074,0.226052248,0.0111219876,-0.139257468,-0.000430925554,-0.00270251268,-0.0156412822
92267.507097,0.0241139476,0.152124742,-0.643384802,0.00277072653,0.0350842819,-0.0133538943
92267.517121,-0.0703247448,0.0684505428,0.0250615718,0.00532656276,0.00131752888,-0.0115810268
92267.527144,-0.0105922531,-0.0915246593,0.526197907,-0.0054970568,-0.0316127233,-0.0134875838
92267.537168,0.070002366,-0.0910392504,-0.0184981684,0.00152569901,0.00446911329,-0.0116052617
92267.547191,0.113946018,0.0103564831,-0.072373551,-0.008013211,0.027059377,-0.0129259237
92267.557215,0.0713348202,0.149864249,0.187981266,-0.00333856492,-0.0142414571,-0.0149725628
92267.567239,0.106804622,0.15522627,-0.0245047154,0.00349111176,-0.00396165544,-0.0135586903
92267.577262,0.0910733481,-0.0230136341,-0.252840593,0.00638836502,0.010955775,-0.0153123819
92267.587286,0.106283612,-0.05858254,-0.0922700916,0.0051981981,0.0174677361,-0.013401565
92267.597309,0.0461026953,-0.0946944485,0.149122251,0.0107307119,-0.00186243154,-0.0116047923
92267.607333,-0.0613537129,0.038924753,0.116213669,-0.00458059953,-0.00808037924,-0.0143558391
92267.617356,-0.00771139925,0.134074085,-0.0848992706,0.00307092835,-0.0115643266,-0.00916054367
92267.627380,0.104634886,0.116695573,-0.316089953,-0.000936596343,0.00795930704,-0.00530694971
92267.637404,-0.0128941642,0.0255286804,-0.12874075,0.00361101745,0.00895772582,-0.00660470767
92267.647427,0.0571995374,-0.133594033,0.303257166,-0.00360961122,-0.00226936246,-0.00901007547
92267.657451,0.0105576098,-0.249879969,0.270785222,-0.000822879295,-0.0140208277,-0.0141523731
92267.667474,-0.0500191073,-0.128552477,-0.092976194,0.000874086944,0.0248882238,-0.014667428
92267.677498,-0.133056575,0.0149127217,0.0559120527,-0.00740861035,-0.0196768484,-0.0155049924
92267.687521,-0.137325238,0.0393144647,-0.219566684,0.0128806822,-0.0045069504,-0.00846279493
92267.697545,-0.0758413025,-0.00975430301,-0.259361519,-0.00923260934,0.0210487441,-0.0143590335
92267.707569,-0.0169412465,0.143912593,0.230389499,0.00430903184,-0.00327337407,-0.0144826051
92267.717592,0.0349011553,0.232485779,-0.0145514766,0.00469359263,-0.0262958679,-0.0119928148
92267.727616,-0.0434907878,0.0171854158,-0.147881504,-0.010337821,-0.00785001613,-0.0234486674
92267.737639,0.0378748601,-0.0104943443,-0.245311951,-0.00636172182,0.022745977,-0.0232483995
92267.747663,0.0810268599,0.0715683643,0.173056669,-0.00464637977,0.00107077415,-0.0241232467
92267.757686,0.058370353,0.033522072,0.39000606,-0.0116965657,-0.0134423889,-0.0212662079
92267.767710,0.0176598031,-0.0604028873,0.137403172,-0.000579999041,0.00407162389,-0.0163540085
92267.777733,-0.0885319897,-0.204506146,-0.0388582349,0.00579933702,-0.00493012661,-0.00992593622
92267.787757,-0.191809171,-0.178437055,-0.13807498,-0.00524133005,0.00227132706,-0.00930435477
92267.797781,-0.113679574,0.114572042,-0.094991041,-0.00128839984,0.0249974121,-0.00617300986
92267.807804,-0.109923911,0.27353845,0.159098871,-0.00157202656,0.000890478128,-0.00859115912
92267.817828,-0.180374371,0.265470605,0.0326515886,0.0112130104,-0.0194203864,-0.0132532891
92267.827851,-0.00508531707,0.172893426,-0.171889572,0.00706726798,0.0159770184,-0.0121587299
92267.837875,-0.0533453976,-0.0441746965,-0.0680235391,0.00550958487,-0.000892508207,-0.00912698811
92267.847899,-0.14400214,-0.18075388,-0.0507900802,0.00379877021,-0.00357511047,-0.007501128
92267.857922,-0.252712498,-0.166055456,-0.0284812178,0.000256233549,0.00851617368,-0.0124854994
92267.867946,-0.214724146,-0.0145195264,0.121887623,-0.00343623947,-0.00240278676,-0.0126918954
92267.877969,-0.147168075,0.131051924,0.0750580671,0.0059897529,-0.0186925429,-0.00890514708
92267.887993,-0.232882903,0.135182539,0.0147406688,-0.0172156997,-0.000338570695,-0.0202012107
92267.898016,-0.0502992531,0.201535583,0.0643858665,-0.000100363738,-0.00983167546,-0.0192896099
92267.908040,0.0764015107,0.154747345,-0.177548913,0.0169270907,0.00168782855,-0.0143473156
92267.918064,-0.00339491773,-0.114863687,-0.0599010229,0.00807420929,0.011680276,-0.0197367546
92267.928087,-0.0117533487,-0.118404118,0.159481733,-0.00100211,0.006486046,-0.018606509
92267.938111,0.0291779644,0.0727737033,0.009992013,0.00148075501,-0.0117512803,-0.0156621196
92267.948134,-0.00354289681,0.0148065396,-0.172685106,0.0183566745,0.0130368889,-0.00333328067
92267.958158,-0.166499501,-0.19495347,-0.175196797,0.00671999176,-0.00121794654,-0.0175367173
92267.968182,-0.0709909033,-0.0144077914,0.168661064,0.000503108566,-0.000231511556,-0.0230153714
92267.978205,0.0222183409,0.145610245,0.097151241,0.0204081081,-0.0160930316,-0.0154336196
92267.988229,0.0557307481,0.13162934,-0.116048442,0.00200486505,0.0241079171,-0.0217698131
92267.998252,0.124575302,-0.0563168784,0.168125642,0.008324546,0.0110967763,-0.0167500198
92268.008276,-0.0334198753,-0.21681183,0.228891954,0.00160299412,-0.0140605077,-0.0156847563
92268.018299,-0.18774932,-0.131559422,-0.12680949,-2.89910035e-05,0.0104645424,-0.00949663377
92268.028323,-0.119461792,-0.0896292558,-0.0920970731,-0.00199813237,0.00292140465,-0.00833709432
92268.038347,-0.150907882,-0.00357576051,-0.085351106,0.00857222007,-0.000556150931,-0.0130977601
92268.048370,-0.037610404,0.0638823764,-0.0780001587,0.00326533914,0.00383859743,-0.00780046812
92268.058394,-0.0383842082,0.147657899,-0.0630287996,0.00698737307,-0.0130471747,-0.00761085084
92268.068417,0.0012450587,0.172321708,-0.246761565,0.0133232998,0.00507909792,0.000858534253
92268.078441,0.0471863258,0.0658373829,0.0342596083,-0.0103751056,0.00150167359,-0.0120141216
92268.088465,0.311466897,0.0998421083,0.26888085,0.00635860088,-0.0139734234,-0.00793309218
92268.098488,0.251211988,-0.106862057,-0.105920431,0.0205702942,0.00703465693,0.00209397509
92268.108512,-0.00140359706,-0.425400768,0.0489942361,0.00299209888,0.0132813685,0.00024174632
92268.118535,0.0703500515,-0.603041719,0.433858061,-0.00901343095,-0.0136889975,0.00380718674
92268.128559,0.197743542,-0.297743653,0.0980373762,-0.0138332199,3.37917329e-06,-0.00470640684
92268.138583,0.164348967,0.141899591,-0.22880213,-0.00793964489,0.0211376928,-0.00703827
92268.148606,0.0621485016,0.270083579,-0.0788670047,0.00714157029,0.00981606251,-0.00465074635
92268.158630,-0.0843796558,0.302011334,0.0984669998,-0.001168025,-0.00907294,-0.0123089318
92268.168653,-0.0656990349,0.172353291,0.0511797634,0.00309116832,0.000407114436,-0.0154495992
92268.178677,0.103437036,0.0393516367,-0.0478680553,-0.00138214316,0.0127226364,-0.0177702763
92268.188701,0.154414432,0.0210597182,0.0227597246,-0.00137441993,-0.00598793443,-0.0167337739
92268.198724,-0.0451435006,-0.00371085813,-0.399189092,0.0183902301,-0.003928512,-0.00465021363
92268.208748,-0.110815754,-0.141552189,-0.309538047,0.00128554526,0.011524747,-0.00280996958
92268.218771,-0.0890796228,-0.18420097,0.259218703,-0.00225060018,0.00960593937,-0.00804893939
92268.228795,0.0736278539,0.0311296604,0.264605656,0.00406668448,-0.00278761344,-0.00536793551
92268.238819,-0.0155904004,0.178877615,0.252781948,-0.00303010739,-0.00263528073,-0.0120194469
92268.248842,-0.155417259,0.156821065,-0.107538972,0.00809418243,-0.00997681649,-0.0123920225
92268.258866,-0.229458519,0.106757404,-0.298452005,0.0156695444,0.0159860746,-0.0144032416
92268.268889,-0.330821245,0.0524002841,-0.0676815938,0.00927609411,0.0202908077,-0.0158072606
92268.278913,-0.323916836,-0.0413188869,0.251516458,0.00338145295,-0.00726705011,-0.0186986559
92268.288937,-0.360655315,0.00285911311,0.216940234,-0.00635932506,-0.0110210414,-0.0203213197
92268.298960,-0.235668443,0.10085861,-0.12438314,0.0109648045,0.0119649664,-0.0193183728
92268.308984,-0.150702907,0.0845882789,-0.115528218,0.018709277,0.0331264444,-0.0145710212
92268.319007,-0.325489163,-0.195760128,0.243484543,0.00345415735,-0.0211469132,-0.016108998
92268.329031,-0.466415089,-0.326631182,-0.0174805158,-0.00424078041,-0.0230140548,-0.0224236202
92268.339055,-0.343022628,-0.0372352526,-0.338472465,-0.0111737873,0.0173128609,-0.0282503468
92268.349078,-0.279786675,0.246370293,-0.143966377,-0.00317951063,0.0272829373,-0.026927824
92268.359102,-0.209371223,0.270347089,0.0966590736,0.0100177836,-0.0100178301,-0.0288146724
92268.369126,-0.209718977,0.0123063568,0.278183515,-0.000840722505,-0.00998560445,-0.0362209239
92268.379149,-0.126658553,-0.0400872993,0.0926206118,-0.00260240356,0.0206780311,-0.0350264989
92268.389173,-0.211590214,-0.0149322171,-0.0367937036,0.0175979409,0.0103052844,-0.0263728191
92268.399196,-0.426494655,-0.121032639,0.135457299,-0.00266418889,0.000867574985,-0.0282791097
92268.409220,-0.635450271,-0.119480204,-0.0179341048,-0.00613242368,-0.0137590385,-0.0325942271
92268.419244,-0.5766462,0.0385302921,-0.43273305,0.00459638723,0.0101691977,-0.0264939953
92268.429267,-0.492907521,0.0769284483,-0.166668622,-0.000216477545,0.0164321539,-0.0304482569
92268.439291,-0.0365712177,0.187917666,0.622794825,-0.0143794341,-0.00328775508,-0.0345617764
92268.449315,0.106125764,0.145679438,0.202621202,0.0172400113,-0.0319340482,-0.0229999263
92268.459338,-0.243576585,-0.138756092,-0.623938343,0.0101075323,0.0296635375,-0.023325364
92268.469362,-0.223207532,-0.225973772,0.137096882,-0.0229566757,0.0355730922,-0.0384001889
92268.479385,-0.0503879498,-0.160147109,0.353737646,-0.000194107002,-0.0281475644,-0.0209018876
92268.489409,-0.119050024,-0.0520541977,-0.233134606,-0.00376194417,0.0109060936,-0.016168651
92268.499433,-0.234937991,-0.0314276075,-0.176896586,-0.0180218395,0.0296089415,-0.0271877487
92268.509456,-0.236647352,0.121774118,0.160495878,-0.0139107181,-0.00738183282,-0.0264750858
92268.519480,-0.0322267496,0.248173872,0.0311826851,-0.0026809669,-0.0133640907,-0.0275059965
92268.529504,0.0549639741,0.180846942,-0.151808322,0.0104585376,0.0198758867,-0.0304383997
92268.539527,0.0616432144,0.0434287682,-0.0775693661,0.00125012531,0.0237233572,-0.03156785
92268.549551,-0.0720015006,-0.0575687598,0.294593968,0.0142250454,-0.00843724342,-0.0302690257
92268.559574,-0.128509579,-0.139360159,0.0188329066,0.00760123153,0.00374938162,-0.02425108
92268.569598,-0.239638351,-0.0679760077,-0.0238214093,-0.0169392645,-0.000899698716,-0.0355601915
92268.579622,-0.118220879,0.142168489,-0.118415171,-0.00382559354,0.0182574846,-0.0238564004
92268.589645,-0.173264849,0.258669839,0.0752065357,-0.00651964712,-0.015412328,-0.0265483212
92268.599669,-0.223832331,0.21934781,0.136399548,0.00288848901,-0.00509820333,-0.0256925103
92268.609693,-0.050013495,-0.0437422599,-0.00258280642,0.0123078238,-0.0162331454,-0.0241902199
92268.619716,-0.00143627934,-0.284422107,-0.110608881,-0.0110403763,-0.00797974424,-0.0305967209
92268.629740,0.28912985,-0.0823619682,-0.121731748,-0.0042764794,0.0305471428,-0.0291101438
92268.639764,0.0544353014,0.110414155,-0.2659748,0.00974692796,0.0363136836,-0.0158412111
92268.649787,-0.0450791987,0.178768565,0.375835496,-0.00201359139,-0.00342653728,-0.0199821599
92268.659811,0.0952422861,-0.0167084878,0.696359828,0.00117394604,-0.045218195,-0.0259191458
92268.669834,0.159081767,-0.0183929155,-0.452243806,0.00777192759,0.0364463077,-0.0213776556
92268.679858,-0.0110698691,0.0584482408,-0.149083866,-0.00765390023,0.0554620781,-0.0277961407
92268.689882,-0.0373974394,0.0891558425,0.386628108,0.0150364984,-0.027576347,-0.015150654
92268.699905,-0.227715091,-0.051055469,-0.148312297,-0.011993788,-0.0318659014,-0.0121655156
92268.709929,-0.0815797411,-0.0899927919,-0.566122114,-0.00350070073,0.0173426577,-0.0198804279
92268.719953,0.188840141,0.0839934913,-0.321469308,0.00640093229,0.0500478715,-0.0204474133
92268.729976,0.148227816,0.14519781,0.45831095,0.0116665347,-0.0168403472,-0.0201054652
92268.740000,0.0815144607,0.0102566395,0.515786987,-0.000744328872,-0.045164398,-0.0207225185
92268.750024,0.00079161328,-0.217430784,-0.348214107,0.00216117986,-0.000640604543,-0.0210807145
92268.760047,0.0894064378,-0.211576085,-0.326826451,-0.012623891,0.0307157215,-0.0198023961
92268.770071,-0.0563032702,-0.0221667349,0.141494241,-0.0120153593,-0.00433653979,-0.0175144755
92268.780095,0.225628853,0.145621552,0.304593968,0.0019252237,-0.0159628346,-0.00851165956
92268.790118,0.349716402,-0.114462906,0.295019499,0.00110869863,-0.00125339803,-0.0110792116
92268.800142,0.109814828,-0.117150647,-0.168115898,-0.00522056994,0.035575454,-0.0176673409
92268.810166,-0.142750578,0.00730710549,0.0917789003,-0.00764058464,0.0165024296,-0.0162769043
92268.820189,-0.159896596,0.126855897,0.410627992,-0.0174045309,0.0017951225,-0.014190317
92268.830213,0.103100224,0.168151419,0.220388914,-0.0207784891,-0.00416396664,-0.016542687
92268.840236,0.123472447,0.0792948121,-0.304708143,0.00480489965,0.00608121404,-0.00955295457
92268.850260,-0.233327871,-0.00795945549,-0.795939754,0.0184738405,0.0190167212,-0.0102949113
92268.860284,-0.326262851,0.0673769405,-0.150686625,-0.00216565797,0.0160954994,-0.0213302512
92268.870308,0.0709708183,0.0555771789,0.336075148,-0.00796655546,-0.0254777774,-0.0150382676
92268.880331,0.118740148,0.0729347573,-0.0518007186,-0.00973143223,-0.039528615,-0.0204141241
92268.890355,0.0957175389,0.113478876,-0.661281693,0.00420595492,0.0340001964,-0.0208351713
92268.900379,0.163452913,0.0957645932,0.154383533,-0.00414997925,0.0251670246,-0.032639102
92268.910402,0.206119029,0.0199441948,0.775070961,-0.00583362979,-0.0320078499,-0.0240378891
92268.920426,0.154138465,-0.22681426,0.254474139,0.00182934998,-0.0392369992,-0.00843123055
92268.930450,0.0890996277,-0.571531971,-0.516265319,0.0263999414,0.00487400299,0.00407337503
92268.940474,-0.0958573824,-0.59618926,-0.348178451,0.00317531145,0.0231323697,0.00381318399
92268.950498,-0.231389815,-0.284718679,0.408326145,-0.0477448635,-0.000645931009,-0.00400186224
92268.960522,-1.36337613,-0.401294501,-0.323674709,-0.00211825365,-0.0273537069,0.0143877977
92268.970545,-0.713166548,0.0478970727,-0.218326329,-0.00559128196,0.0687515148,0.0491399161
92268.980569,-0.86153004,0.249562404,0.424081933,-0.0164260853,-0.0259851098,0.00096946036
92268.990593,-0.0348511981,0.514991309,1.02467116,0.0106444128,-0.0816747389,0.00113723998
92269.000616,0.634839495,0.330775035,-0.487668755,0.0213412672,0.00473631766,-0.00904482311
92269.010640,-0.0275996743,0.304050986,-1.43364671,-0.00201172735,0.0905356415,-0.0302451838
92269.020664,0.040035317,0.345398238,0.532138987,0.0025334898,-0.0598040588,-0.0375907131
92269.030687,0.538002301,0.333221186,0.744346152,0.00516575827,-0.0522912844,-0.0367132061
92269.040711,0.813763253,0.0884742718,-0.429106091,-0.00363865242,0.0606152945,-0.0436105215
92269.050735,0.677015306,-0.0210842004,-0.310546347,0.0350530811,0.0321216032,-0.0281929512
92269.060758,0.326418529,-0.322099164,0.400588244,0.0107011387,-0.0286035288,-0.0338702806
92269.070782,0.287484147,-0.376372277,0.147842148,-0.00500352242,-0.00596080175,-0.0277865518
92269.080806,0.366377468,-0.349808023,-0.325310201,0.00257396974,0.0111595959,-0.0115633745
92269.090829,0.336168756,-0.327982523,-0.235069958,0.00188021637,0.0208167516,-0.00462850357
92269.100853,0.45368374,-0.306968432,0.374982678,-0.0147789212,-0.00697626466,-0.00770578614
92269.110877,0.651191495,-0.0492097498,0.310889269,-0.0185683321,-0.0247531302,-0.0129703235
92269.120900,0.619392992,0.201289024,-0.219759576,-0.00817641224,0.00203613854,-0.0100634833
92269.130924,0.399598331,0.126798577,-0.353083759,0.0105946122,0.0227123898,-0.00131526484
92269.140948,0.243442176,-0.173614073,0.116947828,0.00550717554,-0.0133782375,0.00378122612
92269.150971,0.278721689,-0.381172189,0.264493428,-0.00459579266,-0.0278780844,-0.00322315364
92269.160995,0.303323064,-0.15498916,-0.139846666,-0.00721767432,0.00291205231,-0.0084978108
92269.171019,0.447575084,0.0503347299,-0.34544172,0.011495027,0.012597436,0.00662841195
92269.181043,0.521887435,0.0631882384,0.0583062543,0.00549385949,0.00506921286,0.00707901841
92269.191066,0.211955882,0.0577621948,0.0955683557,-0.00345089942,0.000846504511,0.001747104
92269.201090,0.212165889,0.0593284212,0.102151241,-0.00296860099,-0.00882183587,-0.00412649835
92269.211114,0.500618144,0.0445414969,0.347390323,-0.00832501686,-0.00974861546,-0.0138174751
92269.221137,0.570625272,0.10256346,-0.117378229,0.0128108945,0.0195094057,-0.00356883171
92269.231161,0.106988144,-0.0224932817,-0.289425233,0.0129184865,0.0276687991,0.000861336603
92269.241185,-0.148193628,-0.149894577,0.306436381,-0.00758119606,-0.01900017,-0.00553371186
92269.251208,-0.00982310559,0.00144265217,0.184460107,-0.0102278458,-0.0147726686,-0.0110528477
92269.261232,0.315253247,0.268337886,-0.268055113,0.00633515204,0.0282706719,-0.0110642993
92269.271256,0.322493647,0.29210345,0.0255607535,0.0140122466,0.0152326337,-0.0120776322
92269.281280,0.0437712247,0.121643916,0.177457534,-0.00117709259,-0.0146922415,-0.0158201725
92269.291303,-0.113311809,-0.0733057696,-0.139325273,-0.00234728566,-0.0128298934,-0.00706529698
92269.301327,-0.00835493273,-0.238239398,-0.274601758,-0.00145672452,0.00607269151,-0.00227533455
92269.311351,-0.0627218183,-0.279462749,-0.111359407,-0.010805751,0.017174079,-0.00993005826
92269.321374,-0.023579842,-0.147576473,0.120095479,-0.0127983287,-0.00291228098,-0.00811671174
92269.331398,0.130813165,0.0327198157,0.214806145,0.000992052103,-0.0165993303,0.000626179515
92269.341422,0.284672834,-0.110812183,0.00217929342,0.00660679462,0.00359888152,0.00447151776
92269.351446,0.20237944,-0.179346498,-0.0602096505,0.003203541,0.01121419,0.00277295349
92269.361469,0.0538493867,0.0481535134,0.0150568952,-0.000838072135,0.0142065183,-0.00566154426
92269.371493,0.0219750473,0.297317805,-0.0103844201,-0.00206046322,-0.0162387389,-0.00900780676
92269.381517,0.0304689678,0.320138417,-0.103309957,-0.00234542139,0.00830974696,-0.0110888005
92269.391540,0.04699974,0.247888095,-0.0421140218,-0.000899324872,0.0121135394,-0.0127852344
92269.401564,-0.0261895884,-0.00549385082,0.146432866,0.00253988123,-0.0192643564,-0.0114994597
92269.411588,0.0071413248,-0.249935169,0.0331536929,-0.00502429511,-0.004952795,-0.0139556926
92269.421612,-0.0149874684,-0.203196123,-0.0998858273,-0.00187031346,0.0138951948,-0.010849648
92269.431635,-0.0628648024,-0.0931331722,-0.0766879071,0.00146023588,0.00916275742,-0.00467830511
92269.441659,-0.114939118,-0.0502541077,0.23739967,-0.000814902634,-0.0140490878,-0.00347428943
92269.451683,-0.0234448014,-0.02892326,0.16227867,-0.0025552784,-0.00547024714,0.000446149274
92269.461706,-0.0014784494,0.051614979,-0.107525528,-0.00328711517,0.0106831564,-0.00299864902
92269.471730,-0.0519773287,0.11295856,0.00214889828,-0.00296780215,0.005222611,-0.00324046413
92269.481754,-0.114533651,0.14153494,-0.0297309256,-0.00186978075,-0.012430153,-0.0070093692
92269.491778,-0.172479964,0.113747409,-0.145568551,-0.00724084423,0.00920084013,-0.00809114507
92269.501801,-0.00179139123,0.0716803916,0.0329327436,-0.00639102914,-0.00386995393,-0.00345964252
92269.511825,0.0886074786,0.00210584706,0.0529736611,-0.00765842785,-0.00449712774,-0.00543597421
92269.521849,-0.03363679,-0.0325784946,-0.123310542,0.00426587622,-0.0034696808,-0.00321250117
92269.531873,-0.00334215749,-0.165358998,-0.147250221,-0.00189135227,0.00543832673,0.00299372956
92269.541896,0.00107538267,-0.212611803,0.0951556833,-0.00511031532,-0.000607581474,-0.00108543398
92269.551920,-0.0400692342,-0.080903787,0.0542964341,0.000596839024,0.00870895466,0.00259239099
92269.561944,-0.0393157124,0.0302965523,0.250622139,-0.000647922433,-0.0253326345,-0.000702471347
92269.571968,0.137765559,0.129486611,0.0725528063,-0.00141331499,-0.00517676691,-0.0020633469
92269.581991,0.276480741,0.27717825,-0.288658341,0.0106103245,0.0193813079,-0.00881232961
92269.592015,0.171225903,0.31900386,-0.101724733,0.0186900899,0.0315335773,-0.00659231922
92269.602039,0.00122583998,0.181849817,0.371745596,-0.00318578774,-0.0245825752,-0.017931302
92269.612062,-0.0131325909,0.0821830809,-0.0641563423,-0.00543535993,-0.0103839339,-0.0193403818
92269.622086,0.111234001,-0.0273911003,-0.408923719,0.00161349479,0.0277205751,-0.0177779057
92269.632110,0.0347626304,-0.164413589,0.0514989124,-0.00722100939,0.0187702243,-0.0185406328
92269.642134,-0.073539259,-0.173114873,0.292993547,-0.003434527,-0.0184791434,-0.00938308785
92269.652157,-0.214991985,-0.244762699,0.0438516125,0.00213680599,-0.0097088219,-0.00392014614
92269.662181,-0.385641361,-0.263224439,-0.0894813377,-0.0110261345,0.0111482561,-0.00933035823
92269.672205,-0.271524184,-0.0785949073,0.155891015,-0.0100889679,0.000399738361,-0.0137956793
92269.682229,-0.0302972657,0.233476105,0.133736466,0.00379462373,-0.0138662831,-0.00961398507
92269.692252,0.0377721898,0.251035654,-0.0907176015,0.00139804507,0.00195768765,-0.00417740724
92269.702276,-0.0171829383,-0.00607862844,-0.128702172,0.011045878,-0.00588825079,-0.00552842847
92269.712300,-0.125417796,-0.0935075768,-0.0228867588,0.00199512575,0.0144939859,-0.0117940473
92269.722324,-0.0914155092,0.0201736379,0.281461514,-0.00602125543,-0.00472444961,-0.0135413482
92269.732347,0.036580514,0.235272579,0.216078065,0.0110120561,-0.0124630631,-0.00797347712
92269.742371,-0.0727082332,0.333913588,-0.171908861,0.00286677825,0.0253551554,-0.0109865776
92269.752395,-0.150803225,0.270384315,0.0404374201,0.0117098039,-0.00717029734,-0.0134420114
92269.762419,-0.150962069,0.0937275161,-0.0243235136,0.0122328486,-0.0117397487,-0.00677185866
92269.772442,0.0485795155,-0.174285908,-0.214934348,0.00747937356,0.00256462196,-0.00283277674
92269.782466,-0.0112859789,-0.294722406,-0.180061188,-7.60146445e-05,0.00837430811,0.00660466695
92269.792490,-0.0131444937,-0.282013475,-0.108823167,0.00655232715,0.0009744485,0.0130702892
92269.802514,0.0192620826,-0.261169278,0.181781827,0.000445165983,0.00177925579,0.0160698063
92269.812538,0.0504460994,-0.103833722,0.273061935,0.00133705869,0.000773646156,0.00783877553
92269.822561,0.151145147,0.0964879207,0.0788241417,-0.00732007883,-0.00519582922,0.00477880345
92269.832585,0.152264104,0.104968438,-0.0833830208,0.00108405827,-0.00482138911,0.00746646536
92269.842609,0.095795052,-0.0946624276,-0.257846438,0.00931322594,0.0136108816,0.0189561426
92269.852633,0.0500322761,-0.339217253,0.0857261762,-0.00543828941,-0.00721983159,0.0186453509
92269.862656,0.150527289,-0.308340542,0.138821807,-0.00583776346,-0.0261570375,0.0230009511
92269.872680,0.223245063,-0.105466164,-0.386684415,0.0108309614,0.00394307436,0.0245983146
92269.882704,0.133737035,-0.0531615196,-0.183009516,0.00214639326,0.0264702224,0.0147454172
92269.892728,0.091477271,0.0930857659,0.449945857,-0.00521218711,-0.0238547336,0.00615432592
92269.902751,0.255011271,0.37611764,0.213951574,-0.00605853953,-0.0279501426,0.00658416016
92269.912775,0.283198615,0.289460114,-0.35975783,0.00519171796,4.02115841e-05,0.0126785386
92269.922799,0.203572687,-0.11114832,-0.360173425,0.0172587682,0.0151531183,0.0221210412
92269.932823,0.18988649,-0.37384338,0.391608819,-0.0115675552,0.010953579,0.00877620851
92269.942846,0.102296643,-0.238053611,0.534026993,-0.0134243106,-0.0176197413,0.00867500821
92269.952870,0.124501132,-0.0348631532,-0.105828661,-0.00127683397,-0.0126630665,0.0114335102
92269.962894,0.0601465415,0.113478675,-0.248275477,0.00981896018,0.0203108628,0.00662117837
92269.972918,0.149274942,0.165833899,-0.0261787861,0.0188265696,0.0203249779,0.0120002312
92269.982942,0.0828992935,0.0570157603,0.33807772,0.00955690463,-0.0245873697,0.00505017967
92269.992965,0.00778309673,-0.0264114781,-0.0130977707,0.00972308611,-0.00840600407,0.00897141838
92270.002989,0.0413863389,-0.0858263564,-0.345266948,0.00846420993,0.00664804677,0.0102278973
92270.013013,0.0117201005,-0.0574890274,-0.153120574,-0.000515169909,0.00806538096,0.0106896899
92270.023037,0.0986895405,0.0929676742,0.0855338685,-0.00958509817,-0.00794128248,0.0101783621
92270.033061,0.110472744,0.135562296,0.107960804,-0.00551685252,-0.00910321916,0.0137573845
92270.043084,-0.0317940596,-0.135970991,-0.0473717962,-0.000221423246,-0.0102316012,0.0202371209
92270.053108,-0.102631206,-0.459531622,-0.0038348523,-0.00756349209,-0.00641449181,0.0256159074
92270.063132,-0.157178222,-0.475288396,0.167909954,-0.02167718,-0.00441499067,0.021853394
92270.073156,0.0641794138,-0.225220598,-0.00719994482,-0.00137696885,-0.00385892241,0.0338357567
92270.083179,0.188267858,-0.085911039,-0.0312828312,0.00706392034,-0.0104968521,0.0356163449
92270.093203,0.152187285,-0.0135108973,-0.0930720556,-0.00206859181,0.0116989984,0.0273325808
92270.103227,0.140541664,0.205785349,-0.0125787153,-0.00392055399,0.0136795909,0.0208856008
92270.113251,0.0690354024,0.441780454,0.067776678,0.00378370468,-0.00655830292,0.0184882238
92270.123275,-0.0373415947,0.398319242,-0.0661355334,0.00652622777,0.00726297112,0.0156823174
92270.133298,-0.0768974833,0.0568727168,0.0206782422,0.0101340117,-0.00713248005,0.0185918204
92270.143322,-0.100699927,-0.276259807,0.0286365077,0.00453152015,-0.00556707395,0.0200230024
92270.153346,-0.100480138,-0.26068745,0.0733664608,-0.00796056985,-0.000438092058,0.0149672582
92270.163370,-0.142385206,-0.0188840965,-0.0366247767,0.00117487212,-0.00415240241,0.0193801179
92270.173394,-0.0964556406,0.129260273,0.0350592342,0.00076368005,0.00667654244,0.0195566855
92270.183417,-0.158352362,0.198884173,0.246639792,-0.00326035641,-0.00609198319,0.0148623298
92270.193441,-0.193451294,0.174448309,-0.152273602,0.013439527,-0.0239961475,0.0188320383
92270.203465,-0.141386898,-0.128778651,-0.217182419,0.0164848521,0.00718760291,0.0180599868
92270.213489,-0.147666453,-0.254897596,-0.0137845839,0.0151069325,0.0219066281,0.0180203068
92270.223513,-0.114689143,-0.167956029,0.258735303,0.00912360867,-0.014458038,0.0209250163
92270.233537,-0.00471197084,-0.1163504,0.212372196,0.00660985122,-0.0151488615,0.0217780277
92270.243560,-0.00654371174,0.0080968311,-0.241625956,-0.00336262168,0.0177462388,0.0171755507
92270.253584,-0.00599027112,0.254407597,-0.280091588,0.00459863218,0.000351002542,0.0173097766
92270.263608,0.067372739,0.2938262,-0.0544252219,0.00196769504,0.000674842901,0.018686629
92270.273632,0.0805383822,0.0240056903,0.099393467,-0.00873981024,0.0035875422,0.014743819
92270.283656,0.0114135234,-0.17982334,-0.000882432239,-0.00292426538,-0.0143887961,0.0191279157
92270.293679,-0.0983213248,-0.276471714,-0.0979954835,0.000119461386,-0.002314289,0.0172173634
92270.303703,0.00752392292,-0.225536532,0.0598499766,-0.0129968736,0.0117549243,0.0118433713
92270.313727,0.0744548063,-0.0217055837,0.152910538,0.00381805954,-0.0239836305,0.0158988322
92270.323751,0.0401461387,0.100263421,-0.220571477,0.00258421708,0.00227487004,0.0161449082
92270.333775,0.0198977798,0.0728097244,-0.130947905,0.00041161014,-0.00480754035,0.0140271626
92270.343798,0.188465408,0.0942029881,0.0543075401,0.00188460453,0.00260243878,0.0175028547
92270.353822,0.0789025338,0.108082607,0.060448527,0.00182388451,-0.000136089642,0.0123187454
92270.363846,-0.0169401048,0.0643009123,0.149040418,0.00331898309,-0.0131152721,0.0130263466
92270.373870,0.0209486725,-0.0282301997,0.126908666,0.00683515445,-0.00792876551,0.0115312479
92270.383894,-0.0601465153,0.000893256397,-0.0819714004,0.0015112294,0.00742089642,0.00660200336
92270.393918,-0.062959399,0.243972292,-0.0436670965,-0.000142593658,-0.000937701101,6.79382449e-05
92270.403941,-0.0390832827,0.309980303,-0.00878925984,0.00748177032,-0.00976102067,0.00611997129
92270.413965,-0.0620996039,0.0863896292,-0.0437857544,0.00837845561,0.000421576304,0.0112862374
92270.423989,0.0309190474,-0.170159147,0.0741497201,0.00676671156,-0.0100627561,0.0106489427
92270.434013,0.150956337,-0.220120078,0.122636395,-0.00164674704,0.00529915547,0.00881615573
92270.444037,0.0380319824,-0.0784803592,-0.0647075464,0.00386226802,0.00354439892,0.00909445634
92270.454061,-0.0581330703,0.074390984,-0.0576658112,0.00508732228,0.000856736835,0.0102428106
92270.464084,0.0231017041,0.0213061856,0.153178833,-0.00256580398,-0.00396598144,0.0058773571
92270.474108,0.094979507,-0.0068434388,0.0183471689,0.000911485482,0.00103170644,0.00559719292
92270.484132,0.0538722516,-0.0419235383,-0.1468469,-0.00166325857,0.00941400589,0.00600572176
92270.494156,0.114615232,0.0156915057,0.133565786,-0.000141794729,-0.00414308174,-0.00268923292
92270.504180,0.0852881888,0.146380042,-0.0769760764,-0.00429632588,-0.00103783597,-0.0019440808
92270.514204,0.0841913883,0.226386713,-0.186220295,-0.000921834531,0.00345544946,-0.00344210851
92270.524228,0.0382924736,0.036625591,-0.0822081318,0.0131657545,0.0138745344,0.00519478939
92270.534251,0.0336158693,-0.183713315,0.139705019,-0.00962957255,0.00508450517,0.000589384823
92270.544275,0.0847740927,-0.239780106,0.323876761,-0.0125523925,-0.0117096548,-0.00191292154
92270.554299,0.0809475475,-0.151729428,-0.10545749,-0.00465638544,0.00231428478,0.00379929285
92270.564323,-0.0437176508,-0.0744315405,-0.190477368,-0.013852814,0.0161920179,0.00608481759
92270.574347,-0.166602396,-0.0919372953,0.0302264073,0.00519810962,-0.0085298411,0.0185659892
92270.584371,-0.158475185,-0.238307696,0.0616695933,0.00434030519,-0.0100608926,0.0211977243
92270.594394,-0.051013,-0.286022035,0.165058656,-0.0153082309,0.0041606546,0.00925584336
92270.604418,0.0850945751,0.108593862,0.135084374,-0.0133761631,0.020448367,0.00924263721
92270.614442,0.101191121,0.583189342,-0.0100711163,0.000621677513,0.0123164038,0.0140845302
92270.624466,-0.114486771,0.522760957,0.154074321,-0.00570386303,-0.0146025616,0.00565855544
92270.634490,-0.133010763,0.107500752,-0.128582929,0.0125702165,0.00222675233,0.0113659754
92270.644514,-0.19527535,-0.292476636,-0.163557797,0.0122333264,0.0254897297,0.00886153908
92270.654538,-0.38674187,-0.320908055,0.309727824,-0.0235041648,-0.000446262434,-0.0081371524
92270.664562,-0.167772864,0.0465148063,0.156449233,-0.0116770666,-0.0158843409,-0.00159296567
92270.674585,0.102155874,0.291623448,-0.334081537,-0.00223962268,0.0119100053,0.00549184171
92270.684609,-0.0109929234,0.12323261,-0.254781205,-0.00381541489,0.0108197079,0.00913477981
92270.694633,-0.130896565,-0.0845432212,0.0114188309,-6.67496438e-05,-0.0131697814,0.00540342474
92270.704657,-0.183618102,-0.139913555,-0.0615949674,0.00599646914,-0.0102632066,-0.00398262019
92270.714681,-0.0746963657,-0.102968338,-0.095378579,0.0239262015,0.00412798287,-0.00738507404
92270.724705,0.0474446069,-0.0459590591,0.11955655,0.0129310742,0.00825055676,-0.00900534248
92270.734729,0.198825036,0.213381777,0.300637924,0.0050779448,-0.00868901251,-0.0129247167
92270.744752,0.226971336,0.452874862,-0.032145001,0.00305953525,-0.0107154121,-0.00957792147
92270.754776,-0.017607888,0.389151126,-0.401136719,0.0108937567,0.022547203,-0.00371497298
92270.764800,-0.160275805,0.18818165,-0.0624945465,-2.62696062e-05,0.0110000035,-0.004642818
92270.774824,-0.148018801,0.0640455128,0.376532246,-0.00725195817,-0.0133500771,-0.0115465306
92270.784848,-0.141796656,-0.0253992689,0.166579582,-0.00194268037,-0.0138171959,-0.0171567452
92270.794872,-0.102722884,0.0282013154,-0.114906871,-0.0098994065,0.0139350731,-0.0233422023
92270.804896,-0.0171000287,0.193922039,-0.0160110278,0.00277377801,-0.00396855934,-0.0186704871
92270.814920,-0.0613283912,0.226723124,-0.0341002267,0.00452134405,-0.00144175197,-0.0191035167
92270.824943,-0.16418242,0.048397186,-0.0118071464,-0.00170912108,-0.00211979276,-0.0226793428
92270.834967,-0.2242227,-0.0528097105,0.0127223147,-0.00299809085,-0.0150422502,-0.0210580107
92270.844991,-0.338415499,-0.0594571126,-0.165062941,-0.0139122575,0.000285041621,-0.0234372792
92270.855015,-0.231076493,0.00854526899,0.0907770298,-0.0176241722,-0.00221753087,-0.0304203544
92270.865039,-0.0950452714,0.0715889139,0.113953907,-0.00158022418,-0.00602798177,-0.0266679589
92270.875063,-0.188953563,0.0321656707,0.172590805,-0.0129878743,0.00556795379,-0.035169565
92270.885087,-0.306310397,0.0344706962,0.315008395,-0.0143207859,-0.00698059438,-0.0356113844
92270.895111,-0.305463023,0.0711256803,0.139151477,-0.0095278954,-0.0194473836,-0.0336254694
92270.905135,-0.166633266,-0.0212403225,-0.206216204,0.00879305527,-0.00149474888,-0.0242021371
92270.915158,-0.127011011,-0.252093151,-0.210091,-0.00148727981,0.0144429382,-0.0208223209
92270.925182,-0.190696899,-0.115935426,0.0689550741,-0.0134097187,-0.00290143061,-0.033846245
92270.935206,0.083591751,0.271644746,-0.0519661383,0.00656159195,-0.00782668138,-0.0214998283
92270.945229,0.175470025,0.243472471,-0.204421138,0.00964606573,0.0146871497,-0.0166435548
92270.955253,-0.0190214446,0.026147689,-0.094563171,0.011548361,0.012631989,-0.00836085795
92270.965277,-0.0072927069,-0.171447945,0.188419658,0.00225739107,-0.0219808492,-0.00686895369
92270.975301,-0.0507999007,-0.237158818,0.0428275302,-0.00148861137,0.000953495023,-0.0134645392
92270.985325,-0.0878657991,0.0238003039,-0.145280382,-0.00942909232,0.0198217247,-0.0212620076
92270.995349,0.012223351,0.202985964,0.0505771214,-0.00225879745,-0.00944907883,-0.0133465611
92271.005373,0.0156339678,0.12817867,0.137065903,-0.0038971743,-0.0205752339,-0.0150853385
92271.015397,0.0857982207,-0.0792245652,-0.157732452,-0.00456482898,0.0237807807,-0.00865939713
92271.025420,0.0398738885,-0.145265858,0.13418421,-0.0141452838,0.00135350179,-0.0172294498
92271.035444,0.0679945151,-0.0521690562,0.244153236,0.00553121484,-0.00536165865,-0.0187106997
92271.045468,0.120598645,-0.0819760924,0.132523583,-0.00553555115,-0.00198636846,-0.0245046717
92271.055492,0.0852441122,-0.08474205,0.0313545345,-0.00361993913,1.79265483e-05,-0.0227296752
92271.065516,0.11998623,0.0523093727,-0.276143142,0.0100857534,0.00346885073,-0.0128799759
92271.075540,0.0719163966,-0.0274095858,-0.213121746,0.00568541159,0.0102489925,-0.013643504
92271.085564,0.0248670972,-0.0167544276,0.0951393167,0.00374742966,0.00157161475,-0.0139353861
92271.095588,0.224553844,0.120294858,0.336066965,0.00339163138,-0.00617818361,-0.0107094989
92271.105612,0.239494425,0.193594926,0.309731915,-0.0016052579,-0.0172662559,-0.01638656
92271.115636,0.152250222,0.195417721,-0.310352871,0.00988015738,5.40968933e-06,-0.0143700138
92271.125660,0.0837299083,0.0646750977,-0.349983455,0.00789157507,0.0177564424,-0.0213368431
92271.135684,0.10741932,-0.0649947451,0.0342894189,-0.00134959437,0.0130556979,-0.0186374624
92271.145707,0.0861093233,-0.150581956,0.0945939577,-0.000765829443,-0.0178369704,-0.0115697001
92271.155731,-0.00692953044,-0.169498966,-0.166524245,-0.00395230184,0.00227841768,-0.00673579691
92271.165755,-0.00767937955,-0.134709082,-0.0981690865,-0.011173995,0.00391306622,-0.0111201581
92271.175779,0.094842327,-0.0378540603,0.0432343574,0.00966071264,0.00562148342,-0.00234158045
92271.185803,-0.0279004702,-0.0622361123,0.199771073,-0.000186591898,-0.00290888771,-0.0072516509
92271.195827,-0.183432333,-0.0570802457,0.148279955,-0.0152640778,-0.0191400546,-0.0131140676
92271.205851,-0.0802230841,0.0736079621,-0.143081995,0.00244807332,0.00476234766,-0.0106642254
92271.215875,0.0124166874,0.0963722767,-0.148308205,0.0105182503,0.0147710395,-0.0049062044
92271.225899,-0.0834460647,-0.00789981599,0.180003712,-0.00246093147,0.000971338232,-0.00596374633
92271.235923,-0.0851731991,-0.100162212,0.229249096,0.00150611318,-0.00896837855,-0.00449980597
92271.245947,-0.169048382,-0.106752971,-0.0944053501,0.00244967123,0.00341931578,-0.00853023386
92271.255971,-0.216379385,-0.0719003598,-0.158304699,0.00195405698,-0.00928422915,-0.00991534336
92271.265995,-0.102110442,0.11510814,-0.0236390384,-0.00222257854,-0.00504048182,-0.0132283167
92271.276019,0.0531496455,0.220627949,0.00928240342,0.00129039722,0.00230025557,-0.00735764472
92271.286042,0.0758009008,0.0356761996,0.00600966536,0.0032691259,0.00501721246,-0.00457570596
92271.296066,-0.0817300272,-0.114570896,-0.0170351101,0.000410222469,-0.00297093893,-0.0122069948
92271.306090,-0.164363823,-0.0632552993,-0.0999524628,-0.00288703715,-0.0277583107,-0.0177341186
92271.316114,-0.0477835394,-0.0168252826,-0.331274663,0.00979360492,0.00896641413,-0.0144006394
92271.326138,0.0782063317,-0.0346768186,0.00122944535,-0.00282418662,0.0106146446,-0.0198057917
92271.336162,0.103342125,0.0849823563,0.376535169,0.00961730369,-0.0185858525,-0.0155455329
92271.346186,0.101365966,0.0540709208,0.261766049,-0.00666819354,-0.0151903212,-0.0208188583
92271.356210,0.0748679765,0.0121010435,-0.0489061662,-0.00518481274,-0.00896917669,-0.0148584366
92271.366234,0.0515916801,-0.097878668,-0.285321305,0.0053522505,0.0140463932,-0.00118523637
92271.376258,0.076452766,-0.174862722,0.00079046941,-0.00647538043,0.0234806415,-0.00570754974
92271.386282,0.0495849616,-0.0443907686,0.389985602,0.0036427674,-0.02657427,-0.00540208525
92271.396306,0.0532286062,0.0880740021,-0.0472455395,0.0038305204,-0.00211020549,-0.00900853878
92271.406330,0.0899227716,0.153978315,-0.0693907358,0.00207176871,0.018814518,-0.0113843445
92271.416354,0.123364611,0.127056973,0.0961312503,0.011039165,0.00308295862,-0.00904342613
92271.426378,0.0622300789,0.0574230807,0.218974371,-0.0159359936,-0.0047006627,-0.0205839676
92271.436402,-0.0335512831,0.0825413928,-0.172032195,0.00912035742,-0.00719551196,-0.0150043786
92271.446426,-0.0740804851,-0.0188178264,-0.450313714,0.0219256349,0.0162307181,-0.0120195084
92271.456450,-0.0842519378,-0.243657057,0.0622149522,-0.00303910374,0.00111195316,-0.0159394153
92271.466474,0.0670841816,-0.109520864,0.312687843,-0.00817474331,-0.0134970836,-0.00884501903
92271.476498,0.101212008,0.151281788,-0.155677857,0.00327258809,-0.00630601602,-0.00904129526
92271.486522,-0.0192387623,0.139413966,-0.326243098,0.00836828091,0.00849050736,-0.00658958858
92271.496546,0.0301792139,-0.0535818456,0.119838874,0.00146962792,-0.000324289678,-0.00812862894
92271.506570,0.052207451,-0.0859670983,0.335464907,-0.00724689829,-0.000357312863,-0.0145686854
92271.516594,-0.00226975219,0.0651553372,0.211250498,-0.00366521281,-0.0126675089,-0.0154981286
92271.526618,0.0477015956,0.0636325116,-0.117941124,0.00394077525,0.0105270258,-0.00950308783
92271.536642,-0.0462994703,-0.0619328733,-0.260976553,0.00924818889,0.0148011333,-0.00614936823
92271.546666,-0.137459522,-0.0367613515,0.090234009,0.00906043612,-0.0116970531,-0.00709985091
92271.556689,-0.0229741768,-0.0354661606,0.0779748314,-0.00262764519,-0.0109558954,-0.00112984224
92271.566713,-0.110887495,-0.0529383053,-0.150363384,0.000203294875,0.00433384521,-0.00456958065
92271.576737,-0.167200526,0.102005661,-0.174001449,0.00129306033,0.0121992248,-0.00822849839
92271.586761,0.0122859097,0.275122377,0.153693797,-0.00695208627,-0.0251899577,-0.0137340509
92271.596785,0.149795413,0.285333225,-0.0704726858,0.000778537672,-0.00632332651,-0.0114570473
92271.606809,0.121305085,0.0360709162,-0.271877302,0.00195933246,0.028805307,-0.0109568153
92271.616833,-0.0267680024,-0.279989257,0.26516329,-0.00722298053,-0.00733165782,-0.0121528403
92271.626857,0.086409658,-0.371096346,0.28114938,-0.00999799444,-0.0313914522,-0.00911071046
92271.636881,0.135987617,-0.207800585,-0.189620459,0.000611506772,0.0107711794,-0.00446109834
92271.646905,0.0726194623,-0.0949145027,-0.236440662,0.00496071503,0.0226153218,-7.38071883e-05
92271.656929,0.0849593953,-0.0590987824,0.149483486,0.00203736309,-0.0142185922,0.00446315448
92271.666953,0.074849564,0.0250818864,0.116109039,-0.000426060791,-0.00983955631,0.00540724502
92271.676977,0.0694885439,0.0376551532,-0.175825742,0.00687046788,0.00727657914,0.0102701775
92271.687001,0.0318529535,0.0653748617,0.0461020218,0.00132150548,0.0126471099,0.00679874666
92271.697025,-0.000961764018,0.170737343,0.199937662,0.00383712743,-0.00929201035,0.0048455844
92271.707049,0.0194515818,0.125712883,0.0209833626,0.00519693709,-0.0143312431,0.00220878854
92271.717073,-0.0269714686,0.0288655514,-0.119220642,0.000691667918,0.0175768871,0.00170198887
92271.727097,0.0617694209,0.119767692,0.0741047119,-0.00762991169,0.0115400347,-0.00254628515
92271.737121,0.101761349,0.262197977,0.219982086,-0.00598168121,-0.0130465349,-0.00651705904
92271.747145,0.0784402409,0.194023472,-0.131368761,0.00614502254,-0.00747200627,-0.00537749181
92271.757169,0.0795813372,-0.162594575,-0.247765189,0.00720709116,0.021847532,-0.00394577707
92271.767193,0.0295266295,-0.37758527,0.264436145,-0.015057734,0.0121866501,-0.0135126494
92271.777217,-0.0341506669,-0.21172448,0.379152658,-0.0207750097,-0.000543260495,-0.0104785104
92271.787241,-0.00151241675,-0.0879432937,-0.00783941177,-0.00754628823,-0.0150612156,-0.00363498541
92271.797265,-0.0644764434,-0.117102716,-0.250711764,0.00243577218,0.00325520603,-0.00203389382
92271.807289,-0.0346042148,-0.207783524,-0.435771979,0.0282175683,0.00667656898,0.00724642364
92271.817313,-0.014845772,-0.39738573,0.0203754598,0.00943562501,0.00481235642,0.00481442514
92271.827337,0.0211127063,-0.171835154,0.307957307,-0.0210330699,-0.00259709045,-0.00172256945
92271.837361,0.213764794,0.338850789,-0.0959332903,0.00311647608,-0.0121772793,0.0113652694
92271.847386,0.0475499624,0.505891546,-0.226105731,0.00329038055,0.0160905764,0.0114355768
92271.857410,0.0585267446,0.341937649,0.132272823,0.00400064533,0.00260246532,0.00900863776
92271.867434,0.0746371816,0.0652282198,0.316338766,0.00324004675,-0.0244014553,0.00202742744
92271.877458,-0.0437484524,-0.168386548,-0.0302102335,0.00233217511,0.00513672955,-0.00321740179
92271.887482,-0.0291357339,-0.19330057,-0.0851301567,-0.00353743186,0.0165246733,-0.00285574502
92271.897506,-0.0315501244,-0.0881938709,0.101618742,0.00517882799,-0.00807254868,-0.000308431559
92271.907530,0.016426777,0.060703655,-0.0866171804,-0.00257097072,-0.00081756596,0.000986930109
92271.917554,0.0404242798,0.126369575,-0.125078136,0.00526005422,-0.00490738278,0.00135391404
92271.927578,0.114198157,0.10666631,-0.1506498,0.0125627082,0.0144276999,0.000558960377
92271.937602,0.0367437852,0.0763191573,0.142632305,-0.00716066294,0.00146263243,-0.0108625394
92271.947626,0.0318536134,0.117460383,0.305123545,-0.00402266,-0.0112608859,-0.0104689234
92271.957650,0.100300903,0.0968987118,0.0360663655,-0.00561602953,0.00349142855,-0.0142862991
92271.967674,0.072372173,0.00866935202,-0.086792537,0.00209542011,0.00321419338,-0.0135752343
92271.977698,-0.0542780525,-0.0960264825,-0.216216789,0.00189488412,0.0103144477,-0.00880231789
92271.987722,-0.092494491,-0.143496382,0.00658834203,-0.00922967195,-0.00469193295,-0.00724543339
92271.997746,0.00274181634,-0.230823441,0.125862956,0.0110265968,0.00399583146,0.00522508485
92272.007770,0.113056714,-0.304441653,0.157458702,0.00466909884,0.00645925511,0.00785761944
92272.017794,0.012821922,-0.226361712,0.244845894,-0.00486874654,0.00271192133,-0.000881010541
92272.027818,0.0656759496,0.106875879,0.0401299616,-0.00320506938,-0.00915459184,0.000366679518
92272.037842,0.0967002207,0.308787805,-0.234755486,-0.000883858223,-0.00380563283,-0.00471489771
92272.047866,0.223140361,0.461584019,-0.25184106,-0.00677290632,0.0156905696,-0.0127174304
92272.057890,0.212703229,0.456364166,-0.165792424,0.00966119506,0.00210418795,-0.0128724266
92272.067914,0.0516628821,0.120344524,0.166259264,-0.00832899082,-0.0140401601,-0.0254864887
92272.077938,0.157992364,-0.240653017,0.271435795,-0.00182874772,-0.0323286198,-0.0232989684
92272.087962,0.457717964,-0.385854392,-0.059850754,0.00286081267,0.0139480642,-0.0146921639
92272.097986,0.259102504,-0.26094906,-0.000758513598,-0.0138257554,0.0311249205,-0.0169862107
92272.108010,-0.0216601122,-0.00515086434,0.181321224,-0.00334382014,-0.0199768796,-0.00809178582
92272.118035,0.301288198,0.123787669,0.126703499,-0.00108466057,-0.0135136537,-0.0077636846
92272.128059,0.37490546,0.0217534909,-0.109730929,0.00325149829,0.0137672358,-0.00949473946
92272.138083,0.237640029,0.0481253833,-0.308883967,0.0075610254,0.0253786173,-0.00766754417
92272.148107,0.138755776,0.0470863226,0.152747456,-0.00581789696,-0.0124971253,-0.0134846874
92272.158131,0.228506637,0.0143896659,0.148250145,0.000772095364,-0.0158894594,-0.00961085303
92272.168155,0.297070854,0.0369531607,-0.237662897,0.00397747588,0.0309134655,-0.00721267691
92272.178179,0.146125583,0.038496061,0.0910903335,0.000180607289,-0.000292656957,-0.00986971228
92272.188203,0.0480060584,0.0734600416,0.193300416,0.0075410518,-0.0121844701,0.000291844956
92272.198227,-0.0611123966,-0.0040496799,-0.0503008354,-0.00119970906,-0.0124579762,-0.00753598368
92272.208251,0.10836515,0.0920946177,-0.0169351569,0.00211352968,0.0350914345,-0.00880524597
92272.218275,0.0901423783,0.126664923,0.259001261,-0.00529245547,-0.0151525635,-0.00579640722
92272.228299,0.0321782171,-0.0299852267,-0.052680424,0.000885013395,-0.0181235849,-0.00746274634
92272.238323,0.086026029,-0.142222983,-0.319795237,0.00301074862,0.00765022064,-0.00650214484
92272.248347,0.0837637283,-0.15544938,-0.0715680798,-0.0120901734,0.0134817454,-0.0157116231
92272.258372,0.148962926,-0.0394535497,0.0250744313,-0.0107292978,0.00313456483,-0.00990832864
92272.268396,0.069412008,-0.0563896513,0.101677779,-0.00627063428,-0.0104339739,-0.0105413616
92272.278420,0.0468828813,-0.0716711907,0.141151126,-0.0122944375,0.00305839848,-0.0145116028
92272.288444,0.0228532115,-0.0343562083,0.0488066046,-0.000303022776,-0.000248448588,-0.00434258754
