t,ax,ay,az,gx,gy,gz
95704.197001,-0.0520376691,-0.198771548,0.00271112943,0.000309451732,-0.000482589738,0.000448822216
95704.207030,-0.0385195045,-0.178247194,0.00496387679,-0.00812151829,-0.000261969083,0.0025145986
95704.217059,-0.0323950302,-0.0331202726,0.007813421,-0.00315099383,0.000795838448,0.000995531385
95704.227088,-0.039310801,0.0318513448,-0.0378254636,-0.0115074607,0.000823268983,0.00122269912
95704.237117,-0.0112988315,0.150338571,0.0435581036,-0.00791725317,0.00202648525,-0.000968283801
95704.247146,-0.0281945098,0.243257167,-0.05372329,0.00848994976,-2.5746795e-05,-0.00209293684
95704.257175,0.00968294705,0.106474661,0.00717863023,-0.0012987654,0.00060941718,-0.000390111296
95704.267204,-0.00407764808,0.0941002317,0.00792857182,0.001183567,-0.000483011511,-0.000293171792
95704.277233,-0.027623505,0.0608148976,-0.0329119726,-0.000861740655,-0.0015876907,-0.000529660671
95704.287262,-0.00856290374,0.064007273,-0.0198707047,0.00409200521,-0.00199408926,-0.0019232927
95704.297290,-0.0276001972,-0.0033382247,-0.0264296249,0.000310050223,-0.00141378623,-0.000313412226
95704.307319,0.01242472,-0.0469258576,0.0427304206,0.0230318738,-0.00572491161,-0.0114781827
95704.317348,-0.100945492,-0.0172058147,-0.0221772281,0.0187598971,-0.00759125458,-0.00166629796
95704.327377,-0.0914153014,-0.136884434,-0.0164494981,4.79951428e-05,-0.0044085109,-0.00367938151
95704.337406,-0.136323241,-0.105897522,-0.00444283398,-0.000178373577,-0.00207238601,-0.00103166682
95704.347435,-0.124565437,-0.00526726566,0.0105378775,-0.00260930681,0.000353753766,-0.000839653253
95704.357464,-0.117917305,0.0557395854,-0.010119126,-0.00260797549,-0.000371158738,-0.000813820227
95704.367493,-0.139630978,0.061568392,-0.00441419241,-0.00198879045,-0.000172486911,-0.00303649419
95704.377522,-0.123553995,0.102711445,-0.015179332,0.00235775476,-0.000708314973,-0.00298908988
95704.387551,-0.149377369,0.0715515966,-0.0275916544,-0.0017304638,-0.00100019729,-0.00368524046
95704.397580,-0.17145118,0.121170555,-0.0088735099,-0.00553665343,6.26701763e-05,-0.00520297588
95704.407609,-0.177081807,0.180293565,-0.0278669642,-0.00155815725,-0.00200740484,-0.00696013012
95704.417638,-0.192546064,0.17907332,-0.0451992073,0.00830778958,-0.00219169542,-0.0110584691
95704.427667,-0.205393124,0.0579086182,-0.0227401227,0.00279025211,-0.00100472468,-0.00879930781
95704.437696,-0.224827162,0.00818458318,-0.0222742587,0.00682094613,-0.001027628,-0.0106715102
95704.447725,-0.191514529,-0.0567582099,-0.0366529127,0.00683692577,0.00177002276,-0.0078765236
95704.457754,-0.217183881,-0.125315029,-0.00821241565,-0.00485994467,-0.00259196901,-0.0102989346
95704.467783,-0.212952088,-0.0333293031,-0.0303336466,0.00233351988,-0.000615370609,-0.0122587558
95704.477812,-0.215465825,-0.0161434462,-0.0409538248,-0.000618594101,-0.000210836446,-0.0100472652
95704.487841,-0.238459308,0.0260526593,-0.0373701211,-0.00518698046,0.000887983853,-0.0121442385
95704.497870,-0.259503558,0.0798450306,-0.0705791477,-0.000124844008,-0.00250035621,-0.0125953786
95704.507899,-0.262491049,0.0820901518,-0.0488442858,-0.00402610875,-0.00243164649,-0.013223619
95704.517928,-0.304717641,0.145114508,-0.0310181217,-0.00348042707,-0.000142925801,-0.014809531
95704.527956,-0.337379555,0.225073056,-0.0507527497,-0.00351930909,0.000493303374,-0.0147831652
95704.537985,-0.357916659,0.285200448,-0.0450484006,-0.000982648211,-0.00172857187,-0.0194410326
95704.548014,-0.35783183,0.298790783,-0.0557983427,0.0100092824,-0.00174961091,-0.0216322819
95704.558043,-0.399559971,0.204393676,-0.0694030897,0.0103291284,-0.00357387637,-0.0242371204
95704.568072,-0.438109117,0.0530070734,-0.080145433,0.0121829548,-0.00496378032,-0.0231468247
95704.578101,-0.48071046,-0.0533435152,-0.0582474894,0.00529096056,-0.00507696442,-0.0227500143
95704.588130,-0.549644734,-0.0433820932,-0.075846859,-0.00181275546,-0.00498641705,-0.0224322954
95704.598159,-0.534014546,0.0634234087,-0.0547011951,-0.00260691006,-0.00167024872,-0.0244701484
95704.608188,-0.537191422,0.189508735,-0.0437601144,0.000305789073,-0.00113495338,-0.0266097317
95704.618217,-0.554278093,0.236330838,-0.0744229637,0.00474208281,-0.00140020406,-0.0280773992
95704.628246,-0.528752826,0.219345472,-0.028490649,0.000739351746,0.00161369526,-0.0311493555
95704.638275,-0.554211457,0.296693427,-0.0971935984,0.00717674488,0.00103791986,-0.0355329195
95704.648304,-0.560437712,0.263017916,-0.118143447,0.0128066671,-0.00189315531,-0.0374615805
95704.658333,-0.594134156,0.150497233,-0.117352589,0.00885080746,-0.00664769722,-0.0424499491
95704.668362,-0.60667332,0.0780763861,-0.105767365,0.0170434901,-0.00562024911,-0.0442537049
95704.678391,-0.604885706,-0.0620961551,-0.0304558116,0.000344937567,-0.00369531665,-0.0446033793
95704.688420,-0.616891055,0.0633282961,-0.0448122538,-0.00364287976,-0.000722163274,-0.0523747483
95704.698449,-0.696398818,0.18014937,-0.23146646,0.0180837215,-0.0148326564,-0.0532184409
95704.708478,-0.645496022,0.00893035091,-0.0104289227,-0.00465461459,-0.0130518,-0.0546898337
95704.718507,-0.651703206,0.080114203,0.039337271,0.000322833324,-0.00241620004,-0.0555630865
95704.728536,-0.759625236,0.166975087,-0.114605921,0.00182592137,-0.00567484418,-0.0586614104
95704.738564,-0.799012147,0.219894521,-0.123758365,-0.00151741096,-0.0141253206,-0.0637323352
95704.748593,-0.770403746,0.24152353,-0.0976997943,0.0195740258,-0.0160382674,-0.0632953065
95704.758622,-0.752358167,0.0251093597,0.036346857,0.00604170528,-0.00666234413,-0.0617916899
95704.768651,-0.822523152,0.073372638,0.0972984616,-0.0173171459,-0.00120872297,-0.063639121
95704.778680,-0.896292299,0.409274974,-0.0820655874,0.00395005862,-0.00609189508,-0.0720877366
95704.788709,-0.716373758,0.397165653,-0.0122023621,0.0221245346,0.00851660917,-0.0721833425
95704.798738,-0.513985465,0.0812900509,0.182559747,0.000236546986,0.0309987492,-0.0698584037
95704.808767,-0.454903453,0.0998888525,-0.0717780021,-0.00061380035,0.0361983045,-0.0704261901
95704.818796,-0.456311567,0.249572232,-0.431613769,0.00300064184,0.00675918857,-0.0776305737
95704.828825,-0.366591037,0.198095435,-0.362529711,0.00120860072,-0.021551278,-0.0821416991
95704.838854,-0.294478937,0.151498336,-0.0721088415,0.0131438236,-0.0281601777,-0.0806367489
95704.848883,-0.369901038,0.113430215,0.150674078,0.00949689107,-0.0193075654,-0.0829254704
95704.858912,-0.413957476,0.0522846226,0.248594354,0.0159369466,0.00823804221,-0.0857566761
95704.868941,-0.515876466,-0.0692989627,0.0841285989,0.0219218695,0.0155164613,-0.08509914
95704.878970,-0.393337809,-0.310630625,-0.0510625463,0.0158208331,0.0234588082,-0.0780593397
95704.888999,-0.164948886,-0.336745748,0.0322908597,-0.0183613727,0.0275494228,-0.0750502365
95704.899028,-0.125626418,0.078126792,-0.147046301,-0.0060937869,0.0137848737,-0.0799160989
95704.909057,-0.0716364689,0.269292868,-0.337309345,0.0229264127,-0.00206919018,-0.08149668
95704.919086,-0.162869376,0.14611478,-0.263542098,-0.0166345796,-0.0207326231,-0.0848581212
95704.929115,-0.271462437,0.450222522,-0.148115392,-0.00972420802,-0.0405737036,-0.0971914919
95704.939144,-0.277109722,0.615060764,0.0187153388,0.0213772525,-0.0337893018,-0.107406841
95704.949173,-0.222570834,0.203169961,0.360084306,0.0382742101,-0.00435657942,-0.106540518
95704.959201,-0.355733031,-0.258818458,0.380473598,0.012035682,0.0200480963,-0.103911975
95704.969230,-0.316255884,-0.359160262,0.177263979,-0.009429396,0.0329298055,-0.10291356
95704.979259,-0.230635556,-0.188540223,-0.0195989021,0.00189329953,0.0345532684,-0.100195536
95704.989288,-0.107305164,-0.186540153,-0.274885915,0.0170749148,0.0163638792,-0.0989241393
95704.999317,-0.0157754655,-0.52915965,-0.211929985,-0.00107665777,-0.00901684494,-0.0774145888
95705.009346,-0.146694559,-0.438959629,-0.0614728812,-0.0092232673,-0.0281551187,-0.0641051771
95705.019375,-0.257690298,0.0902987571,0.0376006565,-0.0197211819,-0.0181581439,-0.0644684302
95705.029404,-0.0937267932,0.570310023,0.161308285,0.00802149916,0.0283121518,-0.0705867799
95705.039433,-0.115989698,0.69560693,-0.0898642784,0.0270886665,0.0295390705,-0.0807387473
95705.049462,-0.123392667,0.373264808,-0.262727275,0.0319462718,-0.00315868951,-0.0829646157
95705.059491,-0.0343355698,0.0339009434,-0.0256925428,0.0234952645,-0.0227883165,-0.0795104968
95705.069520,0.113970201,-0.0286025211,0.219461198,0.00912750991,0.0149577302,-0.0850301625
95705.079549,0.101996197,0.137126769,0.0575714314,-0.0128422369,0.0313319093,-0.0975121351
95705.089578,0.0501079695,0.261772391,-0.310160642,0.00999143919,0.00609632764,-0.108104328
95705.099607,0.105316427,8.05068392e-05,-0.237914905,0.00230236109,-0.0292363619,-0.10613838
95705.109636,-0.0468208843,-0.0856577941,0.0714666857,-0.00294406629,-0.034590649,-0.106033454
95705.119665,-0.0996140246,-0.0490529967,0.0813860222,0.0326176548,-0.0216791095,-0.0999097766
95705.129694,0.0722658061,-0.428857666,0.353388607,0.0165113901,0.0244636177,-0.0886403488
95705.139723,0.00428408368,-0.576454814,0.296926715,-0.0289434417,0.0358371786,-0.0873854624
95705.149751,-0.068292273,-0.222126704,-0.213628605,0.00818075625,0.0167359239,-0.085665332
95705.159780,0.0880609027,-0.227191897,-0.270131414,0.00773094887,-0.00430251708,-0.0828066932
95705.169809,0.0988026615,-0.369663244,0.0164018011,-0.0110688385,-0.0151431798,-0.0795541721
95705.179838,0.0332991658,-0.187324746,0.0705741208,-0.00511134682,-0.01487207,-0.0742550137
95705.189867,-0.205972678,0.0424960364,0.0247078572,-0.0180540437,-0.0196628296,-0.0803302171
95705.199896,-0.219263317,0.255352075,0.0824668032,0.0210912285,-0.00532437212,-0.0863630789
95705.209925,-0.0989383904,-0.137319766,0.187712308,0.0326276274,0.015706209,-0.0765279101
95705.219954,-0.0701894119,-0.644335414,0.23816473,-0.0143646448,0.0311935539,-0.0659194755
95705.229983,0.0897202873,-0.463730936,0.0592624532,-0.0147294978,0.0408925204,-0.0558351444
95705.240012,0.181417232,-0.257051924,-0.279345817,0.00218929783,0.0331091671,-0.0495479571
95705.250041,0.191597923,-0.369956236,-0.412276616,-0.00798211327,0.00269506822,-0.0425097587
95705.260070,0.0632014059,-0.344711028,-0.357141004,-0.00695280159,-0.0442713746,-0.0385243314
95705.270099,-0.128106983,-0.292846236,-0.209550396,0.0203190335,-0.0674328902,-0.0315037089
95705.280128,-0.220314215,-0.591112833,0.254562907,0.0170444102,-0.0549605065,-0.0186345166
95705.290157,-0.56450065,-0.676616877,0.446089103,-0.00275885533,-0.0232355991,-0.00829692354
95705.300186,-0.514440004,-0.4048755,0.413583841,-0.0201516932,0.0334987878,-0.00632645079
95705.310215,-0.263498911,-0.14602495,0.282047126,-0.0118354409,0.070427773,-0.00577224681
95705.320244,-0.152079906,-0.137851096,-0.237512754,0.0201927984,0.0600236035,0.00174292706
95705.330272,-0.278828217,-0.358945706,-0.646862786,0.00589854842,0.00401093575,0.00812599173
95705.340301,-0.431627646,-0.471979855,-0.776741796,-0.00739328829,-0.0536664748,0.0138408692
95705.350330,-0.349449348,-0.356105843,-0.256686241,-0.012014672,-0.0544792735,0.0124176752
95705.360359,-0.296911863,-0.21435945,0.167418877,0.0133154524,-0.0308304006,0.00956196821
95705.370388,-0.457822044,-0.346275208,0.302733356,-0.0037436924,-0.00505952401,0.00735820195
95705.380417,-0.557852225,-0.388850833,0.258409061,-0.0204598213,0.0120217246,0.00299168302
95705.390446,-0.637997629,-0.180212685,0.0607757804,-0.0290948561,0.0116542079,-0.00103661401
95705.400475,-0.673244226,-0.113748144,-0.151901925,0.022314273,-0.00432209534,0.00522021641
95705.410504,-0.633016114,-0.445326351,-0.00491512767,-0.0157217922,0.000354948537,0.012464015
95705.420533,-0.467405208,-0.35340864,0.206101951,-0.0345213114,0.0266387495,0.0161125457
95705.430562,-0.402615851,-0.0283337415,-0.12990812,0.0152920504,0.0359275913,0.0259217659
95705.440591,-0.594460539,-0.259315083,-0.515120904,-0.0170424542,-0.00564195731,0.0309831036
95705.450620,-0.659794085,-0.0709723895,-0.442997917,-0.020584192,-0.0379050882,0.0266626572
95705.460649,-0.374347861,0.108874507,-0.145582659,0.00322713157,-0.0251890277,0.0338822214
95705.470678,-0.615782071,0.100752054,0.242557412,-0.0332219525,-0.0306026996,0.0234418308
95705.480707,-0.778862582,0.291181788,-0.0211882171,0.0104834467,-0.0283635152,0.020827139
95705.490736,-0.563736315,0.111558028,0.244022808,0.0102805133,0.0184745635,0.0266067313
95705.500764,-0.46333467,-0.0267201506,0.172684834,-0.0190422217,0.0497390083,0.0218263568
95705.510793,-0.453266938,0.0548503403,-0.193273799,-0.0130011065,0.0175584363,0.0278967658
95705.520822,-0.204398853,0.282973602,-0.234755564,0.0035198132,-0.00294284363,0.0301111845
95705.530851,-0.236931368,0.3523847,-0.0624835195,0.00820564492,-0.00954402102,0.0356681367
95705.540880,-0.853855498,0.239805638,-0.516776855,-0.0158426984,-0.0427563028,0.0238463638
95705.550909,-0.570311017,0.495809932,-0.006566402,-0.0290498471,-0.0441584573,0.00326412468
95705.560938,-0.213803664,0.610191258,0.533691399,0.0666782783,0.00910822625,0.00275466189
95705.570967,-0.451825873,-0.322611533,0.380118793,0.0413188563,0.0419604494,0.0153388969
95705.580996,-0.4120268,-0.543043871,-0.0115646487,-0.0406428574,0.0788934356,0.00858911517
95705.591025,-0.280094145,0.0856004889,-0.686633655,-0.0102348811,0.0356053463,-0.00510911999
95705.601054,-0.0298577668,0.0238787676,-0.740058956,0.0208391493,-0.0347005078,-0.000793468035
95705.611083,0.066532377,-0.254757438,0.252024913,-0.0540814324,-0.0573224635,-0.00873314945
95705.621112,-0.457806189,0.323484586,0.118448802,0.0252834318,-0.062300975,-0.0088987982
95705.631141,-1.03015431,-0.0432038368,-0.532487634,0.0983701573,-0.0697618225,0.00613314769
95705.641170,-0.728625264,-1.11761176,0.390990901,-0.0465263127,-0.0258566817,0.0325572995
95705.651199,-0.522473234,-0.229221832,1.08123059,-0.139380075,0.0471157967,0.013803851
95705.661227,-0.614743887,1.32266258,0.417953142,-0.020434521,0.0475453636,-0.0230585596
95705.671256,-0.247260016,1.01805894,-0.105939799,0.127667062,0.0665859035,-0.0273766106
95705.681285,0.345571802,-0.797833419,0.123607792,0.0894083606,0.129342233,0.0198191332
95705.691314,-0.198004402,-1.27526381,-0.605354717,-0.0958754791,0.0826298496,0.0400341211
95705.701343,-0.459029009,0.359067247,-1.42017356,-0.0661807059,-0.0883123377,0.0305516722
95705.711372,0.0969150211,1.39447767,-0.324527021,0.0429396556,-0.103234293,0.0207909198
95705.721401,-0.00012642624,1.15404876,0.864423821,0.0519960002,-0.0161467963,-0.000841670497
95705.731430,-0.342426536,0.48985928,0.141767718,0.0703768731,0.0396994254,-0.0108024253
95705.741459,-0.0848319044,-0.465896736,-0.228138777,0.0214857647,0.0535824834,0.000606023879
95705.751488,0.106253416,-0.399993099,-0.0985619641,-0.0809966697,0.0301016583,-0.0156887936
95705.761517,0.223562721,0.687751321,-0.316628376,-0.00908066692,-0.018451762,-0.0432298722
95705.771546,-0.00276868438,0.699058751,-0.30189258,0.0696623476,-0.0730348477,-0.0484914797
95705.781575,-0.485011738,-0.143241091,0.385695132,-0.0307433511,-0.0883626738,-0.0500443669
95705.791604,-0.596363596,0.120875426,0.638687897,-0.0118980257,-0.0194994496,-0.0522745045
95705.801633,0.16792179,0.0470576543,0.683213267,0.0943647699,0.102679459,-0.0222146044
95705.811661,0.313231667,-0.7338263,0.596540361,0.00755663229,0.142387991,-0.0160845386
95705.821690,0.463238177,-0.830257068,-0.291420285,-0.00373250722,0.103575607,0.0183160437
95705.831719,0.651753501,-0.228797031,-0.766800248,-0.0106809604,0.0483128852,0.0282821266
95705.841748,0.3735015,0.311395212,-0.875326674,-0.01888616,-0.0243517296,0.00181350083
95705.851777,0.16942708,0.43626297,-0.621439591,0.0184734633,-0.104317399,-0.0187538264
95705.861806,0.582560576,-0.0552901193,0.66336115,0.0339725242,-0.0535210655,-0.0122136342
95705.871835,0.333590784,-0.348812252,0.875233384,0.0684905575,0.0194641943,0.00399436353
95705.881864,0.171090557,-0.682306759,0.293186944,-0.0314248575,0.0800303346,0.00875076948
95705.891893,0.504100422,-0.0603105869,-0.130199211,-0.0630411057,0.078297419,-0.000245389356
95705.901922,0.272282548,0.544891176,-0.611057898,-0.0335292815,-0.038486457,-0.0264666079
95705.911951,0.189212343,0.284792233,-0.0432831445,0.042711422,-0.0813377821,-0.0203282869
95705.921980,0.436576819,-0.273344193,0.74816417,0.0658998342,-0.00551146226,0.00275279785
95705.932009,0.0723501964,-0.671481779,0.332408363,0.00548389428,0.0341336853,0.01350531
95705.942038,0.029570939,-0.543363459,0.0406717345,-0.0751949696,0.0650564483,0.0204787982
95705.952067,0.229458136,0.451317624,-0.37036172,-0.00835522251,0.0387731767,0.00448092277
95705.962095,0.595151032,0.407619681,-0.357024684,0.0257649311,0.0116073363,-0.00205074606
95705.972124,0.683940126,-0.0422050031,0.249226807,-0.0216246879,0.00406632988,-0.0106378419
95705.982153,0.388253517,0.0283612924,-0.100856213,-0.0213498509,-0.0289542047,-0.00348698889
95705.992182,-0.295095753,0.437562289,-0.437182509,-0.0234966239,-0.0681926855,-0.0259491539
95706.002211,0.220934273,0.441391821,0.199132696,0.00928582264,-0.0114665577,-0.0302903725
95706.012240,0.438219179,-0.0323777471,0.576371433,0.0291876254,0.0529920621,-0.019933339
95706.022269,0.246324661,-0.479188398,0.172325938,-0.0211160256,0.044316282,-0.00530353078
95706.032298,0.0935742593,-0.0761410471,-0.196659935,-0.0323548316,-0.0170269707,-0.00892383215
95706.042327,-0.157208135,0.402572809,-0.132743051,0.00737580391,-0.0597699085,-0.0130900813
95706.052356,-0.238609311,0.186542341,0.14436884,0.0703294726,-0.0361141139,-0.00206592569
95706.062385,0.0469530126,-0.446581283,0.65856281,-0.00826227838,0.0536858155,0.0107465416
95706.072414,0.159964548,-0.0198518403,0.452129552,-0.108466372,0.118562815,-0.0108133441
95706.082443,0.249451123,1.00238389,-0.653960051,-0.00591763096,0.0722467131,-0.0373392271
95706.092472,0.0465475736,0.574892858,-1.2439706,0.0815000982,-0.0520651178,-0.0387536304
95706.102500,0.0501194407,-0.734460725,-0.125203303,-0.0168991758,-0.0810392448,-0.025154732
95706.112529,0.253121482,-0.499089761,0.598796031,-0.0201311874,-0.0241594487,-0.0131984724
95706.122558,0.0838426274,0.0349439268,0.359668711,0.0215941538,0.0199249214,-0.000747927292
95706.132587,-0.147059374,-0.0195531496,0.194666949,-0.0251568387,0.0205776612,0.00470063387
95706.142616,-0.2708766,0.543352312,0.0100416184,-0.0671165361,0.0349701843,-0.0225277914
95706.152645,-0.191619085,1.18650778,-0.519792403,0.0328065978,0.00339121834,-0.0559286194
95706.162674,0.121255682,0.244465337,-0.349119026,0.0693662093,-0.0175585379,-0.0482017266
95706.172703,0.36094597,-1.02442238,0.464793803,0.0107212673,0.0118227866,-0.0143481584
95706.182732,-0.166543169,-0.828416408,0.0484020365,-0.0875653549,0.000701159438,-0.00877735747
95706.192761,-0.623972684,0.436973347,-0.546765166,-0.0438194721,-0.0583997094,-0.0404258313
95706.202790,0.014386887,0.714469598,0.23296833,0.0253327006,-0.0232073688,-0.0500345173
95706.212819,0.386988247,0.0127450778,1.0620799,0.0208778439,0.0738373375,-0.0321982222
95706.222848,-0.440955081,-0.217212099,-0.0433339979,-0.0279269795,0.0475516743,-0.0317574682
95706.232877,-0.725867343,-0.11647071,-1.0250578,0.0271059127,-0.0232154397,-0.0186254213
95706.242905,0.00709439186,-0.323066584,-0.262332138,-0.00510235863,-0.00681249754,-0.0075679755
95706.252934,-0.337340173,-0.303200292,0.0353683674,0.00253958175,-0.0361288437,0.00103323505
95706.262963,-0.494243749,-0.142562964,-0.0289904153,-0.0249959043,-0.0274229669,-0.00514769537
95706.272992,-0.17421743,0.0590954945,0.414139136,0.0213636031,0.0130855771,-0.00407550653
95706.283021,-0.437915494,-0.14215441,0.0464812976,0.0016314441,0.0295119541,0.00129955093
95706.293050,-0.708933452,-0.107499934,-0.0840401023,-0.0771496518,0.00246995032,-0.0221477186
95706.303079,-0.440949966,0.534889093,-0.336091786,0.041170329,-0.00499382479,-0.0304756889
95706.313108,0.271420086,-0.120296105,0.185319859,0.0610716009,0.0579310781,-0.0076382829
95706.323137,-0.300991168,-0.841322652,-0.0209444714,-0.0465808286,0.0192598491,0.00946933048
95706.333166,-0.713719225,-0.0141501855,-0.505551112,-0.0813183038,-0.0475873598,-0.00740019774
95706.343195,-0.182398033,0.912924351,-0.190572724,0.0596497395,-0.0373610878,-0.0137017684
95706.353224,0.135831246,0.0838112034,0.366816244,0.0889317246,0.0528367175,0.0100491002
95706.363253,-0.417035787,-0.729093499,-0.0921918446,-0.0554616711,0.044932188,0.0193677677
95706.373282,-0.80209477,0.167595009,-0.651214551,-0.108818635,-0.0683235326,-0.00356844143
95706.383311,-0.387769215,1.08564355,-0.0394352369,0.0724086763,-0.0953285196,-0.00598126539
95706.393339,0.201921675,0.226716092,1.02161812,0.149772443,0.0400889641,0.0174055492
95706.403368,-0.38953564,-0.884136688,0.496256863,-0.0324674061,0.118017582,0.017387707
95706.413397,-0.4458118,-0.057297235,-0.695036742,-0.126102276,0.0857656351,-0.0131188033
95706.423426,-0.272111841,1.00816584,-1.52813884,0.0480663182,-0.0696015829,-0.0279203857
95706.433455,0.148108252,0.103393262,-0.11254139,0.0501036385,-0.0941111842,-0.019289879
95706.443484,0.298676268,-0.795430669,0.936078605,0.0787621812,-0.0423894027,0.00765252177
95706.453513,-0.694931011,-1.18902711,0.18240894,-0.0279799773,-0.0226023798,0.016757602
95706.463542,-1.08846717,-0.337572664,0.112509475,-0.214079,-0.0163404891,-0.0117472744
95706.473571,-0.759243178,1.94154646,-0.375483886,0.0592374803,-0.0166430236,-0.0506033281
95706.483600,0.56100582,0.63639552,0.51359086,0.173954748,0.0560354381,-0.024559209
95706.493629,0.447585631,-1.38698494,1.50591672,0.0171954913,0.13229773,0.0331962315
95706.503658,-0.169465779,-0.846937204,-0.422375401,-0.137441479,0.0722303888,0.0646510927
95706.513687,-1.05163506,0.95919145,-2.42252689,0.261134647,-0.109757254,0.0501736162
95706.523716,-0.684725478,-0.84606327,-0.753266228,-0.0960415898,-0.0470163771,0.0315290933
95706.533745,0.725430512,-0.57531105,1.21534037,-0.0462660416,0.0291162091,0.013512009
95706.543773,0.612370535,0.361218616,0.630499914,0.0659595655,0.0529720052,-0.00746491162
95706.553802,-0.0409663131,-0.508144627,0.439779189,-0.0639973654,0.00749826475,0.0106491104
95706.563831,-0.591866796,0.523802722,-0.391559991,-0.0222435276,-0.0256058933,-0.00826892053
95706.573860,-0.44000136,0.679686965,-0.925458778,0.152037464,-0.00657467687,0.00625063403
95706.583889,-0.116573124,-1.27232586,-0.185571555,0.0342767389,-0.00392776126,0.0457812643
95706.593918,-0.519814755,-1.35242947,0.19948224,-0.0897328256,-0.0488515632,0.0665611161
95706.603947,-0.666894126,0.452197293,0.177218971,-0.0809174924,-0.0634962865,0.0279628543
95706.613976,0.0148353614,1.22491576,0.560107112,0.112287648,0.0268687675,0.0129002809
95706.624005,0.0905885215,-0.45769889,0.429000605,0.128239997,0.0934832147,0.0319719745
95706.634034,-0.694357522,-1.78869805,-0.078609894,-0.126126252,0.0377507074,0.0437444804
95706.644063,-0.907326392,0.0842495309,-0.567605125,-0.147588126,-0.0650976398,0.00305777014
95706.654092,-0.163389893,1.65744954,-0.485548188,0.105059564,-0.0269015194,-0.0192853527
95706.664121,0.648641726,0.26214738,0.974768109,0.0388089047,0.0952156013,-0.0154778304
95706.674150,0.0208909351,-0.612480176,0.0852029502,0.0309491177,0.0749428174,0.0263186173
95706.684179,-0.668159689,-0.643936331,-1.12146826,-0.0601091533,-0.0445521535,0.04406246
95706.694207,-0.540637617,0.353281941,-0.396073669,-0.069770038,-0.103430117,0.0338247364
95706.704236,0.0133032564,1.31117818,0.223842775,0.132563897,-0.0396010713,0.0129804417
95706.714265,-0.275587554,-0.206927455,0.912007994,0.04290884,0.0406868434,0.0180231372
95706.724294,-0.0728658646,-0.519600233,0.49140124,-0.0942215844,0.0927385888,0.0140659457
95706.734323,0.106008063,0.781243698,-0.210346515,0.0182317273,0.0734122968,0.00405379216
95706.744352,0.101561239,0.612024392,-1.14545294,0.0721436889,0.0476534045,-0.00703161565
95706.754381,0.297696537,-0.567791761,-0.705192225,-0.0236635263,-0.0363136665,-0.00502572285
95706.764410,-0.101398058,-0.521293702,-0.247710908,-0.0346373505,-0.136937211,-0.0120229123
95706.774439,-0.41215934,0.0274921906,0.505385342,-0.0668946205,-0.116283598,-0.0118623244
95706.784468,-0.522774336,0.763533927,0.822880096,0.0861889349,-0.0255094865,-0.0133979021
95706.794497,-0.132193887,-0.375841933,0.307214301,0.118624643,0.0813149637,0.0180931782
95706.804526,0.0380533015,-1.36176399,1.05281464,-0.144837879,0.145811399,0.0337491019
95706.814555,-0.0915419965,0.167036188,-0.580457008,-0.0431970133,0.0317093259,0.0249398986
95706.824584,-0.840937711,1.07470503,-1.04134726,-0.0079500767,-0.0738400021,-0.0183726864
95706.834613,-0.496635321,0.659484866,-0.346610258,0.0599890241,-0.0797322491,-0.0298959183
95706.844642,0.200688188,-0.281112817,0.629516748,0.0827073903,0.0625623143,0.00201008253
95706.854671,0.385643919,-0.879648437,1.06648895,-0.114510611,0.122730044,0.00549003499
95706.864699,0.198213907,-0.0246924076,-0.344818114,-0.032983791,0.0432887501,0.0255292563
95706.874728,-0.567117628,0.83708417,-1.18809382,0.0213079435,-0.0719427639,0.0030388615
95706.884757,-0.2723447,0.58097974,-0.312383579,0.0085625864,-0.0527059534,-0.02015594
95706.894786,0.33908076,0.274064685,0.45487096,-0.0310189108,0.0137196756,-0.0333106237
95706.904815,-0.203889296,0.108064478,0.231707517,0.0311597755,-0.0133484272,-0.0258375274
95706.914844,-1.1269705,-0.260154054,-0.376567005,-0.015579501,-0.0824776986,-0.023276897
95706.924873,-0.496579133,0.0548422575,0.764525523,-0.087506689,-0.037936064,-0.0399581397
95706.934902,0.192820012,0.561972586,1.57022114,-0.0110310883,0.088113477,-0.0593936199
95706.944931,0.0523976148,0.0588912543,1.16696124,-0.000124910656,0.148540085,-0.059380574
95706.954960,0.0132884973,-0.814055801,-0.765638218,0.1822742,0.131267091,-0.00373622013
95706.964989,-0.172097808,-1.78247143,-0.992737832,-0.0631390287,0.113104587,0.0113830773
95706.975018,0.233595528,-0.823207368,-0.714720517,-0.22759188,0.0101646217,0.016136287
95706.985047,0.84742593,1.2960018,-0.44951709,-0.00797617608,0.0344411968,0.00872577558
95706.995076,0.85981056,1.18829451,-0.677785747,0.154274516,0.0245680618,-0.0118130556
95707.005105,0.358028329,-0.891373581,-0.545391539,-0.0502485334,-0.0641258532,-0.00202460663
95707.015134,-0.182015098,-0.964809769,-0.0604067133,-0.120000452,-0.129249195,0.0152542481
95707.025163,-0.22354326,0.979150023,0.401244584,-0.0231053269,-0.109921838,-0.0181833355
95707.035192,0.250538553,0.773471676,1.055452,0.101145513,-0.0111119044,-0.0163348371
95707.045221,-0.0189446701,-0.816967232,1.01754342,0.0716547371,0.108294917,0.0187957195
95707.055250,-0.449654666,-1.18855255,-0.0671801529,-0.118131176,0.121649337,0.0225880613
95707.065279,-0.0851591636,0.452055035,-1.13089718,-0.112991013,0.0386910713,-0.006316291
95707.075307,0.525821109,1.26891287,-0.821630739,0.0205990096,-0.0331506306,-0.00924896432
95707.085336,0.128341914,0.656183559,-0.0888542246,0.0727791191,-0.093617166,0.00363993709
95707.095365,-0.395529108,-0.446835368,0.0565245527,0.0330018812,-0.0888724798,0.0260259362
95707.105394,-0.189838924,-0.542819232,0.599942279,-0.00145808908,0.00892971406,0.0544469265
95707.115423,-0.234747375,0.096530829,0.00788765528,0.0238968023,0.0537230163,0.0498306027
95707.125452,-0.325423306,0.130908863,0.0207851308,-0.0663617252,0.00960189613,0.024279969
95707.135481,0.260916154,0.441498094,0.360199456,0.0449853094,0.0123614636,0.0143234741
95707.145510,0.189759967,-0.0329156899,0.0551895047,0.0443203153,0.037797579,0.0145005744
95707.155539,0.242589932,-0.617276471,0.175456053,-0.0880039035,0.0380604318,0.0121122517
95707.165568,-0.793182345,0.531082211,-0.898312412,-0.0165310482,-0.0390740321,-0.0104817411
95707.175597,0.0553444088,0.956056806,-0.843245774,0.048279904,-0.0515211136,-0.0138027033
95707.185626,0.675874089,0.111840371,0.926363852,0.0505529122,0.0047530783,0.0125420859
95707.195655,-0.300992848,-0.636602701,0.0156302322,0.0531047547,0.0162217146,0.0430613777
95707.205684,-0.557544401,-0.590591549,-0.335884866,-0.0451158209,-0.0574873933,0.029099757
95707.215713,-0.712927709,-0.11834729,-0.288091433,0.0429699273,-0.0986386263,0.0328002183
95707.225742,0.0436443995,-0.0954629662,1.27589508,-0.0363139732,0.0580194271,0.0351677669
95707.235771,0.512574528,0.459739854,0.666151658,0.0514470377,0.154160609,0.0321445485
95707.245800,0.13910698,0.00694997248,-0.709889443,-0.0104999522,0.11207973,0.0361834971
95707.255829,-0.0185975371,-0.0724043722,-1.35364152,-0.087008573,-0.0272392803,0.0102222051
95707.265858,0.0163247962,0.983241969,-1.07449316,0.0283028373,-0.123382593,-0.0203072073
95707.275887,-0.053844061,0.0663849163,-0.503211271,0.15362107,-0.174550171,0.00756410433
95707.285916,-0.356807675,-1.36839875,1.25404098,-0.0117455133,-0.107606294,0.0455130843
95707.295945,-0.0610081804,-0.451973534,1.81052511,-0.0928110703,0.0418351306,0.0480601324
95707.305974,-0.110998684,1.26019034,0.670575319,0.00630352846,0.159161766,0.0166281743
95707.316003,-0.752645241,0.749208903,-1.21081477,0.112022773,0.0526052205,-0.00198652392
95707.326032,-0.201139486,-1.03329301,-0.802007755,-0.0141572718,-0.0308342805,0.00924828759
95707.336061,0.868897903,-0.817323352,1.15806716,-0.0755628421,0.021920809,0.0149053747
95707.346090,0.773629165,0.471913983,0.445465418,0.03375832,0.0544148399,0.028845424
95707.356119,-0.413477729,0.192458561,-1.26669214,0.11381907,-0.0241923561,0.0289357064
95707.366148,-0.400675166,-0.970811932,-0.928988706,-0.0261497515,-0.0510540628,0.0406498892
95707.376177,0.375119749,-0.413415255,0.0921914939,-0.0855382456,-0.0327885063,0.0279503355
95707.386206,0.106171583,0.85537123,0.729725427,-0.12183553,-0.0219752756,-0.00177986251
95707.396235,-0.111516352,2.17956071,0.0278058232,0.0490174332,-0.0513230437,-0.0493934544
95707.406264,-0.163911213,0.677247974,-0.091495679,0.256265961,-0.0330420384,-0.0125949605
95707.416293,-0.255679177,-1.69981244,0.970603391,-0.0498604103,0.0735682896,0.0197174402
95707.426322,0.398173365,-1.09354589,0.415127563,-0.114475615,0.103571994,0.0393153785
95707.436351,0.774411474,0.405236768,-0.290444718,-0.0282917319,0.0852672881,0.0264400581
95707.446380,0.216829248,1.18833112,-0.642485886,-0.0212258341,-0.00135788057,-0.0174573584
95707.456409,-0.0160186996,1.02838562,-1.19161614,0.0720836074,-0.107723201,-0.0465878116
95707.466438,0.0721820733,-0.437134679,-0.0106849432,0.0307915603,-0.100972625,-0.0250809228
95707.476467,0.287615288,-0.669147199,1.03235813,-0.0410653202,-0.0158228414,-0.0230848862
95707.486496,0.217202393,-0.179843523,0.431447999,0.0509375745,0.0341122313,-0.00900422019
95707.496525,-0.165428778,-0.828677909,-0.0432340447,0.0691772999,0.00445766418,0.0151346719
95707.506554,-0.409310088,-1.27911917,-0.0124998837,-0.110991403,-0.0188873397,0.0295338521
95707.516583,-0.43771113,0.259300502,0.217819861,-0.119073301,-0.0179142212,-0.00195989275
95707.526612,0.377968562,1.32348792,0.389385219,0.0718633683,0.0429970673,-0.00743721595
95707.536641,0.244252385,0.377903611,0.124704355,0.0900642054,0.0691346577,0.00611720903
95707.546670,0.516341114,-0.921511237,0.34866684,-0.0636619701,0.109397126,0.0226599669
95707.556699,-0.0705909784,-0.0493653141,-1.14525362,-0.0495879686,0.0442016176,0.0107345974
95707.566728,-0.0585533346,0.598976183,-2.0450146,0.031559881,-0.112720894,0.0111215545
95707.576757,0.046712701,0.211937132,0.108407885,0.00130797086,-0.174545372,0.0147397259
95707.586786,-0.100931683,0.331713449,1.47554672,-0.021899348,-0.127837519,0.00252353929
95707.596815,-0.441271161,0.742295178,1.65876218,0.0146594626,0.00396284877,-0.0273163801
95707.606844,-0.722533742,0.360325832,0.84876331,0.058067389,0.111809952,-0.0456013771
95707.616873,-0.358627584,-0.804336956,-0.429095649,0.118175738,0.151366418,-0.0156224406
95707.626902,-0.361644813,-1.92399207,-0.528591211,-0.0584214068,0.0788730434,0.0152867382
95707.636931,0.503827597,-1.03714377,-0.223273216,-0.154519178,0.0313049904,0.0350476598
95707.646960,0.913528853,0.983993737,0.0557664278,-0.0150387779,0.0462985872,-0.000785438172
95707.656989,-0.397151741,1.00844465,-1.33099364,0.0687522591,-0.0537720868,-0.0403461622
95707.667018,-0.937516582,-0.306513947,-1.03603337,-0.107301861,-0.124097379,-0.0526837872
95707.677047,-0.0371195015,0.136978593,0.145809102,0.0229879656,-0.116251449,-0.0317484157
95707.687076,0.431270456,-0.298149402,1.49547658,0.0936336444,-0.0260283393,0.0207731167
95707.697105,-0.600765776,-1.29405721,1.35854122,-0.0327940731,0.035961797,0.0482974185
95707.707134,-1.54885729,-0.066519004,-0.177406953,-0.140414812,0.0411299257,0.011987881
95707.717163,-0.0264666631,1.05516264,-0.2780587,0.0218270944,0.0978115773,-0.00271516462
95707.727192,0.691494998,0.220834779,0.374678064,0.073311329,0.122812001,0.00332541734
95707.737221,0.102318561,-1.17689272,-0.613589462,-0.0406077875,0.0551219075,0.0557521416
95707.747250,0.0592678659,0.189398936,-0.795385706,-0.121749244,0.0129536814,0.0257508309
95707.757279,-0.0862155408,1.70211768,-1.73245613,0.124280229,-0.0579684289,0.00182206294
95707.767308,-0.0537552867,-0.227595235,-0.886630158,0.0862516241,-0.150548691,0.0199323578
95707.777337,-0.248814917,-1.41914329,1.18968336,-0.0712517126,-0.142066787,0.0390101803
95707.787366,0.206599823,0.0572325456,1.75105293,-0.0622968412,0.0459672934,0.026660301
95707.797395,-0.0810918411,1.19434461,0.378720033,0.0680545123,0.128549253,-0.000479174606
95707.807424,-0.771574836,0.162080539,-0.976298738,0.00038784872,-0.0118954764,-0.0300823411
95707.817453,-0.0866706642,-1.30380163,-0.420540586,0.0856593402,-0.0150276195,0.0288451576
95707.827482,0.437309444,-1.16290621,0.619057898,-0.154268585,0.0620898022,0.0310286844
95707.837511,0.123645792,0.594711109,-0.410222021,-0.0491099319,-0.013775135,0.0113367384
95707.847540,-0.390277763,0.867117854,-0.690010438,0.0707538949,-0.0894928002,0.0170819742
95707.857569,-0.33512805,-0.340969978,0.0779373431,0.0422913545,-0.0908637964,0.035165107
95707.867598,0.123306915,-0.371470403,1.24813263,-0.039645057,0.0348057164,0.0291253218
95707.877627,0.0938330564,-0.0393678708,0.646829117,0.0484688246,0.115478185,0.0498207493
95707.887656,-0.634675864,0.00579616281,-0.892072641,-0.0194497722,0.0131049486,0.0248980878
95707.897685,0.314334587,0.114712656,0.000730769266,-0.0808273776,0.0213114782,0.0135996269
95707.907714,0.527683396,0.777044493,-0.309320684,0.0939321817,0.0310503929,0.0107058354
95707.917743,0.4989993,-0.439942247,-0.378039415,0.0844385476,0.00627101023,0.0445021449
95707.927772,0.231238371,-1.08503686,-0.128339263,-0.0981376542,-0.0315344246,0.0427167622
95707.937801,-0.292063619,0.128899651,-0.494899954,-0.0740781276,-0.110991436,0.0220501033
95707.947830,-0.0225824421,0.942361238,0.395131654,-0.014278978,-0.0843214789,-0.00312955288
95707.957859,0.0662797174,0.752063488,1.06290875,0.0326560364,0.00934296703,-0.0113563238
95707.967888,-0.519698728,0.0920957327,0.367686013,0.0444836692,0.00114549076,-0.0167819819
95707.977917,-0.52195827,-0.944915639,0.219765734,0.0494065212,0.0256766653,0.0202593936
95707.987946,0.616624539,-1.01890873,0.694360684,-0.00276426865,0.181325649,0.046295522
95707.997975,0.0840155728,-0.0567921213,-0.789086899,-0.0620656757,0.090781366,0.0394906124
95708.008004,-0.29541103,0.702785224,-1.70842936,-0.0525249018,-0.077810044,0.0186604319
95708.018033,0.947381876,0.885975627,-0.0702442167,0.0964765699,-0.0139093581,0.0128632618
95708.028062,0.201381065,-0.418399145,-0.6168131,0.135972567,-0.0784822279,0.0235750286
95708.038091,-0.13930781,-1.83007548,0.149012867,-0.073784381,-0.0764102885,0.0392373448
95708.048120,0.332780636,-0.662107363,0.868299201,-0.0979038327,-0.0460137637,0.0411518944
95708.058149,-0.317906209,0.854498392,0.188634099,0.00166030719,-0.0461597056,0.0257779958
95708.068179,-0.116201075,0.881761078,0.585444967,-0.0196164864,0.00100620745,-0.0075978039
95708.078208,-0.100670548,0.421842925,0.588782587,-0.00476723198,0.0212654057,-0.013473803
95708.088237,-0.412557546,0.163682804,-0.0501623826,0.0545975567,0.0471164449,0.00392409571
95708.098266,-0.26244363,-0.399906735,-0.499560347,0.0316272603,-0.00525435157,0.0102600224
95708.108295,-0.0121794137,-1.27620796,0.0597581278,-0.0108269889,0.030012825,0.0624228252
95708.118324,0.501228301,-0.098945575,0.569490442,-0.192284398,0.117279281,0.0394029936
95708.128353,0.739465614,1.90504804,-0.823895177,0.0246567038,0.0476882248,-0.000419786028
95708.138382,0.162548865,0.944192472,-1.02053828,0.138658099,-0.0784129897,-0.0142642295
95708.148411,0.334393771,-1.22803773,0.229284673,-0.0461615472,-0.0702674413,0.0275394099
95708.158440,0.317191072,-0.16151699,0.646468467,-0.114888407,-0.0224141651,0.0053723228
95708.168469,-0.5913823,1.23663659,-0.350765624,0.00807532961,-0.0971336761,-0.0220872646
95708.178498,-0.732492314,0.578426731,0.245429752,0.0936118068,-0.134547094,-0.0196536685
95708.188527,-0.105139145,-0.790160766,1.71803971,0.0605920666,0.0492821275,0.0273364765
95708.198556,0.206790816,-0.494286782,1.65130017,-0.0850274487,0.229124864,0.0149176253
95708.208585,-0.127152824,0.646457553,-0.90602927,-0.0538253224,0.204220851,-0.0031255575
95708.218614,0.0759866532,0.816235151,-2.08170737,0.0411210844,0.014421999,-0.0216047147
95708.228643,0.314819813,-0.275101211,-1.26888526,-0.024676036,-0.126402492,-0.0234710591
95708.238672,0.549354399,-0.212312728,0.757447547,-0.0145981031,-0.0905973637,-0.0166853236
95708.248701,-0.597337702,0.148313404,-0.0601758271,0.0415112378,-0.102450291,-0.0313721242
95708.258730,-0.0956401526,-0.747833344,0.544214546,0.0608883986,-0.00074230685,0.0085404042
95708.268759,0.182239727,-0.838243025,1.18249491,-0.139532305,0.114098256,0.00340023701
95708.278788,-0.212035193,0.574879048,-0.0766178434,-0.0511161684,0.0672639063,-0.0207754074
95708.288817,-0.238127446,0.704372859,-0.996039796,0.0842112975,-0.0532521182,-0.0208289361
95708.298846,0.607687784,-0.747249406,0.669242609,0.0501768963,0.0258136703,0.0218367671
95708.308875,0.0343988706,-0.815117585,0.353556365,-0.0935821383,0.078033728,0.0215459524
95708.318904,-0.0908699425,0.340941479,-1.12832879,-0.0462910532,0.0267223413,0.000893136659
95708.328933,0.432103473,0.385219487,-0.836667565,0.0211433844,-0.0506036044,0.00371022866
95708.338962,0.283769426,-0.248849072,0.0191800337,0.00808270848,-0.0853892886,0.0125873435
95708.348992,-0.497810867,-0.317797959,0.387328286,-0.0863351374,-0.106262612,-0.0110151878
95708.359021,-0.0347475116,0.210178708,0.748330175,0.0715607481,-0.0203977679,0.00808979681
95708.369050,-0.112614011,-0.5529852,0.646587125,0.0883495809,0.0430792099,0.0409076644
95708.379079,-0.776765025,-1.01460702,0.709358347,-0.172784008,0.0618744692,0.030972209
95708.389108,0.252222341,0.799108002,-0.124739777,0.0019409269,0.15602014,0.0191762691
95708.399137,0.479090411,1.25806823,-0.816569364,0.0177574401,0.0737116835,-0.0221828872
95708.409166,0.280363051,-0.209146555,-0.776201113,0.0331742132,-0.0450125658,0.00969035661
95708.419195,0.118732593,-0.780048464,-0.281314487,0.0157696569,-0.0652938732,0.0316734223
95708.429224,-0.114060264,-0.364119054,-0.310619491,-0.0455221979,-0.0547333681,0.0235278757
95708.439253,0.297092726,0.559829619,0.143255326,-0.0444657205,0.00347347717,0.00394272263
95708.449282,-0.336917856,0.491470807,-0.0512297196,0.0584454799,-0.0667026812,0.00946212391
95708.459311,-0.093975142,-0.296292778,0.283462254,0.0423839541,-0.0203777929,0.0163557159
95708.469340,0.173256795,-0.32572656,1.02315775,-0.136178858,0.0693638078,0.00301008363
95708.479369,-0.231745344,1.36961693,-0.192733117,-0.0222813206,0.058889599,-0.0335977281
95708.489398,-0.303504612,0.746212059,-1.5180722,0.229670502,-0.0716726729,0.00100312539
95708.499427,0.0704274117,-1.62313003,0.525721443,-0.0692299231,-0.026621575,0.0444704426
95708.509456,0.175361804,-0.411422438,0.7678421,-0.0951291619,0.0317131071,0.0427391214
95708.519485,-0.189870415,1.45994427,-0.798116008,0.0843910576,0.0354218236,0.0155216141
95708.529514,0.0796525553,0.00741478612,-0.669546911,0.0795789958,-0.0376273529,0.0327914154
95708.539543,-0.558421842,-1.0147842,-0.126657009,-0.0122451986,-0.131163428,0.0391039049
95708.549572,-0.593762985,-0.0682148892,0.917055341,-0.136909358,-0.0705767819,0.00874413567
95708.559601,0.220749271,1.41048261,1.18097574,0.0762772114,0.0563124581,-0.023678785
95708.569631,0.21923536,0.126027922,0.226901578,0.246410601,0.135080238,0.0158206878
95708.579660,-0.179148238,-2.13068062,-0.189412448,-0.021981716,0.110810583,0.0479871465
95708.589689,-0.29774203,-1.48964043,-1.18059323,-0.231743194,0.0299599464,0.0671360774
95708.599718,0.601411553,1.02813588,-1.14547516,0.00222348831,-0.0578990677,0.0420661403
95708.609747,0.165820946,1.21856493,-0.435953844,0.15701174,-0.13315628,0.00365190551
95708.619776,-0.175043579,-0.98201707,0.766244601,-0.0557292959,-0.0909747356,0.013937833
95708.629805,-0.791869144,-0.378725379,0.503961446,-0.0055721168,-0.0611779527,0.00997691339
95708.639834,-0.0449813209,0.161093665,0.763782011,0.00581795689,0.038851445,0.00626313517
95708.649863,0.801067133,-0.063405402,1.53134751,0.018026421,0.161965375,0.0247225689
95708.659892,-0.502601243,0.136642913,-0.555773233,-0.0339329204,0.0637024617,0.00579468504
95708.669921,-0.61229379,0.396213686,-1.41066222,-0.0060746552,-0.0412066416,-0.00679194724
95708.679950,0.597748355,0.207877189,-0.362637848,0.0848437996,0.000362905058,0.0147093499
95708.689979,0.670381337,-1.01202526,0.209887314,0.0260486604,0.00503994847,0.0572578741
95708.700008,0.00470406266,-0.74452758,0.337415378,-0.172468953,-0.0545472117,0.0320412053
95708.710037,-0.637477331,1.44443997,-0.180621239,-0.0217012855,-0.0769827539,-0.00798317959
95708.720066,-0.342854114,1.76368303,-0.797126997,0.169088118,-0.0147137833,-0.0351226533
95708.730095,0.61698307,-0.646213117,0.922098011,0.0149091912,0.050163751,-0.0148288345
95708.740125,-0.426862112,-1.33745314,0.0299568638,-0.00434759525,0.0196393965,0.0251587948
95708.750154,0.0728063427,-0.57272761,-0.172812026,-0.117589466,-0.0304059279,0.00846050883
95708.760183,0.0779974816,0.90191342,0.351266793,0.00695246332,-0.0429398255,-0.0289387943
95708.770212,-0.396853854,0.734470914,0.0826187789,0.0807161631,-0.0227751718,-0.0301108526
95708.780241,-0.0120599521,-0.501091384,0.599949877,-0.00334438249,0.0586786768,-0.0243104862
95708.790270,0.325048362,-0.891221166,0.484759318,-0.119239561,0.0959200537,-0.0121369118
95708.800299,-0.109391615,0.257063281,-0.565066546,-0.0342463738,0.0106546911,-0.0155122018
95708.810328,-0.29515026,0.473154887,-1.323261,0.152956016,-0.0722481856,-0.00451574271
95708.820357,0.34638268,-1.24938425,0.317032515,-0.0732180102,-0.0307281693,0.0217723196
95708.830386,-0.584208975,0.06643466,0.576344545,-0.156528599,-0.00223394347,0.00431023881
95708.840415,-0.835558063,2.00862707,-1.24333347,0.140162192,-0.0688657039,-0.0314584093
95708.850444,0.657425921,-0.154037393,0.916425811,0.0190298987,0.0250967475,-0.00525849854
95708.860474,0.244288625,-0.397814293,1.90995871,-0.115833111,0.101826412,0.00277838873
95708.870503,-1.22534758,1.10549136,-1.68859945,0.123320885,-0.00916322184,-0.0221024601
95708.880532,-0.399505391,-0.255007522,-0.622252661,-0.030468678,-0.0421099835,-0.0244345905
95708.890561,0.80602366,-0.709497476,1.30568816,-0.0557713731,0.0989113128,-0.00565690716
95708.900590,0.464524856,0.352740272,-0.0629172348,-0.0163653752,0.0814103535,-0.0222241672
95708.910619,-0.498251451,0.388628674,-0.957913771,-0.0391841418,-0.0754050934,-0.0409435237
95708.920648,-0.463278848,0.308979018,-0.62523723,0.0594215283,-0.110918882,-0.0354278514
95708.930677,0.541295523,-0.337497808,0.967559201,-0.00548423255,0.0251848972,-0.0268221142
95708.940706,0.674615029,-0.409370401,1.44476755,-0.133791335,0.122727429,-0.0222587882
95708.950735,-0.394617327,1.01845532,-0.524890603,-0.0360868833,-0.00548672819,-0.0606921965
95708.960764,-1.48834261,0.738585656,-1.43309441,0.0788863079,-0.183633829,-0.0850587951
95708.970793,0.238025546,-1.13457692,1.56815895,-0.00633591121,-0.0508113304,-0.0367016437
95708.980823,0.631818236,-1.21154165,2.3392462,0.106607147,0.210614403,-0.0145486703
95708.990852,0.454075577,-1.24696681,0.125809101,-0.210428856,0.273404559,0.0202545842
95709.000881,0.293725441,0.804571455,-1.62289451,-0.085139647,0.196139326,-0.0378358828
95709.010910,0.71691264,0.859277443,-3.53810854,0.233112373,-0.0283049592,-0.00802712125
95709.020939,1.15059464,-1.80968048,-0.320837519,-0.0602414867,-0.142904515,0.0233542381
95709.030968,0.712578191,-1.1415084,0.746719232,-0.144633867,-0.133631656,0.0718080534
95709.040997,-0.12133347,1.375494,-0.0487893407,-0.0207806303,-0.10936253,0.00860352086
95709.051026,-0.17802749,1.05871595,0.00573076951,0.143756129,-0.121782179,-0.013053838
95709.061055,0.0449852196,-1.04844901,1.65325482,-0.067742817,0.00586393053,0.0248370861
95709.071084,-0.380323721,-0.133639114,1.05940746,-0.0250866952,0.0825728229,0.0351605622
95709.081114,-0.0278750686,1.17275602,-0.408954778,-0.0239196977,0.138299992,-0.00456900598
95709.091143,0.505218905,0.65350981,-0.488674796,0.0308617932,0.0829054466,-0.00965378044
95709.101172,0.499078721,-0.287297424,-0.923700536,0.070129037,-0.0176914637,0.0055749744
95709.111201,0.30719699,-1.16069876,-0.239184487,-0.0097080058,-0.100910189,0.0385449065
95709.121230,0.00784689073,-0.026633856,0.566663694,-0.139663063,-0.0266929479,0.0164776893
95709.131260,0.00416827528,1.66123782,-0.614664398,0.104731485,-0.0338374065,-0.00939651748
95709.141289,0.0162972506,0.133351763,0.259115163,0.0542763026,-0.02531343,0.00386096368
95709.151318,0.201580607,-1.02351067,0.740239807,0.00690372721,0.00918196278,0.0228232035
95709.161347,-0.358054606,-0.676597296,-0.0135035078,0.00476494305,-0.0067701056,0.028075224
95709.171377,-0.75261901,-0.27726975,-0.423393638,-0.0663393288,-0.0283278623,0.0202548506
95709.181405,-0.0567116523,0.693567533,0.285511003,-0.0700903906,0.0291697862,-0.00519777817
95709.191435,0.234351169,1.20892324,-0.0225022223,0.141933464,0.0242527905,0.0137370305
95709.201464,0.252111355,-0.523837322,-0.245131997,0.117315188,0.0284917443,0.0589644296
95709.211493,-0.525566012,-1.2431398,0.0902070421,-0.162310861,-0.0291688876,0.0489714501
95709.221522,-0.589584019,0.928398033,-0.788072753,-0.0269897318,-0.0426834994,0.00389653089
95709.231551,0.298142746,1.06797682,-0.41395244,0.161134906,-0.0106565901,-0.00568339211
95709.241580,0.497541064,-1.08780355,0.624261896,-0.0089524089,0.0344243324,0.0224816671
95709.251609,-0.115326923,-0.731342885,0.24917946,-0.154354878,-0.0179757555,0.0180690756
95709.261639,-0.978304885,1.22057641,-1.02690255,0.0396604018,-0.133846427,-0.00236003363
95709.271668,-0.639830836,0.568550941,-0.146007606,0.147710182,-0.150091449,0.0019670708
95709.281697,0.373866315,-1.04614804,2.34227928,0.000561734212,0.0559735684,0.0447001552
95709.291726,-0.379740953,-0.299605556,1.20320219,-0.0797759815,0.186906551,0.035977768
95709.301755,-0.195745956,0.564509119,-1.49685815,0.0989112036,0.111891692,0.0276769606
95709.311784,0.253325261,-0.795805494,-0.962875778,-0.106504001,0.0142578142,0.0288303776
95709.321813,0.285664446,-0.117009411,-0.340444721,-0.0441761723,-0.0942241871,0.0264239443
95709.331842,-0.080706422,0.887223873,-0.310168241,0.096926883,-0.104609455,0.0180371163
95709.341871,-0.213785909,0.141952637,0.497848516,-0.0445082708,-0.0151634575,0.0076084446
95709.351901,-0.160165962,0.67792865,0.47169876,-0.00940780887,0.0132250408,-0.0181517804
95709.361930,0.633073497,0.130914471,-0.0288448693,0.153275915,0.096233373,0.00978424697
95709.371959,0.334571685,-1.45190121,0.103182259,-0.104265883,0.0479044555,0.0143576937
95709.381988,-0.721361045,-0.148177306,-1.14981815,-0.0687907113,-0.0973952138,-0.0127010875
95709.392017,-0.517662473,0.706624802,-0.884705912,0.0385277608,-0.170830021,-0.0118398208
95709.402045,0.600859253,0.0911434095,2.0397781,-0.00787169799,-0.0183640444,0.00275110517
95709.412075,0.248989643,-0.00980890941,1.37923329,0.0576822796,0.109649842,0.0190911965
95709.422104,-0.19657247,-0.314438347,-0.0453260485,-0.0150084373,0.130703201,0.0215010905
95709.432133,-0.484838938,-0.0637335699,-1.1891103,-0.00950155301,-0.00295606026,0.0149236156
95709.442163,-0.678235604,0.415968845,-1.02347492,-0.0883292554,-0.096430088,-0.0205214599
95709.452192,0.489013035,0.679121732,0.421345707,0.00419907937,-0.0267910851,-0.0275801661
95709.462221,0.494256635,0.442084808,0.631957712,0.0708987491,0.0287581938,-0.0216730105
95709.472250,-0.415956687,-0.603893294,-0.0148286189,-0.00731243413,-0.0139149675,-0.0113679104
95709.482278,-0.481876143,-0.741061877,-0.325248905,0.027748082,-0.00945603711,0.0220201408
95709.492308,0.382450676,-0.551488824,0.287448109,-0.0506631023,0.0347780003,0.0206536727
95709.502337,0.139140882,0.136875096,0.530105941,-0.0995781867,0.0349937169,0.0136618094
95709.512366,-0.222011739,1.14206986,-0.386355408,0.0382254907,-0.0298302849,-0.00254006294
95709.522396,-0.288971571,0.306309287,-0.490182278,0.0770394654,0.000960650704,0.0012584037
95709.532425,0.704608747,-0.827503166,0.675953505,-0.0663440673,0.0653612069,0.0106226105
95709.542454,-0.0322624899,-0.141932,0.00968213749,-0.0934095009,0.0455922982,0.000620576725
95709.552483,0.272899584,0.960474622,-0.616487521,0.0208579508,-0.0221960661,-0.0281687247
95709.562512,-0.395222892,-0.070748682,-0.759432934,0.0583741703,-0.139468367,-0.0209339837
95709.572541,-0.42152718,-1.14604195,0.620104192,-0.00292327847,-0.0697494694,0.0190099703
95709.582570,0.581387148,-0.76644284,1.59777609,-0.0296302567,0.0927036157,0.0111531123
95709.592599,-0.156431306,-0.692202861,0.0108435825,0.0433147923,0.105132861,0.0500765426
95709.602629,0.188540435,-0.776182948,-0.374502473,-0.0564405619,0.0937031037,0.0504656305
95709.612658,-0.346646711,0.0645496043,-1.03813239,-0.143362947,-0.0161075485,0.0174914358
95709.622687,-0.0942560778,1.31348179,-0.74963927,-0.0478441453,-0.116176622,-0.00719713309
95709.632716,0.313563091,1.08796842,0.550664745,0.16206675,-0.11588421,0.010893454
95709.642745,-0.197492727,-0.63863311,1.34800346,0.0396553428,0.033391559,0.023716042
95709.652774,-0.0524634933,-0.815431693,0.789467072,-0.0749412774,0.189419245,0.015624026
95709.662803,0.244232438,0.127881323,-1.17668979,-0.00194802867,0.12917987,0.0146130912
95709.672832,-0.0888334682,-0.35710238,-1.38472406,-0.0848849936,-0.0891527334,0.0209940245
95709.682862,-0.208454119,0.196555603,-0.164757315,-0.00274777585,-0.175513724,0.0420479124
95709.692891,0.93391062,0.651336484,1.33510949,0.0491045044,0.0585714816,0.0303734114
95709.702920,0.0338424058,0.626910557,0.262693606,0.0458932632,0.115754878,0.00816105044
95709.712949,-0.439694486,-0.164968884,-1.61064235,-0.0485032796,-0.0334330113,-0.00572919828
95709.722978,-0.647213201,-0.194223766,-0.378989263,-0.0638071372,-0.173100094,-0.00161967502
95709.733006,1.14255585,0.203302319,1.47236283,0.0639255272,0.0109855882,0.0271131715
95709.743036,0.552374843,0.801487152,1.17139426,0.156466924,0.129322623,-0.000345085575
95709.753066,-0.621845682,-1.01825151,-1.55132449,0.0528707468,0.0442215702,0.0352358131
95709.763095,0.123585147,-1.49251292,-0.491434908,-0.167789452,-0.0210652897,0.0468546508
95709.773124,0.814334684,0.496057733,-0.0492014286,-0.0669882818,-0.0208722097,0.00943670439
95709.783153,0.116696265,1.26772293,-0.174151166,0.0872540177,-0.121403078,-0.0250554921
95709.793182,-0.405604439,-0.442668019,0.169215697,0.107093766,-0.157807166,0.0139443708
95709.803211,-0.473465092,-1.45419312,1.45008319,-0.00605835147,-0.0223108498,0.0653665496
95709.813239,0.5463672,-0.606224185,1.49303912,-0.106241144,0.263775249,0.0733925162
95709.823270,0.431461229,1.0900784,-0.990312066,0.0936780946,0.241129314,0.0426849408
95709.833299,-0.170914443,-0.277764146,-3.19883801,0.0035708399,-0.0939243161,0.0458258709
95709.843327,0.53014869,-0.783063355,0.220883925,-0.215653114,-0.199672321,0.0393362811
95709.853357,0.438947713,1.62048276,1.14769014,0.0114258334,-0.066293756,0.0231200253
95709.863386,-0.411675795,2.12537407,-0.512942391,0.257619374,-0.103585201,-0.0320412273
95709.873415,-0.550908105,-0.745474213,0.481441571,0.0782578589,-0.0438470343,-0.019876709
95709.883444,-0.543715198,-2.42612151,1.19566361,-0.12546464,-0.00972927784,0.0496815985
95709.893474,0.104314484,-0.31730623,0.945953518,-0.0693246721,0.100557548,0.056495296
95709.903503,0.367501529,1.58034774,0.0599726473,0.14838209,0.138339539,0.0227389281
95709.913532,0.0371212813,-0.446030371,-1.21305933,0.0603070931,0.0762732452,0.0594796335
95709.923560,0.0626002252,-0.99812474,-0.492251485,-0.180427484,-0.0280928375,0.0539000427
95709.933590,0.19083008,1.21270217,-0.973962989,0.14245256,-0.134776677,0.0612064248
95709.943619,-0.14733841,0.501951759,0.201049343,0.0704563932,-0.116669575,0.0794562681
95709.953648,0.396464296,0.510987481,1.93076535,-0.154829718,0.120119264,0.0256316533
95709.963678,0.187815993,1.88333612,-0.582455488,0.153848492,0.0754548586,-0.0357624645
95709.973707,-0.381863863,-0.274182324,-1.56904544,0.0989482255,-0.0342207724,-0.0186990591
95709.983736,0.312757182,-2.14212,0.327003874,-0.0431806854,-0.071544441,0.0141552931
95709.993765,0.805452655,-0.784822035,0.529136804,-0.0534383802,0.0342967673,0.0323822332
95710.003794,0.0638460605,0.453611945,-0.50508291,0.015149465,-0.0449519814,0.025923269
95710.013823,-0.650583846,0.202961397,-0.365468103,-0.0653456448,-0.14034375,-0.000444954089
95710.023853,-0.0730995272,0.592788105,0.881934927,-0.0338865182,-0.0808897415,-0.024179844
95710.033881,-0.120091069,0.969777215,1.00825888,0.12950135,-0.000432182602,-0.0280922929
95710.043911,-0.796683631,-0.558695431,0.0285277077,0.14133776,0.0409227139,0.0130908286
95710.053940,-0.581666816,-1.37332072,0.437685432,-0.26286722,0.125627746,0.00996534264
95710.063969,0.110547825,1.0679039,-0.466112251,-0.0791634543,0.074942728,-0.0219443867
95710.073998,0.382432848,2.36590146,-0.620454671,0.0537370743,-0.0206351881,-0.0873052867
95710.084028,0.0158169198,0.602169024,-0.142264912,0.142611288,-0.0820247778,-0.0527611541
95710.094057,-0.250348922,-1.00206164,0.399569928,0.00734427305,-0.0163435047,-0.0239798406
95710.104086,-0.607911264,-0.297753936,0.263698984,-0.128847919,-0.0178231565,-0.0366527604
95710.114115,-0.30498316,1.13434015,0.000335632469,0.0538449326,-0.0196940271,-0.0573050397
95710.124144,0.579621162,0.0255513861,0.812552179,0.138260223,0.0847841776,-0.0285247916
95710.134173,-0.277784626,-1.16555753,0.0524387447,0.0423019902,0.0914836279,-0.00998785981
95710.144203,0.0504062218,-0.859325707,-0.737882781,-0.195618681,0.13606893,-0.0271258334
95710.154232,0.713926537,1.04714884,-1.11456564,-0.112284124,0.0146769951,-0.0698999258
95710.164261,-0.0893678674,1.29045455,-1.66395425,0.171416037,-0.198565776,-0.0752933638
95710.174290,-0.399088919,-0.857742967,0.375024101,0.0599832499,-0.226684222,-0.036704691
95710.184319,-0.395028903,-1.10636424,2.00762472,-0.115877263,-0.0696152472,-0.0273612568
95710.194348,-0.183333414,0.590321861,1.36567589,0.037263293,0.160519948,-0.0193249004
95710.204378,-0.642033168,0.304295536,-0.354664385,0.017134851,0.114187872,-0.0340095701
95710.214407,0.14131735,-0.209601387,0.0633149435,-0.0644915699,0.0636328212,-0.0348455364
95710.224436,0.422219354,0.0987753931,-0.333753699,0.110965371,0.0272331028,-0.0178482102
95710.234465,0.360164318,-0.989534022,-0.246948691,0.00646213176,0.0472962944,0.0073767199
95710.244494,0.193487609,-0.475989785,-0.258707518,-0.120741896,0.017233198,-0.00911836775
95710.254523,-0.147660701,1.08172974,-1.37796231,-0.0228659304,-0.0234324714,-0.0489613878
95710.264553,0.195848858,0.420949227,-0.811560596,0.0820399748,-0.127951155,-0.0410384813
95710.274582,0.140107024,-1.21517562,0.769819537,0.0210637098,-0.12276944,0.00272763957
95710.284611,0.0176255766,-0.728967315,1.74288189,-0.117019325,0.0037213857,0.0146719172
95710.294640,0.120766802,0.958928489,0.889491626,0.035607502,0.106200357,-0.00784164743
95710.304669,-0.355449246,0.230170434,-0.834412479,0.0994559826,0.0972089967,0.01561654
95710.314699,0.189440452,-0.836385926,-0.420082321,-0.0745989008,0.0546040064,0.0160266666
95710.324728,0.592204895,0.240580404,-0.564775454,-0.0859365089,0.0138821439,0.00603954697
95710.334757,-0.0675521222,1.16100713,-0.840959125,0.0121439855,-0.112695771,-0.0193094852
95710.344786,-0.272339366,0.745807131,-0.0714991852,0.0201427901,-0.166276971,-0.022959614
95710.354815,-0.134615926,0.425839155,1.16667483,0.0418611356,-0.0475884066,-0.00708291383
95710.364844,0.163097366,0.584803463,1.47427714,0.0147456277,0.154752453,-0.0214285644
95710.374874,0.402414583,0.511246607,-0.251355986,0.0266286509,0.203216915,-0.0407077165
95710.384903,-0.193666885,-0.332161891,-2.12366669,0.0586350562,0.00318635648,-0.0230807865
95710.394932,0.143768834,-0.915351691,-1.20257184,-0.0492748989,-0.160406838,-0.0169440674
95710.404961,0.627392455,-0.0525657175,0.977271032,-0.0536712444,-0.125942866,-0.011362613
95710.414990,0.364895584,0.742834399,1.19876391,0.109151758,-0.00401110299,-0.00683949964
95710.425020,-0.459759369,0.224618188,0.262075767,0.0480865428,0.0416951305,-0.0191417055
95710.435049,0.0165547325,-0.546006082,-0.378855992,0.0140279058,0.0773588544,-0.00641685614
95710.445078,0.0484473428,-0.389365577,-0.377873411,-0.0805516018,0.0342401466,0.000903641046
95710.455107,-0.285524865,0.918646966,-1.26779279,0.000401575949,-0.0942685553,-0.0323967913
95710.465136,0.210037031,0.620222165,0.468454079,0.0304641371,-0.147897432,-0.0391218046
95710.475165,-0.169240299,-0.0725606587,1.43623353,0.128678315,-0.0652068132,-0.0187776515
95710.485195,-0.18331829,-0.814520131,1.08287251,0.140366934,0.121310068,0.0255290924
95710.495224,0.10850346,-0.859836798,0.139694419,-0.128099151,0.237287005,0.00568428094
95710.505253,-0.400022401,0.408757781,-1.79404135,-0.129864819,0.00463058889,-0.0403061116
95710.515282,0.465097761,0.998301518,-1.14346382,0.0787230061,-0.102681214,-0.0545742678
95710.525311,-0.0146848938,-0.128494161,0.0740754069,0.0979129524,-0.152963037,-0.0328141095
95710.535341,-0.368840204,-0.933037497,0.740575907,0.00267964382,-0.0934544304,-0.0180972161
95710.545370,-0.461648251,-0.418518278,0.9974271,-0.0129067729,0.0462427451,-0.00369989948
95710.555399,-0.175732657,-0.00825856557,0.0660809011,0.0447418766,0.0801905966,0.0109911619
95710.565428,-0.0236910609,-0.137910352,0.143320793,-0.0440457834,0.0516657396,-0.00655134564
95710.575457,-0.112602466,0.334969966,-0.283440977,-0.039443042,0.0264844871,-0.0231042223
95710.585487,0.285305184,0.894085356,-0.393251597,0.0565354192,0.0318068168,-0.0419884304
95710.595516,0.209374841,-0.164319499,-0.778694684,0.0968748481,-0.0186414444,-0.0282398628
95710.605545,0.714737488,-1.64952032,-0.143183196,-0.00564033758,-0.0110897846,0.0156301224
95710.615574,0.0448750373,-0.643933555,0.303886618,-0.204103358,-0.0450378978,-0.00716440642
95710.625603,-0.586343283,1.89959518,-0.971700889,0.0319142306,-0.122277553,-0.0615432279
95710.635633,-0.420151289,0.727002916,-0.19000866,0.192618691,-0.153209905,-0.045544816
95710.645662,0.324168949,-1.52694052,2.33687772,-0.0314357168,0.0196707896,-0.00344956276
95710.655691,-0.276938458,-0.785681501,1.58466994,-0.13191732,0.137590503,-0.00473293924
95710.665720,-0.320205572,0.696006743,-0.540826423,0.0226762538,0.0951690129,-0.0249710994
95710.675749,0.340073789,0.27904609,-0.327308176,0.00347592928,0.0669666729,-0.0132001944
95710.685779,0.444878783,0.186079473,-0.236084183,-0.0349532178,0.0435609421,-0.021005919
95710.695808,-0.174917614,0.398727824,-1.2723807,0.0398584382,-0.0330531397,-0.0218597295
95710.705837,0.270866397,-0.0586157931,-0.675231387,-0.0199684108,-0.0607185909,-0.028386602
95710.715866,0.0359968804,0.101680759,0.276393046,-0.0508192665,-0.0942863995,-0.043813763
95710.725895,-0.131615648,0.540318972,0.548497923,0.0596028493,-0.0617641495,-0.0434145535
95710.735925,0.249200728,-0.0942423201,0.996967666,0.0656117351,0.0527597679,-0.0292204375
95710.745954,-0.077179563,-1.02451707,0.521711038,0.0147155348,0.0840218193,-0.00397047663
95710.755983,-0.145949367,-0.668339609,-0.0653102674,-0.13894061,0.0751231364,-0.0236770677
95710.766012,0.37341236,0.842634205,-0.327796836,-0.0394265278,0.00922347648,-0.0526762286
95710.776041,0.0908887466,0.985298755,-0.572550764,0.118200377,-0.0376761207,-0.0504399741
95710.786071,0.274754052,-0.591883853,0.120513918,0.0534626657,-0.0122085787,-0.0217404196
95710.796100,0.0661226272,-1.1195474,0.294104059,-0.0949867292,0.0332526466,0.00486163067
95710.806129,-0.300996721,0.23430578,-0.373357979,-0.022551678,-0.0101832445,-0.0155858535
95710.816158,0.294596598,0.382548368,-0.245826409,0.0612289758,-0.0203389437,-0.0249457972
95710.826188,0.67931137,-0.705194883,0.935684638,-0.054797761,0.0613548546,-0.0146002181
95710.836217,0.0745313399,0.0427432024,0.0747826784,-0.0399413182,0.0383328921,-0.0287341455
95710.846246,-0.640617967,0.5174025,-1.15307979,-0.00244880548,-0.0814835229,-0.0464092771
95710.856275,-0.530466644,-0.141634706,-0.116081839,0.0166868047,-0.128366078,-0.0293112526
95710.866304,-0.0388633495,-0.295265535,1.50742654,-0.0342650561,-0.0221688026,-0.0476700196
95710.876334,0.365489385,-0.605789008,1.6718958,0.0390363225,0.156660875,-0.0166551115
95710.886363,0.0903512056,-0.726218017,-0.0759240159,-0.0242028365,0.234969785,0.00580438989
95710.896392,-0.411183262,-0.384227265,-2.12129821,-0.110606968,0.0626952252,0.000324935825
95710.906421,1.17146134,0.541417216,-1.15218547,-0.118570886,0.0631820536,-0.0271663422
95710.916450,0.784570611,0.889323257,-1.57377831,0.156268142,-0.149200777,-0.0356189476
95710.926480,-0.554004756,-0.947590046,-0.60977721,0.0570765735,-0.288423399,-0.000199440694
95710.936509,-0.28052786,-1.3713408,1.65865288,-0.133884854,-0.127460594,0.0631097538
95710.946538,-0.0555659163,1.1926796,1.42518606,-0.0653987451,0.0711441016,0.00981271377
95710.956567,-0.785374229,1.68167212,-0.190570386,0.185897403,0.0428099311,-0.0116417118
95710.966597,-0.384115149,-0.734570907,0.358844535,-0.0463478191,0.0353935598,0.0120740032
95710.976626,0.212220439,-0.0315926429,0.772909905,-0.0803934036,0.0837901286,0.0171795508
95710.986655,0.546104384,1.32341749,-0.390973716,0.129859425,0.0896647921,0.00523580488
95710.996684,-0.707444601,-0.313042545,-1.33895015,0.100802742,-0.0504784719,0.0256494677
95711.006714,-0.702898921,-1.16048432,-0.573065144,-0.150737874,-0.0669589066,0.0187343044
95711.016743,0.521945291,0.501157796,0.156581256,0.0257900228,-0.0264937752,-0.010839301
95711.026772,0.410164686,0.29155495,0.61621946,0.104007863,0.00309927106,-0.0177123862
95711.036801,-0.0818590261,-0.872123594,0.814296392,-0.0917200966,0.022140074,0.00205545797
95711.046830,-0.0470621457,0.616231415,-0.147037533,-0.0427525526,0.0335173621,-0.0413045304
95711.056860,0.0570541354,0.861038242,-0.429765511,0.111154184,0.034663321,-0.0277176181
95711.066889,-0.0403597255,-0.723384839,-0.891602101,0.054674402,-0.040711327,-0.000135524957
95711.076918,0.221301352,-1.01196461,0.692358112,-0.140682049,-0.0452932963,0.0305994844
95711.086947,-0.218401586,0.903361134,0.026612814,0.0450508037,-0.0560436794,0.0230414329
95711.096977,-0.153952202,1.03538074,0.0983891795,0.0316295364,0.0404248028,0.00301712536
95711.107006,0.288437637,0.406264576,0.342748555,0.00907096466,0.0630190647,-0.00909226836
95711.117035,0.436091739,-0.0744811054,-0.232992646,0.10453783,0.0556010953,0.0188666621
95711.127063,-0.00766990042,-0.575242844,-0.479080454,-0.112899415,-0.0385901207,-0.00116457028
95711.137093,0.0881797068,0.814341154,-0.00627940176,-0.02417301,-0.0756482655,-0.0339566039
95711.147122,0.337891184,1.18454773,0.0320967984,0.1454589,-0.0499458374,-0.0439069735
95711.157151,-0.307983073,-0.623676511,0.527911646,0.0575644636,-0.0229539019,-0.0238594951
95711.167180,-0.311754408,-1.08490308,0.63105521,-0.0662120728,0.0275143324,-0.00181491376
95711.177210,-0.0282119724,-0.0695772407,-0.191391639,0.0340910965,0.0871595568,-0.00214514585
95711.187239,0.0417615084,-0.443811636,-0.362978624,-0.0411543882,0.0120027517,0.00025755743
95711.197268,0.41141359,-0.0672869105,0.32823137,-0.0553524977,0.023592561,-0.00699582772
95711.207297,0.745349046,0.565503938,-0.12051193,0.0669297354,0.0209246068,-0.00420776458
95711.217327,-0.205475542,-0.160721456,-0.722080232,0.0746885837,-0.0416455628,0.0172197634
95711.227356,-0.201648166,-0.631957213,-0.406939931,-0.107701577,-0.0430483171,0.00782845466
95711.237385,0.868506054,0.572707732,0.822800017,-0.0845342054,0.0302330865,-0.0254762376
95711.247414,0.310727283,1.25359796,-0.140265263,0.131616734,-0.00479227447,-0.0480486581
95711.257444,-0.730531609,-0.382932549,-0.699231271,0.0730618091,-0.111972789,-0.0360620374
95711.267473,-0.520641123,-1.09758954,0.679914225,-0.149625324,-0.0715566599,-0.0176292339
95711.277502,0.121892299,0.696290017,1.03554085,0.0676880853,0.0424724458,-0.0309953744
95711.287531,0.362350138,-0.12157018,0.530056257,0.149656467,0.100793806,0.00193221651
95711.297561,-0.615493244,-1.33202527,0.320586408,-0.177372001,0.0561259403,-0.0080570344
95711.307590,0.12845553,0.475349036,-0.349012058,-0.0936392917,0.0816592551,-0.0295767093
95711.317619,0.891810504,1.15782814,-0.850941589,0.178145357,0.0801873258,-0.0404514613
95711.327648,0.505320173,-1.28125224,-1.00167634,0.0354625025,-0.0230463804,0.0115435647
95711.337678,-0.0688732147,-1.17613737,-0.064003861,-0.238211907,-0.110575961,0.0092505833
95711.347707,-0.595248474,1.7772283,-0.531555322,-0.012247227,-0.161482284,-0.0317053737
95711.357736,-0.365446324,1.24226145,0.105030517,0.244495623,-0.146645004,-0.0263729261
95711.367766,0.198247444,-1.27008159,2.62568472,-0.0742674543,0.0815460733,-0.0147429004
95711.377795,-0.510735085,-0.440114498,1.20181278,-0.102465801,0.162193259,-0.0171788948
95711.387824,-0.134058731,1.03614558,-0.960833458,-0.0101172308,0.16428331,-0.0352250056
95711.397853,0.422655042,0.40306768,-1.1242611,0.0399715008,0.0419541946,-0.0227917748
95711.407883,-0.051663429,-0.605375313,-0.951196446,-0.0287843923,-0.0852295929,-0.00906530657
95711.417912,-0.545736182,-0.366312253,-0.124659113,-0.0898160561,-0.163965146,-0.0192116851
95711.427941,-0.396051817,0.768682176,0.711886404,0.064465128,-0.0424187431,-0.0228961686
95711.437970,0.617479549,0.250101735,1.15068465,0.082702987,0.123303106,-0.00369317906
95711.448000,-0.281882855,-0.843089954,0.418128498,-0.0657991393,0.140106594,0.0216409398
95711.458029,-0.15793002,-0.147130116,-1.06091004,-0.0620440802,0.0757893822,-0.00581704994
95711.468058,-0.046101411,0.54153876,-1.5939034,-0.0103470617,-0.0926342481,-0.0176923515
95711.478088,0.274044151,0.36971961,0.338227279,-0.00758376518,-0.0819485807,-0.0312718095
95711.488117,-0.140992402,0.0671548595,0.471860673,0.0570948274,-0.0610957579,-0.0233760717
95711.498146,0.03494138,-0.396657451,0.611685323,0.0238868074,0.0635753325,-0.000340524889
95711.508175,-0.187372972,-0.545599511,0.113210316,-0.101190418,0.0703163198,-0.0109007571
95711.518205,-0.645269666,0.557219692,-0.840242501,-0.129354142,-0.0164172394,-0.0339754501
95711.528234,0.0811881674,1.51070239,-0.532536149,0.175804176,-0.0868304172,-0.0271383168
95711.538263,0.360467173,-0.723812051,0.66469386,0.116253756,-0.0230530375,0.0236484317
95711.548293,-0.477005614,-1.38021866,1.25736808,-0.157490171,0.0543432175,0.0330067782
95711.558322,-0.135495851,0.990971759,-0.715684393,0.00976326702,0.0987730003,-0.0091113791
95711.568351,0.434004849,0.756836329,-0.666444854,0.0364971423,0.0460903472,-0.0303623395
95711.578380,-0.071861729,-0.582723957,-0.718404174,0.0375115388,-0.0846144059,-0.0172766315
95711.588410,0.247934654,-0.755031219,0.0794202751,-0.0400117485,-0.0706498497,-0.0114424441
95711.598439,0.293286465,-0.0427891414,0.933622445,-0.0456661692,-0.0209813645,-0.0129750937
95711.608468,-0.7515082,0.574168124,-0.338387204,0.0822398664,-0.0508907908,-0.0228943059
95711.618498,-0.491938833,-0.859517284,-0.0812338127,0.106707387,0.0241395081,0.0231568107
95711.628527,0.928888188,-1.37748573,1.0454748,-0.0799572988,0.113007856,0.0389610736
95711.638556,0.0502619179,0.0278850852,0.196741417,-0.0746994166,0.0514451652,0.0378462767
95711.648586,-0.0130036627,1.04966579,-1.18884259,0.0936525763,0.0112026711,0.0197623467
95711.658615,0.445811972,-0.0896742815,-0.416265393,-0.0293963867,-0.0573279173,0.00897308177
95711.668644,-0.208417441,-0.0908302466,-0.0290050283,-0.0352119318,-0.00928129864,-0.00755476282
95711.678673,0.131207459,0.356275972,-0.791405697,0.126565524,-0.0577236661,0.0061634464
95711.688703,0.196543124,-0.928592939,0.616639731,-0.0535970627,-0.0858085626,0.0302434845
95711.698732,-0.376006881,-0.0380406317,1.22244815,-0.100164831,-0.0119678951,0.0131182914
95711.708761,-0.267677,1.32260456,-0.198647894,0.209068649,0.0201716642,0.00177615526
95711.718791,0.192875322,-0.971055678,0.162102065,0.0877451525,0.0919742114,0.0451934023
95711.728820,0.443101252,-1.57055433,0.914012904,-0.216049887,0.106842106,0.0363759456
95711.738849,0.157709828,0.829912525,-0.884764949,-0.0627926885,0.0161564178,0.0076233914
95711.748879,0.0568251489,1.64604902,-1.19169505,0.10279467,-0.0672588521,-0.0181956904
95711.758908,-0.550620593,0.0277601756,-0.534580223,0.0309140907,-0.203815083,-0.0204354057
95711.768937,0.0476106728,-0.673416839,1.80362307,-0.0197978223,-0.0430262112,0.0034371686
95711.778967,0.353758177,-0.118325197,1.39980145,0.0766072796,0.163908338,0.0332443325
95711.788996,-0.0625448885,-0.132503223,-0.429770187,-0.0375608391,0.158383866,0.0203455781
95711.799025,-0.175643079,-0.0890404954,-0.989817561,-0.125934906,0.006413775,0.0052321392
95711.809054,0.0481658224,1.13546608,-1.05236023,0.135358222,-0.0670372718,0.0114751218
95711.819084,1.24013484,0.0250565244,-0.0995007063,0.166370995,0.0399818546,0.0465960896
95711.829113,0.0918227395,-1.18024634,0.290364873,-0.20276124,-0.00163429793,0.0323268754
95711.839142,-0.0437177307,1.27699081,-0.544452797,-0.205143444,0.0238369736,-0.0615564788
95711.849172,-0.222997755,2.18544217,-2.24204348,0.329615854,-0.178437824,-0.071517499
95711.859201,-0.131466741,-1.16715466,0.275763516,0.0737057628,-0.203171144,-0.0655371042
95711.869230,-0.0492326216,-2.61645046,2.44799825,-0.0676977037,-0.0814801329,0.00589446741
95711.879260,0.367236375,-0.868644812,1.83636039,-0.141653143,0.100985815,0.0307532122
95711.889289,-0.913826129,1.04006181,-0.0671854136,0.132362686,0.055911289,-0.00256240071
95711.899318,-0.812961178,-0.414956749,-0.978142905,0.0155508482,0.00787584993,0.00634960196
95711.909348,-0.103284822,-1.0960464,1.1052293,-0.233131923,0.01754206,0.00669767678
95711.919377,0.000596335077,1.41862134,0.279883226,0.0466475153,0.040560828,-0.00469346234
95711.929406,0.506624461,0.6068475,-0.192807351,0.190172203,0.116294464,-0.0166153701
95711.939435,-0.450560383,-1.66792545,-0.248146961,-0.0876961796,0.0747241205,-0.00938941428
95711.949465,0.242121145,-1.10753394,-0.916301074,-0.132821299,0.0204406432,0.0114405008
95711.959494,0.434495044,0.648133597,-0.445087583,0.0131590638,-0.0739969113,0.0355394466
95711.969523,0.271503672,0.692073568,0.580637274,-0.0632832422,-0.0751173073,0.0271432979
95711.979553,0.630469963,0.956824137,0.983697266,0.0129084598,0.0996957845,0.0300906172
95711.989582,-0.170659665,0.979829165,-0.672582334,0.0610387029,0.0979359648,-0.00646366534
95711.999611,-0.968991697,-0.551937847,-2.03151857,0.0321521947,-0.0866274857,0.00885750091
95712.009641,0.613360642,-1.31409097,0.568537671,-0.105348945,-0.135834182,0.0428732579
95712.019670,1.15939936,0.156750082,2.51138731,-0.0419108457,0.0579131855,0.0439523702
95712.029699,-0.257031396,1.45838593,0.293917012,0.0466911906,0.091814687,-0.0108038195
95712.039729,-0.908212235,0.575070443,-1.29078847,0.0327772388,-0.00821922956,-0.0459463613
95712.049758,0.908205612,-0.957529183,0.442830393,0.00467369998,0.0496400757,0.00116229633
95712.059787,0.768314253,-1.12160704,0.421687068,0.0298565497,0.065577758,0.0521056374
95712.069817,-0.179870488,-0.453164059,-0.681504476,-0.151202969,0.00295273072,0.0194028189
95712.079846,0.399987356,0.865942089,-0.807992675,0.0307766722,-0.00269689903,0.00815069786
95712.089875,0.361158078,0.16085602,-0.904379165,0.116425,-0.0494747893,0.0182992054
95712.099905,-0.0247709651,-1.4559442,0.196557293,-0.109150335,-0.113501179,0.0253469964
95712.109934,0.269803737,-0.215206951,1.37133523,-0.119853847,-0.0417510891,0.0153596086
95712.119963,-0.622382565,1.16235051,-0.00577086771,0.107363328,-0.0386008383,0.00787772349
95712.129993,-0.76654181,-0.117738721,0.471960042,-0.012681322,-0.0249587954,0.00230639073
95712.140023,-0.179250018,-0.517516339,1.46185955,-0.0655703692,0.109660802,0.0219525305
95712.150052,0.662194231,0.400731748,0.236626853,0.127176188,0.234901016,0.0458605235
95712.160081,1.01935062,-0.69463871,-1.14700134,0.053332314,0.22871848,0.0850063322
95712.170111,-0.361657014,-0.714438878,-2.21182896,-0.230734281,-0.0640177825,0.0495247675
95712.180140,-0.569959208,1.35237573,-2.34650397,-0.0114908888,-0.302655677,0.0160040932
95712.190169,0.883596802,0.917515989,1.01906669,0.122244008,-0.186598281,0.0144674491
95712.200199,0.130097817,-0.197513748,2.1155485,0.105474875,-0.00193177283,0.0297691731
95712.210228,-0.744860505,-0.693475219,0.338657487,-0.0962332113,0.124591281,0.0403437858
95712.220257,-0.984196865,0.741404293,-0.362371306,-0.18230816,0.0201844475,-0.0154140171
95712.230287,-0.590984752,1.50993345,-1.22212234,0.161626659,-0.125283132,-0.011410483
95712.240316,0.471859656,-0.372536461,1.71779948,0.103682935,-0.0221769796,0.0159058256
95712.250345,0.0678659637,-1.57016563,1.40474183,0.0702514799,0.120837701,0.0764264298
95712.260375,-0.859472973,-0.621473886,-0.469449871,-0.170804821,0.178952133,0.0460717177
95712.270404,-0.595946247,1.33030126,-2.24172492,-0.032106053,0.0198168079,0.00330960768
95712.280433,0.662129276,1.1944279,-1.02492102,0.0295466596,-0.100241157,-0.0136094548
95712.290463,0.45741897,0.0800978546,0.93928237,0.045861181,-0.0763286301,0.00349389825
95712.300492,-0.0844729349,-0.054065829,0.350702729,0.0810900108,-0.0245362749,0.0101488719
95712.310521,-0.803683719,-0.484882811,-0.696276513,0.0842732863,-0.0261911624,0.0216593204
95712.320551,-0.667434078,-1.03211805,-0.130040806,-0.124710552,-0.0159608969,0.0349849781
95712.330580,0.604932494,0.583768311,0.555965774,-0.0479310899,0.0330103761,0.0182286372
95712.340609,-0.174897594,1.40464806,0.108391518,0.107110426,-0.043854578,-0.0115692064
95712.350639,-1.14434878,-0.139935529,-0.149247026,0.00365194505,-0.124831187,-0.0164489167
95712.360668,-0.246241121,-0.104210683,1.02570452,0.0485230127,0.0467757224,0.0222614614
95712.370697,0.393753868,0.608989773,0.426417603,0.0262989347,0.181642195,0.00874378736
95712.380726,-0.302497481,0.261873312,-0.715583855,-0.131983377,0.0870658881,-0.0012047168
95712.390756,-0.724770853,0.984495111,-2.03270866,0.0936968849,-0.159314329,-0.0256240385
95712.400785,-0.361774503,0.259853716,-0.131422616,0.0329863952,-0.156896988,-0.0370428728
95712.410814,0.736439909,-0.122528366,1.94614237,-0.0373932271,0.0246946546,-0.0313911157
95712.420844,-0.44962734,0.657296781,0.779295222,0.054717526,0.0720232925,-0.0337184498
95712.430873,-0.966266583,-0.224684718,-1.0470592,0.0696266965,0.00257710248,-0.0263060758
95712.440902,0.304178154,-1.07688154,0.446166844,-0.0735999642,0.0238006315,-0.0104125969
95712.450932,0.841339157,0.357793208,0.572119621,-0.0459813884,0.121105877,-0.0271084847
95712.460961,-0.765235988,1.00311243,-1.59693765,0.135532744,-0.0693490156,-0.0417982133
95712.470990,-0.750666488,-1.138171,-1.139333,0.0255654996,-0.169628228,-0.0146297112
95712.481020,0.296520113,-1.24181878,1.97087466,-0.0973300634,-0.0530195781,0.0074950314
95712.491049,0.441720246,0.475580689,1.47470033,0.0307498743,0.125138705,-0.0135487344
95712.501078,-0.0130404145,0.0296459893,0.0267741421,0.0448917934,0.171234553,-0.0107127343
95712.511108,-0.491189622,-0.618795826,-1.2866483,-0.14404697,0.0172785497,-0.0414072627
95712.521137,0.374471368,0.0898277238,-0.895358823,0.0207270683,-0.0564539903,-0.0145588711
95712.531166,0.428156489,0.00714337616,0.222649765,0.0857273714,-0.0602948019,0.0115414385
95712.541196,-0.00515915971,-0.687253787,0.417945543,-0.0953473373,-0.00861856019,0.0109443573
95712.551225,0.109670166,0.788398684,0.641035336,-0.118808724,0.0564288846,-0.025372369
95712.561254,-0.510946243,1.65418352,-0.781462395,0.0524216147,-0.0556475879,-0.0569718423
95712.571284,-0.218740097,0.157611814,0.212682498,0.0970274286,-0.0874489271,-0.0379153246
95712.581313,1.01591466,-0.935437982,2.10611783,-0.0260963625,0.151862984,-0.0181754435
95712.591342,0.482615809,-0.273421952,0.0560762244,-0.00901617935,0.218930175,-0.00976704509
95712.601372,-0.189549805,-0.15802533,-2.11784193,-0.084157802,0.0240594907,-0.0157130862
95712.611401,0.327921214,0.349905597,-1.19131862,-0.0371024086,-0.142010982,-0.0224064084
95712.621430,0.369271827,0.711311134,0.0937328781,-0.0237362681,-0.149752254,-0.0361320729
95712.631460,-0.750511663,0.642908702,0.726072165,0.0528024474,-0.121011677,-0.0525845492
95712.641489,0.383752041,0.243901675,1.27510539,0.0992666186,0.0782729289,-0.0534095967
95712.651518,0.610240391,-1.34026615,1.04173737,0.0535808877,0.176838373,-0.00651319587
95712.661548,-0.307450646,-1.80557334,-0.569184503,-0.150741882,0.080115301,0.0107677897
95712.671577,-0.150632922,0.359399401,-0.96877185,-0.14416521,-0.0398478494,-0.0395142863
95712.681606,0.636054924,1.6965824,-0.581012303,0.0863926263,0.00468685894,-0.0639652999
95712.691636,1.06158452,-0.0185185413,0.26366742,0.0702834354,0.0239332574,-0.0676881315
95712.701665,-0.00218394329,-1.47754594,-0.124150579,-0.0450460872,-0.0652006143,-0.0206332745
95712.711694,-0.778969257,-0.711123469,-0.188634449,-0.0765906944,-0.151246021,0.003212935
95712.721724,-0.483487085,0.725913221,0.664417381,0.00625678305,-0.0853586072,-0.0175290944
95712.731753,0.242973378,0.577101181,1.29666139,0.163228296,0.105984715,-0.00107635261
95712.741782,-0.546385002,-1.03044522,0.381855408,-0.033484239,0.125873466,0.0279142877
95712.751812,0.733867867,-0.179675108,0.284437821,-0.254088797,0.289844831,0.00557595788
95712.761841,0.688136847,2.48266278,-2.39297814,0.0601746069,0.0803302205,-0.0516130271
95712.771870,-0.298839835,0.963022991,-3.23375793,0.11991597,-0.22387282,-0.0457090678
95712.781900,-0.338254877,-1.15293595,0.24462019,0.0147980723,-0.329443971,0.0115763258
95712.791929,0.306210536,-0.276660058,2.06418072,-0.0547634287,-0.102343189,0.0353338515
95712.801958,0.0220947579,1.32580015,1.76276733,0.0416885429,0.101040026,-0.0228274519
95712.811988,-1.20851277,0.877446064,-0.399029596,0.0570674987,0.102103693,-0.0396996455
95712.822017,-0.585486959,-0.296542716,-1.16950602,0.0214168282,0.000130722732,-0.0153343834
95712.832046,-0.146876492,-0.911129178,-0.266412101,0.148007251,-0.0827029073,0.0235323218
95712.842076,0.0633373803,-1.54346788,1.37368969,-0.179402836,0.0852855644,0.0177450051
95712.852105,0.911429031,0.536888377,0.873278158,-0.0900473817,0.164858674,-0.00191098714
95712.862134,0.450632451,2.34384395,-1.39273668,0.222645812,0.0346516831,-0.0893220546
95712.872164,-0.283422194,-0.594652588,-0.828666629,0.023090359,-0.128015528,-0.0629069599
95712.882193,0.182971768,-1.76197415,0.222916892,-0.0314165613,-0.0951238894,0.0258034637
95712.892222,0.787534064,0.0906151113,0.766967655,0.00935563645,0.0886528692,0.00186910358
95712.902252,-0.214586412,0.795889478,-0.649009735,0.0502655172,0.0519017777,-0.0223757828
95712.912281,-0.376392154,-0.481074285,-1.69605444,0.0269340986,-0.135534967,-0.00888926798
95712.922310,0.0797308082,-0.68690965,1.12344651,-0.124331057,-0.146115969,-0.0126416616
95712.932340,0.0735184365,0.965882984,1.69911465,-0.0567951536,-0.0441733585,-0.0442387367
95712.942369,-0.406406111,2.1287244,0.631567251,0.164024301,0.0968338302,-0.073188627
95712.952398,-0.655204784,0.494235157,-0.808519913,0.0979552792,0.0855412311,-0.0626829879
95712.962428,-0.320180583,-1.60074708,-0.447903225,0.0158841108,0.0124891218,-0.0194518993
95712.972457,-0.0394260979,-1.3465917,-0.0141277772,-0.105143778,-0.0225197287,0.0206917936
95712.982486,0.130503476,1.0334665,0.32340205,0.00676225092,-0.0202278127,-0.010292488
95712.992516,0.634260661,1.25057875,0.215276606,0.108970374,0.106142109,-0.0518689582
95713.002545,0.223998629,-0.546574931,-0.457330394,0.048517421,0.0771378926,-0.0321967209
95713.012574,0.22833337,-1.10843557,-0.835549959,-0.197437487,-0.0436465838,-0.0504321845
95713.022604,0.625476246,0.871297478,-0.0659982497,0.015913671,-0.0817833194,-0.0666300597
95713.032633,-0.279685418,0.807970377,-0.808509392,0.160782971,-0.132514412,-0.0782374459
95713.042662,-0.431789412,-1.30044428,0.494569933,0.029496059,-0.133321623,-0.0480609032
95713.052692,-0.17903221,-1.73645217,1.68535617,-0.0453097409,-0.0110484283,-0.00122495723
95713.062721,0.133929724,-0.4021749,1.75613242,-0.0684206484,0.153162604,-0.0071654048
95713.072750,-0.420179931,0.930400313,-0.781851102,0.0608915315,0.139461984,-0.0238256062
95713.082780,0.311153911,0.0653485498,-0.673953622,-0.0428196824,0.0708453706,-0.0285673643
95713.092809,0.796188568,-0.214099465,-0.204428231,-0.0443150474,0.00671059495,-0.0184548104
95713.102838,0.600771794,0.352369064,-0.511698529,0.0859044717,-0.0112311212,-0.00762240292
95713.112868,-0.444050124,-0.237249016,-1.13151443,-0.0623497105,-0.111304993,-0.0264155286
95713.122897,-0.454146571,0.818152383,-0.047781625,-0.126491152,-0.0820405805,-0.0638566481
95713.132925,0.757015226,1.42751587,0.431426956,0.110198893,-0.0747419172,-0.0539257171
95713.142955,0.253064564,-0.217212738,1.75011185,0.110970944,0.0152628044,-0.0194180736
95713.152984,-0.704832227,-1.30352281,0.556436314,-0.0633225589,0.057477103,-0.00837607758
95713.163013,-0.570646532,-0.043967396,-0.530618918,0.0320002289,0.0722280866,-0.0282025131
95713.173043,0.536537003,-0.0751058314,-0.201779178,-0.0778098925,0.113427458,-0.0328529233
95713.183072,1.0288993,-0.0299273628,0.330329219,-0.113657907,0.0638833395,-0.0383331755
95713.193101,0.236735945,1.1113943,-0.901662307,0.0582997428,-0.0346123414,-0.0491767692
95713.203131,-0.082778479,0.230846817,-1.14587848,0.10024719,-0.119591686,-0.0507996993
95713.213160,0.00830742091,-1.14497878,0.407142994,-0.0288458093,-0.112993697,-0.0397316011
95713.223189,-0.0558877687,-0.865798264,1.37725059,-0.102473162,-0.0366235623,-0.0340569371
95713.233219,0.321553798,0.188739175,0.823140793,0.118896485,0.0982021815,-0.00804354233
95713.243248,0.403616214,-0.93325282,0.0239766203,0.0474334919,0.156235387,0.0309264941
95713.253277,-0.475800622,-1.17353881,-0.700282826,-0.16703432,0.00957510477,0.0218597634
95713.263307,0.141448356,0.594629057,-0.692415746,-0.131119199,-0.0660946169,-0.000698810271
95713.273336,1.48174317,1.35407902,0.902038389,0.0481024796,0.0775341889,-0.0125448162
95713.283365,1.04797824,0.592128801,-0.381631887,0.207360841,0.0590513101,-0.042815903
95713.293394,0.194498978,-1.83295936,-0.240357038,-0.0345465949,-0.0328186923,0.00526667124
95713.303424,0.0648432549,-1.95172617,-0.293882292,-0.217475124,-0.117003868,0.0646703375
95713.313453,0.652415837,1.09964936,0.475713257,-0.0662632509,0.0165296844,0.0302135667
95713.323482,0.294815721,2.51822655,-0.35462756,0.219788216,0.0400603092,-0.0561498197
95713.333512,0.0693700116,-0.626809986,-0.821159615,0.0391257593,-0.0136433984,-0.00609836896
95713.343541,1.2152345,-2.05009565,1.63968748,-0.239919714,-0.0246971143,0.0379119648
95713.353570,0.842868851,0.845479,0.682715254,-0.0344792156,0.0167049202,0.065798728
95713.363600,-0.776180869,2.32200899,-1.17189204,0.266378902,-0.0747003579,-0.00674791431
95713.373629,-0.13987392,-0.660000747,-0.366196417,0.0398506747,0.00881290852,0.00868164206
95713.383658,1.06163567,-1.86550408,1.21560399,-0.151786663,0.118121823,0.0418318717
95713.393688,0.49973039,-0.0526236537,-0.633982846,-0.00129276885,0.00371268854,0.0338296054
95713.403717,0.0798434748,0.868132073,-0.640472208,0.000169306544,-0.0964117744,0.0232754985
95713.413746,0.0399911377,0.80927861,0.369457114,-0.0127116049,-0.0680560344,-0.0122398844
95713.423776,0.688050045,0.829899008,0.593282236,0.0766038896,0.0690400353,-0.018551044
95713.433805,0.947148944,-0.476677292,0.302356924,0.0666902737,0.0856903842,0.0234632512
95713.443834,0.423981468,-1.08944876,-0.381160178,-0.0658760293,0.0149823869,0.0464697687
95713.453864,0.726076848,0.225516946,-0.644867813,-0.0750373005,0.00307299752,0.0372978432
95713.463893,0.338589688,1.28105689,-1.26133324,0.094034277,-0.10168084,0.0113410747
95713.473922,0.184227613,0.192875289,-0.0877021319,-0.0304820778,-0.160051222,-0.0131504199
95713.483952,0.858063132,-0.039815158,1.87283222,0.0312601143,-0.0496466742,0.000209327959
95713.493981,0.280568219,0.20460657,1.03261006,0.162760891,0.0568267717,0.0180650243
95713.504010,0.151100493,-0.944762787,0.133698393,-0.00962713161,0.133662423,0.0407069532
95713.514040,-0.120747779,-0.305810274,-0.342705067,-0.160320766,0.00855777735,0.0143240822
95713.524069,0.289422702,1.47149968,-0.563291938,-0.00667075613,-0.0599041046,-0.0274231004
95713.534098,0.841744158,1.0029367,0.397052977,0.19876229,-0.0386219868,-0.023729028
95713.544128,0.67207835,-1.33030985,0.796618112,0.0474971422,0.048070298,0.00699133397
95713.554157,0.392989898,-1.63386083,0.422008555,-0.128090925,0.0971033624,0.026605515
95713.564186,-0.122521584,-0.041517304,-1.46826626,-0.0192512626,-0.0281752036,0.00935888401
95713.574216,0.630344948,0.611399319,-0.426537781,-0.00888304399,-0.0530856126,-0.011067828
95713.584245,0.723561358,0.20208191,0.493430115,0.0535888561,-0.0697564655,-0.0163739098
95713.594274,0.195280118,-0.554034563,0.692785397,0.0658716188,-0.0150279762,0.0139653535
95713.604304,0.553722677,-0.765884549,0.809823631,-0.0707599966,0.0877045295,0.0191912746
95713.614333,0.518754751,0.270045421,-0.0576191284,-0.0715373753,0.108268132,0.0171917735
95713.624362,0.0774440855,0.991840432,-1.30610236,0.0185874627,-0.00962708475,-0.00598997792
95713.634392,0.390314542,0.129606959,-1.05278343,0.124133587,-0.125316674,0.0306399373
95713.644421,0.832454425,-0.988844359,1.04178237,-0.0155984711,-0.0370946625,0.0577525144
95713.654450,0.850643065,-0.256248389,0.663024465,0.0187190232,0.0962623334,0.0722571595
95713.664480,0.45421747,0.592356618,-0.700546445,-0.0185154303,0.0773256621,0.0469256995
95713.674509,-0.203932843,0.666983478,-1.42051141,-0.0483572146,-0.13619409,0.00166714255
95713.684538,-0.0374786902,0.734136567,0.117899351,-0.00634265492,-0.211572731,-0.020251205
95713.694568,0.494452304,0.643676179,1.99094071,0.0627719612,-0.0483382629,-0.0260473097
95713.704597,0.80961372,0.127273246,1.75423623,0.048168257,0.20276161,-0.0388563143
95713.714626,-0.178297904,-0.942197467,-0.871809021,0.0290603434,0.152092834,-0.0284558738
95713.724656,-0.463423006,-1.57502256,-2.03335105,-0.105270833,-0.0845404738,-0.00328553823
95713.734685,0.608366049,-0.494798932,0.199738261,-0.171579815,-0.145742843,0.00996581855
95713.744714,0.589646004,1.45348238,1.16123176,0.0454355889,-0.0853655213,-0.00146074017
95713.754744,-0.58740156,1.21825184,0.654683923,0.148453586,-0.0346275107,-0.0320434177
95713.764773,-0.665554621,-0.699726169,0.509938183,-0.00709925858,0.0498053482,-0.0196453368
95713.774802,0.549256857,-1.16087777,0.964623147,-0.0745667218,0.164432054,0.0170908404
95713.784832,0.850702394,-0.0643864763,0.0198615862,-0.0767483784,0.167918672,0.0226938633
95713.794861,0.369682745,0.936475176,-1.43015134,-0.0144551768,0.00643150971,0.00424668024
95713.804890,0.135975477,0.765505811,-1.47164363,0.0702189581,-0.130543123,0.011126158
95713.814919,0.638760968,0.0991843757,0.220135737,0.0159895496,-0.0575400167,0.0207936989
95713.824949,0.331021883,0.198913089,0.611378449,-0.0625460072,0.00662112698,-0.00613831618
95713.834978,-0.0584881604,0.830219618,-0.00229880769,-0.025209287,-0.0247509112,-0.0506232249
95713.845007,0.648278591,0.467562583,0.390896208,0.112952046,-0.0126428488,-0.0454529653
95713.855037,0.708249003,-0.974183016,1.17037193,0.000835363187,0.053615266,-0.0216110161
95713.865066,0.198397812,-0.876862167,0.36193081,-0.0869695915,0.0873178369,-0.0294337848
95713.875095,-0.0657213996,0.176439191,-1.06088139,-0.0161939541,-0.00645046638,-0.0451214032
95713.885125,0.13438682,-0.0231641066,-0.611310996,0.0400280395,-0.0663790428,-0.0295198055
95713.895154,0.472702463,-0.64668015,0.568445901,0.0131093395,-0.0307962844,-0.00728853588
95713.905183,0.290353042,-0.578031561,0.616968232,-0.0239743775,0.0502831204,0.00775779149
95713.915213,0.22587414,-0.23320312,-0.233413502,0.0120033288,0.0595069765,0.0216517692
95713.925242,-0.0865065596,-0.317006042,-0.553107813,-0.052076321,-0.0195683991,0.0264963249
95713.935271,0.29191145,0.261856708,0.0792267984,-0.0535671561,-0.0363034369,0.0186008533
95713.945301,0.47032061,0.894178222,0.496215362,0.0263726824,-0.00145757213,0.00120401865
95713.955330,0.364411235,0.266641988,0.375824311,0.0235574545,0.0693337819,0.00811172573
95713.965359,0.325042809,-0.237565937,-0.0695386987,-0.0454413219,0.0666610351,-0.00555108936
95713.975389,0.0449667341,-0.132784963,-0.856465906,-0.0330371148,-0.0379322269,-0.00829121639
95713.985418,0.0575136426,-0.069200352,-0.405698407,-0.00970649427,-0.0774455467,0.00238912523
95713.995447,0.245986662,0.110506017,0.287771934,-0.00939437175,-0.034052799,0.0109240237
95714.005477,-0.272685111,0.204908147,0.37309927,-0.03573836,-0.0181699735,0.00214517972
95714.015506,-0.256178067,0.356475403,0.27231133,0.0111415304,0.00791489097,-0.00158164819
95714.025535,0.0838106979,-0.0160846561,0.385523283,0.0352170394,0.0261285151,0.0147563128
95714.035565,0.0703595341,-0.425093418,0.441380779,-0.0478610693,0.0981393284,0.0279123282
95714.045594,-0.292052367,0.50623119,-0.619996991,-0.0483561492,0.0339899002,-0.00851811638
95714.055623,-0.332039217,0.749547487,-1.33754554,0.0822295548,-0.0665188604,-0.0152167658
95714.065653,0.329629041,-0.541817435,0.182431737,0.0260802658,-0.0456061238,0.0144061075
95714.075682,0.017179075,-0.505995266,0.61233122,-0.0240156575,-0.00447759687,0.0276864918
95714.085711,-0.47194687,0.538520033,-0.128014269,-0.0284120029,0.0147674703,0.0132473653
95714.095741,-0.549580875,0.85012383,-0.571702039,0.00754652837,-0.0112827723,-0.00366637
95714.105770,-0.267003631,0.575284816,-0.0826319891,-0.00217667209,-0.0239362498,-0.0159757676
95714.115799,-0.400965381,0.285201709,0.213026782,0.0430145079,-0.0507617393,-0.0176016277
95714.125829,-0.593809674,-0.222458475,0.289729497,-0.0110407377,-0.00813118791,-0.0150188932
95714.135859,-0.421176175,-0.0334532948,0.367968337,-0.00474768771,0.0312590948,-0.0197129807
95714.145888,-0.380962311,0.0988698299,0.00775321525,0.00832656877,0.0271381191,-0.0176354496
95714.155918,-0.0272543063,-0.0188509333,0.3559342,-0.00118837294,0.026820404,-0.020796621
95714.165947,0.0419328463,-0.0292938096,-0.215299169,0.0932262765,0.0348916477,-0.00403228851
95714.175976,-0.270140906,-0.87754993,-0.71552891,0.0438882933,0.0279655638,0.0178082941
95714.186006,-0.361488891,-0.848749002,-0.817398216,-0.112682678,-0.0126393871,0.0100329306
95714.196035,-0.00621181057,0.552630355,-0.325686128,-0.0896399467,-0.0749437684,-0.0229513848
95714.206064,0.467033989,1.05711538,0.41139656,0.0933876635,-0.0526208901,-0.0198607871
95714.216093,-0.00417066013,-0.163412138,0.634346068,0.1079714,-0.0161486348,0.00131187652
95714.226123,-0.607526941,-1.22174345,0.415308765,-0.0361373013,0.0165938674,0.020260269
95714.236152,-0.162510845,-0.392054086,0.0725983201,-0.0499923898,0.0955790854,0.0270803032
95714.246181,-0.107514349,0.994599083,-0.615216186,-0.0343314035,0.0533456108,-0.00817009603
95714.256211,0.140828616,1.03463467,-0.798998636,0.0484798552,-0.0389835188,-0.020540213
95714.266240,-0.103247778,-0.0142036601,-0.191298115,0.0538152309,-0.0957376086,-0.00666913839
95714.276269,-0.405813405,-0.202965766,0.447922748,-0.0428228936,-0.0625463673,-0.0203298235
95714.286299,-0.171096449,0.346724592,0.424972081,0.0551888907,0.016183061,-0.0179058144
95714.296328,-0.787053633,-0.0730592011,-0.221229143,0.0681885855,-0.0062061339,-0.00791762752
95714.306357,-0.584419549,-0.516208508,0.112058808,-0.0516251734,-0.0105193896,-0.0121488588
95714.316387,0.410842,0.0112128678,0.788534759,0.00619950997,0.0791007778,0.00217495317
95714.326416,-0.105149666,0.420739165,-0.30692882,0.0689790101,0.0638879961,0.00177308236
95714.336445,-0.583244879,-0.0682964574,-0.950661608,-0.064361736,-0.0379680568,-0.0271584353
95714.346475,0.412731614,0.231146111,-0.000416062681,-0.0190262178,-0.022805084,-0.0227178781
95714.356504,0.293608171,0.644261431,0.0173574944,0.083268732,-0.0204199576,-0.0298783219
95714.366533,-0.709117941,-0.210275249,-0.312174904,0.0160731805,-0.0979783931,-0.0316346752
95714.376563,-0.169322279,-0.514650392,0.617646278,-0.0240643861,-0.0336787687,-0.0248465425
95714.386592,0.164689019,0.263965279,1.15492243,-0.0203356946,0.0644280887,-0.036962332
95714.396621,-0.405034895,0.256280278,-0.190162974,0.0957259314,0.0456781066,-0.0259954332
95714.406651,0.166166106,-0.758676809,-0.236258955,0.0278941525,0.0661175972,0.000467866831
95714.416680,0.825196928,-0.592584111,0.187528768,-0.092058882,0.125812357,0.00886188465
95714.426709,0.216811713,1.02991794,-1.10787578,-0.0771973728,-0.0085686236,-0.0364443453
95714.436739,0.43430544,1.34698716,-0.996302246,0.0321837069,-0.133271674,-0.0532289164
95714.446768,0.369128034,0.439341172,0.496402409,0.0660748334,-0.107091466,-0.0449166613
95714.456797,-0.101842149,-0.33025982,0.686255119,0.0722206087,-0.0421164618,-0.0412028821
95714.466827,0.254836834,-1.10530297,0.704057318,0.0334468448,0.0823130808,-0.00300409628
95714.476856,0.37114405,-1.0812919,0.321474297,-0.0558572038,0.0787700093,0.00286178262
95714.486885,0.668690096,-0.19093289,-0.167498138,-0.0475689134,0.0445505208,-0.00121951179
95714.496915,0.579674938,0.414771963,-0.481242016,0.0065153615,-0.00184760421,-0.0246215088
95714.506944,0.136574977,-0.0173876467,-0.866009979,0.0474044719,-0.0987499156,-0.0203010606
95714.516973,-0.0658858695,-0.720590459,0.1918969,-0.0570191404,-0.108807074,-0.0120196955
95714.527003,0.352990408,-0.0428549595,1.26708283,-0.038137596,-0.00463833058,-0.011285195
95714.537032,0.629017134,0.527140305,0.909087723,0.0629956873,0.10776331,-0.0154176222
95714.547061,0.295953858,-0.369124899,0.0313000951,0.00155442477,0.102880937,0.00497659872
95714.557091,-0.132489947,-0.476987272,-0.836759335,-0.0600799097,0.0015897378,0.00391346513
95714.567120,-0.00895935571,0.403275624,-0.857172008,-0.0288820452,-0.0762962723,-0.0096478833
95714.577149,0.393551331,0.755511875,0.147871296,0.0229353478,-0.0473666177,-0.0298426336
95714.587179,0.714051113,0.247918619,1.00669586,0.032395959,0.0277153472,-0.0379674079
95714.597208,0.419459607,-0.431376919,0.48250657,0.0126036137,0.0675181574,-0.0233735515
95714.607237,0.0650331514,-0.546981905,-0.3740483,-0.0490291229,0.0266559417,-0.0244574545
95714.617267,-0.205207173,0.0793449174,-0.886638926,-0.0320338941,-0.0522553833,-0.0370281058
95714.627296,0.194346637,0.0949784302,-0.190725284,0.0552733132,-0.0815903717,-0.0235932617
95714.637325,0.186672595,-0.72322015,0.805611566,0.00857664751,-0.0248368089,0.00659287133
95714.647355,-0.0873452755,-0.319222695,0.883103387,-0.0864883436,0.0593190803,0.00299760391
95714.657384,0.0149298347,0.906365869,-0.0192213009,-0.00688726349,0.0898351795,-0.00951206294
95714.667413,0.37220693,0.762871883,-0.555327242,0.0336545707,0.0687770298,-0.0104321854
95714.677443,0.189174933,-0.00758092203,-0.455004582,-0.0493175461,-0.0334068598,-0.00863401761
95714.687472,0.0638173459,0.402353979,-0.171175949,-0.0049447537,-0.0932781794,-0.00946572406
95714.697501,0.412616536,0.503130156,0.626589462,0.059790034,-0.00425962921,-0.00374631939
95714.707531,0.380090961,-0.0732490109,0.636059886,0.0186479242,0.0807146481,-0.00853574818
95714.717560,0.121608879,-0.376825902,-0.33197383,-0.0316370836,0.0661508864,-0.0158032475
95714.727589,-0.0198093241,-0.231816159,-0.925952114,-0.0326900965,-0.029821713,-0.0200102439
95714.737619,0.364462234,0.203177268,-0.390444139,-0.00975895008,-0.0715766126,-0.0223213339
95714.747648,0.520573929,0.174725153,0.757149441,0.037305765,-0.0317967111,-0.0150397195
95714.757677,0.0838736802,-0.347294541,0.564346649,0.041762829,-0.0125945243,-0.00514660945
95714.767707,0.401241448,-0.951914997,0.967513608,-0.0229029822,0.0672462484,0.0175826719
95714.777736,0.332232063,-0.732879593,0.137658529,-0.00117771209,0.110493322,0.0292193537
95714.787765,-0.0358711819,-0.358370866,-1.05947562,-0.0672065242,0.0419968157,0.0140316134
95714.797795,0.399754862,0.203226697,-0.918197847,-0.0280162504,-0.0411385508,-0.000543068922
95714.807824,0.540287588,0.0505898881,-0.37375487,0.0854338856,-0.0881052562,0.022838155
95714.817853,0.213999432,-0.896838495,0.607792992,-0.000495143917,-0.0730360248,0.04863753
95714.827883,-0.249448758,-0.519218503,0.835031722,-0.0549104473,-0.0143847005,0.0439967049
95714.837912,-0.269462934,0.488943663,0.457630488,-0.0409517548,0.0483468598,0.0136702211
95714.847941,0.181801628,0.410066708,0.233192787,0.0401763843,0.0908567658,0.00875029823
95714.857971,0.380371313,-0.537210745,-0.0714372258,-0.0186781435,0.0723904124,0.0228717087
95714.868000,0.472606383,-0.655720731,-0.379691274,-0.0326709224,0.0308762542,0.0410943908
95714.878029,0.330345591,-0.263905151,-0.826681593,-0.0273456665,-0.0284469915,0.0595285205
95714.888059,-0.167761532,0.46747063,-0.56556339,-0.0652421786,-0.0903236741,0.0390328375
95714.898088,-0.199719097,1.19343736,-0.174591311,0.0193680433,-0.0906717503,0.0164447037
95714.908117,0.0891841346,0.581776443,0.820979231,0.0258195495,-0.0111942343,0.0172915889
95714.918147,0.0849905554,-0.0706862706,1.06088806,0.0174401795,0.0722745633,0.0201065486
95714.928176,0.0742999423,-0.389395936,0.207835058,0.00361118409,0.0910868621,0.0292193537
95714.938206,0.17785216,-0.542463295,-0.385079981,-0.0318181774,0.0588647476,0.0472723899
95714.948235,-0.230016767,0.115475165,-0.923365021,-0.0658142267,-0.0258155209,0.0323925113
95714.958264,-0.199986735,0.772729552,-0.913124782,0.0266664365,-0.0994292894,0.0242805222
95714.968294,-0.14189958,0.0911330799,0.0259219091,0.081727028,-0.086920152,0.0480063541
95714.978323,-0.460655733,-0.691823799,0.548149547,0.0243992863,-0.0136158471,0.0773360191
95714.988352,-0.735764687,-0.213123916,0.387686598,-0.0654565616,0.0141164488,0.0675363822
95714.998382,-0.918921187,0.659330917,-0.246660522,0.0416943879,-0.00904985753,0.0670090748
95715.008411,-0.697799698,0.351204441,-0.0162981069,0.0691798107,-0.0314627537,0.0794702751
95715.018440,-0.609550556,-0.248457004,0.793243083,0.0251763967,-0.0179876914,0.0964375419
95715.028470,-0.758768911,0.104591824,0.780330994,-0.0249006188,0.0563086434,0.0943980945
95715.038499,-0.627452635,0.919931526,-0.0220369429,-0.0098106152,0.147291278,0.0670397041
95715.048528,-0.520384883,0.838465468,-1.42329607,0.0472321661,0.107856525,0.0443977771
95715.058558,-0.299185361,-0.407915672,-1.60916468,-0.00416950729,-0.0564325513,0.0556831865
95715.068587,0.374445064,-0.771181486,0.102531686,-0.0261576305,-0.116649287,0.0917285366
95715.078616,-0.155504473,-0.403243223,0.595540244,0.076940261,-0.106195311,0.130367814
95715.088646,-1.2910279,-0.0539754656,0.38210383,-0.0682869701,-0.027011015,0.105432099
95715.098675,-0.876717538,0.744759157,-0.0504897149,0.0015855838,0.0567488647,0.0638343228
95715.108705,-0.0089516108,0.147428237,0.0210879131,0.0526684747,0.0966944149,0.0751184059
95715.118734,0.76317141,-1.15034505,0.664078358,0.000619122658,0.0729659176,0.101886636
95715.128763,0.596267103,-1.0855047,0.408351201,-0.0620951241,0.0536564043,0.129175512
95715.138792,-0.513964495,-0.0579988942,-1.00091938,0.000668923736,-0.0334585258,0.120598806
95715.148821,-1.29677564,0.186618914,-1.68585337,-0.00469867732,-0.11231819,0.0914313329
95715.158850,0.617231638,-0.231044024,0.958930489,-0.0524675323,-0.00740428971,0.107771686
95715.168880,1.42245599,0.360866807,1.90912401,0.0474342966,0.110335661,0.102596371
95715.178909,0.353938868,-0.178916161,0.298725874,0.0551026055,0.119485748,0.131532667
95715.188938,-0.178179904,-0.774298084,-1.21280799,-0.0616090967,0.0159806623,0.121497622
95715.198968,0.239501026,0.0659274183,-1.26924591,-0.0207668597,-0.0454960117,0.113153672
95715.208997,0.840479326,0.0851394746,-0.165283969,-0.0184104944,-0.0681246245,0.11424583
95715.219026,0.853671985,-0.0260053991,0.726796973,-0.0203346292,-0.0638388046,0.110634057
95715.229056,0.0561216037,0.332334394,0.54638546,-0.0656917168,-0.040050915,0.0988421125
95715.239085,-0.490527505,0.862838204,-0.29008173,0.0230458622,-0.0316577354,0.0805171711
95715.249115,0.079037346,0.0725055546,0.238806535,0.0656274111,-0.00502159915,0.113989642
95715.259144,0.568815252,-0.778323978,1.09410234,-0.0643710642,0.0887296549,0.128732113
95715.269173,0.653084969,0.19211826,0.571761894,-0.0400058067,0.0944405398,0.10637114
95715.279203,0.573854999,0.734051739,-0.666065499,0.0292470326,0.0652541569,0.0830114839
95715.289232,0.950116051,-0.290888983,-0.487000141,-0.0065365302,0.0112423259,0.0902970938
95715.299261,0.86197278,-0.293846261,-0.238639712,-0.079214461,-0.019813594,0.089816658
95715.309291,0.719393497,0.612958969,-0.432415733,-0.00170289269,-0.0746302405,0.073442748
95715.319320,0.965048831,0.662815837,0.263169992,-0.00688354006,-0.0225899392,0.0634079559
95715.329349,0.919191993,0.4294633,0.468653401,0.0410512315,0.00203231579,0.0483310094
95715.339379,0.427049185,-0.57830899,-0.112405196,0.0312886128,-0.0333232791,0.0712464435
95715.349408,0.587862847,-1.03132178,0.517017327,-0.0900625809,-0.0128081492,0.084235741
95715.359438,0.756920168,0.312436465,0.365280705,-0.0439483485,0.0236065848,0.0651177076
95715.369467,0.758552591,0.710368592,-0.115435942,0.0574597643,0.029710283,0.0573322272
95715.379496,0.726127847,-0.287802853,-0.141416186,-0.0396185814,0.0117800184,0.0567268899
95715.389526,0.652763993,-0.139101781,-0.114274497,-0.040878523,-0.0226847479,0.0478521718
95715.399555,0.557514252,0.141456232,-0.430908836,0.0554099308,-0.0710016811,0.057658462
95715.409584,0.837045406,-0.802084647,0.704334381,0.0135551562,-0.0408680127,0.087369485
95715.419614,0.774593406,-0.619820127,1.07227805,-0.0399711839,0.047009909,0.0947331248
95715.429643,0.587721612,0.0367207866,0.0990567035,0.0178702754,0.0601677908,0.0937890319
95715.439673,0.552478815,-0.165488433,-0.313405323,-0.0320261753,0.0252284496,0.0870778693
95715.449702,0.924105703,-0.0506246573,0.0332179114,-0.0439749806,-0.00280025651,0.0756222812
95715.459731,1.04784482,0.344529055,0.100205873,0.00199304232,-0.00640377964,0.0702389685
95715.469761,0.813446723,0.0786109953,0.0618530542,0.014901383,-0.010281608,0.0681944622
95715.479790,0.552262395,-0.323735386,-0.068477207,-0.0336128882,-0.00994604969,0.0598800724
95715.489819,0.705263411,-0.0541700657,0.0489175848,-0.0473699792,0.00168131114,0.0496319627
95715.499849,0.836495224,0.318419996,-0.00570598578,0.00325191849,-0.0017501718,0.0474215394
95715.509878,0.774018748,-0.042843027,0.109046767,-0.00624571262,-0.0216916562,0.051201096
95715.519907,0.77679099,-0.245005329,0.36100785,-0.0201838984,-0.0157986121,0.055502901
95715.529937,0.96542541,0.0545910455,0.577917494,-0.026115557,0.0323611921,0.0615778362
95715.539966,0.944536205,0.387441985,0.220364869,-0.00604011664,0.0492722666,0.0529369434
95715.549996,0.892478539,0.29742797,-0.17585154,-0.00514582718,0.019445661,0.0462271107
95715.560025,0.962447928,0.130833661,-0.111377607,-0.0174040923,-0.0117612607,0.0402882604
95715.570054,0.955678872,0.143258769,-0.0698251145,0.00980196255,-0.0264374079,0.038474912
95715.580084,0.807680341,-0.0335944842,0.0510510897,-0.0110615071,-0.0161216543,0.0346061384
95715.590113,0.612939421,0.023656252,0.0509739328,-0.0147204239,-0.0185509888,0.0275165384
95715.600142,0.649968152,0.124829899,0.144092361,-0.00332955141,-0.00964857502,0.023087701
95715.610172,0.764687514,0.0137620956,0.431273811,0.00478962729,0.00482970007,0.0224077964
95715.620201,0.643245493,-0.0390974244,0.356295435,-0.00208851845,0.0200637816,0.0184114577
95715.630231,0.467904416,-0.036133967,0.0356881009,-0.00170315905,0.0157433333,0.0137333481
95715.640260,0.468405132,-0.0871035177,-0.145661569,-0.00881992454,0.00718553221,0.014689157
95715.650289,0.565979517,-0.0713832033,-0.0256802678,-0.0116367497,-0.00102952045,0.0168055707
95715.660319,0.524386912,0.0233022966,-0.021880291,-0.000342549973,-0.0120699206,0.0167690871
95715.670348,0.365277423,0.0539898465,0.026744916,-0.0089458915,-0.00971302347,0.0155658696
95715.680377,0.30056442,0.137048316,0.0923773718,-0.0118215735,-0.00384421557,0.0114073438
95715.690407,0.347788894,0.222405481,0.120320441,-0.00253859266,0.00979356604,0.0100832201
95715.700436,0.435821324,0.164555203,0.154856917,0.000292613886,0.0176205965,0.0100254297
95715.710466,0.395663721,0.123638616,0.0300375278,-0.00640124162,0.00917571268,0.00813405233
95715.720495,0.351634682,0.139329138,-0.111708446,-0.00479082797,-0.00281543661,0.00975964608
95715.730524,0.394062788,0.159499838,-0.0956305869,-0.00229118495,-0.00801206244,0.00951996183
95715.740554,0.401060976,0.119362619,0.007292612,0.00555954794,-0.0122467545,0.00983661151
95715.750583,0.362645906,0.0198383742,0.122776602,-0.00241582082,-0.00642801452,0.00899851433
95715.760613,0.374911951,0.0146414997,0.147484927,-0.00012283922,0.00355511109,0.00898972637
95715.770642,0.369436881,-0.0448584539,0.0932284357,0.00549003868,0.00942258766,0.00801607425
95715.780671,0.412102157,-0.131901294,0.0794664523,-0.00392982793,0.0119496616,0.00918706617
95715.790701,0.432669947,-0.103216521,0.00725987877,-0.00466459418,0.00423821198,0.00887414458
95715.800730,0.456518002,-0.0965191698,-0.0259707752,0.00174163994,-0.00187454155,0.0106020041
95715.810759,0.469663826,-0.141446984,-0.0136671739,-0.00543717747,-0.00352916358,0.0127221459
95715.820789,0.477036986,-0.109708367,0.0743495477,-0.014109495,-0.00104683117,0.0133104382
95715.830818,0.474057751,0.057077081,0.0477403577,-0.00492931237,-0.00284686176,0.0101183738
95715.840848,0.453950709,0.103269106,0.0335908363,0.00505008469,-0.00663840402,0.00987762416
95715.850877,0.3748223,-0.00451380325,0.0469816483,0.00382103598,-0.00743309132,0.0071532104
95715.860906,0.345135895,-0.0445700928,0.0703894119,0.00015705907,-0.00284899216,0.00524771836
95715.870936,0.330181414,-0.0648047565,0.0934347719,-0.0018072886,0.000196332544,0.00425142998
95715.880965,0.293786743,-0.0617520498,0.0693226595,-0.0030011836,0.00206001263,0.00362745131
95715.890995,0.299465081,-0.0337081098,0.0335429055,-0.00718607461,0.00204563161,0.0069995459
95715.901024,0.345521972,0.0249556807,0.0475924737,-0.00825826345,0.000783825842,0.00762671995
95715.911053,0.372938752,0.087141179,0.0481810872,-0.00625183793,0.00179476183,0.00840276497
95715.921083,0.42926993,0.117845831,0.0550199933,-0.00464568553,0.00429760056,0.0130212197
95715.931112,0.477062705,0.121324531,0.0941613326,-0.00857784306,0.0047977422,0.014858002
95715.941141,0.508064065,0.190734094,0.0861627351,-0.0016174052,0.00518842783,0.0120078867
95715.951171,0.505125235,0.198876392,0.0246114111,0.00165428817,0.00114708099,0.00862034521
95715.961200,0.468099061,0.163383474,0.0193805247,0.00914416196,-0.00425567388,0.00431214989
95715.971230,0.443394974,0.00112412501,0.0147651398,0.0213118793,-0.00429748561,-0.0021534728
95715.981259,0.426820125,-0.291561438,0.0544296262,0.01245021,-0.00238000977,-0.00344404002
95715.991288,0.395414568,-0.444485882,0.0644711278,0.00204923506,-0.00030780389,0.00310653698
95716.001318,0.391524429,-0.429463048,0.0378560926,-0.00705558048,-0.00327696235,0.00790848228
95716.011347,0.37372771,-0.305054396,0.10028303,-0.0200057345,6.53050042e-05,0.0116488926
95716.021376,0.342215331,-0.0237187951,0.0606138678,-0.0207825786,0.00391224116,0.0135314811
95716.031406,0.316915689,0.238866457,0.0273674318,-0.0140453129,0.00371090599,0.0113588741
95716.041435,0.313968311,0.367545371,0.038696635,-0.007810586,0.00376017481,0.00808451714
95716.051465,0.299928533,0.43527279,0.0373206705,-0.00613678979,0.00217426239,0.0052378645
95716.061494,0.268996147,0.455424803,-0.00653776043,0.00903630456,0.000185679844,0.00171636668
95716.071523,0.269210666,0.283408085,-0.0075863927,0.0136582201,-0.00164098238,-0.00412394555
95716.081553,0.227007163,0.0750380596,0.0317975232,0.00732016297,-0.00357576882,-0.00378838723
95716.091582,0.167653276,-0.014566365,-0.0158807583,0.0104318002,-0.00522506473,-0.00309969374
95716.101612,0.135400235,-0.124984354,0.0064701897,0.0144204173,-0.0048868433,-0.00272551907
95716.111641,0.103417023,-0.272554138,0.0476567711,-0.00147226288,-0.00165110236,0.00133926346
95716.121670,0.0675711455,-0.246953285,0.0339035555,-0.0110191627,7.70229049e-05,0.00585012528
95716.131701,0.0463360497,-0.0689075979,-0.0202594118,-0.00257294752,-0.00269612673,0.00663096428
95716.141730,0.0426070193,-0.00760235755,0.0164234284,-0.00295191524,-0.00118984274,0.00599819718
95716.151759,0.00471991781,0.0342179963,0.0578724602,-0.00408482399,0.00075426479,0.00332172046
95716.161789,-0.0288542158,0.0771805972,-0.0202442142,-0.000366252133,0.00211194434,0.00450070173
95716.171818,-0.0293602656,0.0929294435,-0.0247409411,0.000351736105,0.000424831723,0.00280613237
95716.181848,-0.0602269669,0.102998134,-0.0145527246,0.000484095204,-0.0018947814,0.00236244983
95716.191877,-0.074768118,0.0939653533,0.00822609346,-0.00129862477,-0.00439708776,0.00113633059
95716.201906,-0.054820724,0.0865700828,-0.0216792155,0.00526819764,8.36808136e-05,0.000705696815
95716.211936,-0.0694205464,0.0374938898,-0.0151086049,0.00258186729,-0.000284634331,0.000294771218
95716.221965,-0.0622321693,-0.0174201288,-0.00328898777,0.00195868746,-0.00128704813,0.00294994301
95716.231995,-0.0435608596,-0.0755354596,0.0196178406,0.00369693282,-0.000138160457,0.00382292707
95716.242024,-0.0628300621,-0.10802531,0.00808113203,-0.00389028979,0.00320035821,0.00363900995
95716.252053,-0.0348571095,-0.0361014484,0.0086463647,-0.0108960009,0.00471809363,0.0070212243
95716.262083,0.0456439758,0.069651147,-0.0172929632,-3.29674062e-05,0.00436682297,0.00352555903
95716.272112,0.0909336086,0.10321891,-0.0185333187,0.000641611304,0.00409304953,0.00283846369
95716.282141,0.12720458,0.0640115473,0.0185464119,0.00375751,0.00112708725,0.00129889016
95716.292171,0.187376798,-0.0101807795,0.0258564427,0.0108172839,0.00293324326,0.000370245599
95716.302200,0.188258549,-0.142069445,0.0156536131,0.0114814752,0.00018033347,-0.00210782589
95716.312230,0.116627657,-0.275732184,-0.0348905792,0.0110170209,-0.00724802123,-0.00529562944
95716.322259,0.0909628347,-0.441976968,0.00246446119,0.00290449908,-0.00703177278,-0.00189131015
95716.332288,0.0344569575,-0.435598117,0.0438117861,-0.010425154,0.000385396848,9.14132083e-05
95716.342318,-0.0579829874,-0.27832189,-0.0178266317,-0.0139003134,-0.000970418365,0.00509176421
95716.352347,-0.089010213,-0.0761738397,-0.0141926591,-0.0210551618,-0.00311000183,0.0057439722
95716.362377,-0.0643583677,0.155330626,-0.0255253695,-0.00303355079,0.000468221227,0.0065485129
95716.372406,-0.108990486,0.200659184,0.0352280822,-0.0150318908,-0.000325400765,0.00823189708
95716.382435,-0.197545845,0.317712652,-0.0407761301,-0.00842245748,0.000121743967,0.00375192769
95716.392465,-0.201196549,0.395191613,-0.0786221689,0.00437829284,-0.00245379893,0.00143284694
95716.402494,-0.188642261,0.26356322,-0.029677813,3.09484472e-05,0.000737733116,0.00341636938
95716.412523,-0.20688044,0.240183257,0.0102608142,-0.00325672385,0.00165652364,0.0012621383
95716.422553,-0.216485085,0.23819581,-0.0482492425,-0.00302822456,-0.00137814836,0.00322621985
95716.432582,-0.192564111,0.261958725,-0.000517184968,0.00299850865,0.000854379581,0.00301103637
95716.442612,-0.161186391,0.215182361,0.0275685073,0.00709524997,0.00609627968,0.00437936856
95716.452641,-0.164728083,0.134919733,0.00520353077,-0.00592121655,0.00493194579,0.00576367992
95716.462670,-0.173758434,0.170404696,-0.0796865833,0.0185966437,0.00128075163,-0.0020596225
95716.472700,-0.00522141129,-0.0551953628,-0.0492265631,0.0161499978,0.00656579478,0.00663133728
95716.482729,0.0128352005,-0.276316925,0.141771225,-0.0336793474,0.00794264904,0.0075195019
95716.492758,-0.0161675335,0.210679278,-0.125057172,0.0152450559,-0.00217576515,0.000799014405
95716.502788,0.155505961,0.0244291908,-0.0779008689,0.0308791419,-0.00307724535,0.00330078852
95716.512817,0.183600567,-0.492663089,0.206530405,-0.0129495653,0.00629335359,0.0054515574
95716.522847,0.109712105,-0.256804707,0.0401883349,-0.013896318,0.00836396167,0.00107678229
95716.532876,0.166350449,0.00774673062,-0.128516373,0.0064134804,0.00302432334,-0.00526766648
95716.542905,0.23507941,-0.157854504,0.00748550422,0.00655915508,0.000260494616,-0.0036921397
95716.552935,0.218527138,-0.306821533,0.0556939471,-0.00207507923,-0.00413931397,-0.00442717207
95716.562964,0.180379925,-0.265940712,0.0261253228,-0.00436113668,-0.00328816756,-0.00487192051
95716.572993,0.232451327,-0.225100313,0.049004094,-0.00692762514,0.0057370192,0.000876512551
95716.583023,0.216849999,-0.169966711,0.0531068532,-0.0190407465,0.0085913953,0.00751337659
95716.593052,0.20594662,0.0683138842,-0.0313489611,-0.012588173,0.00404218348,0.00768941146
95716.603081,0.284550566,0.188347546,0.00231073193,-0.000297152945,-0.000748577095,0.0122974796
95716.613111,0.314354607,0.211093302,0.0956565396,-0.0173861253,0.0089160348,0.0102684164
95716.623140,0.317253397,0.286033794,-0.0154774382,0.0032144912,0.00652824432,0.00893683563
95716.633170,0.372379072,0.266380451,0.0164818806,-0.00129716993,0.00268876503,0.00412370515
95716.643199,0.242490271,0.231408707,-0.11272376,0.0246249755,-0.0190069438,-0.00371024927
95716.653228,0.430593726,0.00331700454,0.24545664,-0.0279450248,0.00950912057,0.00428056548
95716.663258,0.396436897,0.229384508,0.133836925,-0.0159517469,0.0135054602,0.00223925215
95716.673287,0.23608603,0.447902372,-0.188553201,0.0126135854,-0.00505171254,0.00219317962
95716.683316,0.475500716,0.175473378,0.137854344,0.0115994533,-0.00162076232,0.000392084182
95716.693346,0.204766251,-0.0254971892,0.0509511365,0.0322061927,-0.00784563509,0.00195509306
95716.703375,0.02740039,-0.305085138,-0.088117727,-0.00999079259,-0.0103647192,0.00605849194
95716.713404,0.00144038469,-0.148892468,-0.00392611663,-0.0076504069,-0.00710234655,0.000474109487
95716.723434,-0.0900326149,0.00196356694,-0.180085817,0.0294327793,-0.0144023379,-0.00296243356
95716.733463,-0.015570006,-0.396164553,0.107065822,-0.000887043118,-0.0108105322,0.00202273734
95716.743493,-0.0472874789,-0.354355858,0.229214531,-0.0144427995,0.0046294103,0.000141746537
95716.753522,-0.150154125,-0.0743767135,-0.0346912572,-0.00248973338,0.00957756346,0.000738294967
95716.763551,-0.0861830268,-0.0331137195,-0.068158058,-0.00823710101,0.00562809591,0.000322308564
95716.773581,-0.0315027576,0.00658192006,-0.0173227738,-0.00909304047,0.00212444106,0.00225150276
95716.783610,-0.0626273791,0.116113354,-0.0551582912,-0.00636463273,-0.00515158105,0.002825414
95716.793639,-0.0684403763,0.186741608,-0.0316038126,-0.00553692259,-0.0041523632,0.00289199286
95716.803669,-0.0233085644,0.249421352,0.02705179,-0.0103234219,0.00507628868,0.000396078625
95716.813698,0.0229401958,0.369386433,0.0400030415,0.000764383136,0.00619747952,-0.00412650203
