t,ax,ay,az,gx,gy,gz
92945.425586,0.0136887172,0.0107735102,0.0622282004,-0.000230513513,0.000158534909,0.00190784503
92945.435609,0.0113362175,0.0132150079,0.0366390011,0.00121212087,0.000745229248,0.000723803416
92945.445633,0.00399657709,0.00612946093,0.0501069699,0.00014925329,0.00176095893,0.000870278105
92945.455656,0.00498933272,0.00495025195,0.0463677834,-0.000385509455,0.000484239485,-0.000142788514
92945.465680,0.00530638105,0.0152794342,0.0489110382,0.000963381608,-0.000826568401,-0.00100938138
92945.475704,-0.000418389809,0.0127942206,0.0481640192,0.000995073235,0.000376115146,0.00189825799
92945.485727,0.0026953583,0.00914420564,0.0475625462,0.00139721064,0.000909013674,-0.00103041995
92945.495751,0.002073975,0.0171285144,0.061778703,0.000164166966,-0.0001708981,0.000119798817
92945.505774,0.00206531677,0.0171561056,0.0617792876,0.000282677647,0.000596358557,0.000503560528
92945.515798,0.0226123024,0.0111151313,0.0495119267,0.000845936243,0.000657611294,-0.000997663476
92945.525821,0.00359210621,0.0170786473,0.0525052633,0.000729556079,0.000360668811,0.00102394167
92945.535845,0.00185620406,0.00184695674,0.0507119501,0.00433920464,0.00102938851,0.0249170251
92945.545869,0.019105719,0.00510742441,0.0373930343,0.00367261516,0.00306883734,-0.00168289524
92945.555892,-0.0103223095,0.00366129442,0.0358954892,0.00380097982,0.00343821757,-0.00201898534
92945.565916,-0.00343899801,0.00419794488,0.0433767849,0.00206486508,-0.000260380388,-0.00017155055
92945.575939,-0.00346232408,0.00419452908,0.043377954,0.000592669589,0.00174205052,-0.000219487585
92945.585963,-0.00203333246,0.0130637811,0.0577449175,0.00103262381,0.000284236099,-0.000794996507
92945.595986,0.00658250193,0.00464359259,0.0273702375,-0.000427587423,1.47242099e-05,0.000897175632
92945.606010,0.00831668704,-0.0136747663,0.0526560699,0.000513573701,-0.00096478645,-0.0010727644
92945.616033,0.00655439008,-0.00120529327,0.0420312155,0.00126431882,-0.000320035208,-0.000905252062
92945.626057,0.00518401504,-0.00552157187,0.0607365005,0.00112982921,0.000467727892,7.66552985e-05
92945.636081,0.00124722358,-0.00371967811,0.0659755702,-0.000720492098,0.000517694862,0.000396623276
92945.646104,0.00343636766,-0.00524481902,0.0586444967,-0.000689333072,-0.00045542419,0.000447755679
92945.656128,0.0069705514,-0.000320308862,0.0459229623,-2.64723494e-05,-0.00115263963,0.000544961542
92945.666151,-0.00951703928,-0.00263217513,0.0481634347,-0.000477878144,0.0004468548,-0.000283547677
92945.676175,0.00201638132,-0.0112794184,0.0400824195,0.000794846565,0.000169886043,-0.000298994593
92945.686198,0.00682555344,-0.000139540901,0.0522030654,0.000289911201,-0.00068845076,0.000566532835
92945.696222,0.00222068999,-0.0110562041,0.0411287137,0.000645975815,-0.000267671305,0.000221387483
92945.706246,0.00780382389,-0.00023819267,0.0201782802,0.000116539421,-0.000342772459,-0.00102976616
92945.716269,0.00644543155,0.0098580256,0.0305038593,0.000658759032,0.00105112605,0.000196619891
92945.726293,0.00703744262,0.00702383879,0.0915560017,-0.000112492417,0.000789071026,-3.98689881e-05
92945.736316,0.00662920888,-0.0015765423,0.0813794756,-9.25187487e-05,-0.000347566092,-0.00151020009
92945.746340,-0.00356819561,-0.00192105402,0.0637228228,-0.000899989158,-0.000519073685,-0.00021084398
92945.756363,-0.00370784154,-0.008807827,0.0427729738,0.00113945955,0.00126284733,-0.000737616792
92945.766387,-0.00558057661,0.00135675294,-0.00316343247,0.000513883017,-0.00192868488,-0.000860921107
92945.776411,0.0147100231,-0.000883089278,0.00117313543,0.000545042043,-0.000983795268,-0.000492606312
92945.786434,0.0231513777,0.00866606217,0.0529459928,-4.3681066e-06,-0.00127940613,-0.000110176392
92945.796458,0.0248296862,0.0170124137,0.0854161837,-0.00134926441,-0.000253290171,0.000340164639
92945.806481,0.0118771377,0.0317458816,0.0714975485,0.000387116568,-4.36994014e-05,-0.00078528747
92945.816505,0.00256544831,0.00807952642,0.064166475,-0.000476280227,-0.000735056121,-0.000374361873
92945.826528,0.00416292837,0.00701520339,0.0427647905,0.000259018532,-0.00148660003,0.000854686834
92945.836552,-0.00458210363,0.00808434873,0.0236088391,0.000531193567,-0.00115024287,-0.000203653239
92945.846576,0.0105178321,0.00648477261,0.0246568869,0.00111043104,0.00121011678,1.84541568e-05
92945.856599,0.0112648328,0.00593170074,0.0289963774,4.51667001e-05,-0.000980599434,0.000609409995
92945.866623,0.00307619257,0.0147663975,0.0363274509,-0.000409168599,-0.000412813621,0.000515933149
92945.876646,0.0212588967,0.00992499902,0.0539870263,1.7203507e-05,-0.00090443308,-0.000851866789
92945.886670,0.000971274451,-0.00875761291,0.0462041173,0.000992985675,-0.00148420327,3.15038487e-05
92945.896693,0.00891384922,-0.00426122394,0.0342325245,0.000416411349,0.000456974842,-0.000323762186
92945.906717,0.0126411626,0.0092007216,0.034981297,-3.07334121e-05,-9.07829963e-06,0.00135669298
92945.916741,0.01150498,0.00544738782,0.0476981552,0.000175661582,-0.000957163749,8.95606354e-05
92945.926764,-0.00779569538,0.000559296117,0.0607166268,-0.000429941225,-0.000776335015,-0.000185277313
92945.936788,-0.00265398511,0.00625828864,0.0595177724,2.2263499e-05,0.000735008856,-3.29446048e-05
92945.946811,0.0130001504,0.00428220736,0.0470996048,-0.000411565416,0.000166157668,0.00117533142
92945.956835,0.0121047359,0.0100385972,0.0349783744,-0.00061290036,-0.00133000629,0.00062485598
92945.966859,-0.0110244482,-0.0138227828,0.0256985049,-0.000487465528,-9.58973542e-05,-0.000287010334
92945.976882,0.00652001289,0.00339857466,0.0301864639,-0.000548984564,-0.000358218793,0.00187121565
92945.986906,0.010740334,0.00119283565,0.0412590621,-0.000775619526,-0.000200027018,-0.000557054766
92945.996929,0.00124884928,-0.00890893558,0.0614618922,-0.00122675905,0.00049399276,-0.000345866196
92946.006953,0.00216296845,0.00852615138,0.0559241318,7.34979403e-06,-0.000883394154,-0.000429756008
92946.016976,0.00396932376,0.00449395498,0.0457487747,-0.000549250864,-0.000275394414,0.00142087508
92946.027000,-0.00431198145,-0.0036570064,0.0421545496,0.000974343566,-0.000940119498,-0.000677695498
92946.037024,0.00792089266,-0.00110058165,0.0436520947,7.63256685e-05,0.0013547265,-0.000888085924
92946.047047,-0.00496156793,0.00194712005,0.0388642759,-0.000544457173,1.67543185e-05,0.000622726046
92946.057071,0.000572210397,-0.00449827497,0.0402110144,-0.000326610578,0.000507574878,8.82288441e-05
92946.067094,-0.00514178334,-0.00363916479,0.0376683441,-0.000628080452,0.000369889487,1.28615648e-05
92946.077118,0.0152203107,0.00278608705,0.0499380431,0.000808162382,-0.000736920279,-0.000607388094
92946.087141,0.0147768778,-0.00502736774,0.0554740499,0.000680330617,4.551647e-05,-0.000369301997
92946.097165,0.0119875941,0.00159285868,0.0524801288,-0.000114889292,-0.000485251541,-0.000991149805
92946.107189,0.0153230587,0.0113036898,0.0491869325,-0.00162729842,-0.000470870524,0.00101314485
92946.117212,-0.00266191269,0.0151665803,0.0509831683,0.00160498009,0.000663636136,-1.51013955e-05
92946.127236,0.00881628886,0.00501854968,0.0436520947,0.00119511969,0.000579213956,-0.00052829273
92946.137259,0.000853274095,0.00701747298,0.0402115989,-0.000544190872,7.02838297e-05,0.000758014619
92946.147283,0.0100632385,0.00836094631,0.0526291819,-0.000229405239,-0.000467941049,2.8308481e-05
92946.157306,-0.00231620452,0.00642424263,0.0497848984,0.00058898417,9.18554724e-05,0.00133778434
92946.167330,0.00563090029,0.00808185538,0.0426017089,-0.000159630377,0.00137256959,-0.000428424217
92946.177354,0.0170299357,0.00388236699,0.0557739097,-0.000867232331,0.000291858858,0.000627253205
92946.187377,0.0166788024,0.0126667309,0.0379682039,-0.000352975912,-0.000515611609,-1.1106953e-05
92946.197401,0.0142262399,0.00453137352,0.052779404,-0.00055777299,-0.00141602627,-0.000349061564
92946.207424,0.00537111685,0.00379472067,0.0571148029,0.00209233863,-0.000604294823,0.000845366158
92946.217448,0.00657165174,-0.00155356328,0.0436480031,0.000219071109,-0.000196831184,0.000981453806
92946.227471,0.00794058374,0.00849289299,0.0454430698,0.000464880868,0.000596524449,-0.00104175042
92946.237495,0.00291402428,0.00293291621,0.0382581267,-0.000878417515,-0.00133133784,0.000817934982
92946.247519,-0.0042103477,0.00265633689,0.0334673853,-0.00101317349,-0.00123173569,-0.000597534701
92946.257542,-0.00505551156,0.00501579604,0.0455862777,-4.43155295e-05,-0.000209614402,0.000733779743
92946.267566,0.00670316917,-0.00218502502,0.0527706362,0.000502165116,0.000152841851,0.000580115244
92946.277589,0.000959383084,0.0018864485,0.0458896445,1.08119275e-05,-0.000397367286,0.00123498635
92946.287613,0.00187083537,0.000350055547,0.0499292753,-0.000514097104,0.000282005174,0.00016279798
92946.297636,0.0111907812,-0.00554607155,0.0442412928,-0.00127682649,-1.20078912e-05,-0.00106784888
92946.307660,0.0115998917,-0.00556588137,0.0379576825,-7.20123935e-05,0.000248715631,-0.00109341554
92946.317684,0.0143094247,-0.00123942843,0.0261357273,-0.000219551497,-3.33131757e-05,-0.000175157562
92946.327707,0.00225276563,0.00621818496,0.0425935256,0.00133333774,-0.000861023553,-0.000230817124
92946.337731,0.014241748,0.00750775898,0.0524690229,-0.00167923013,0.000117954449,0.00158865424
92946.347754,0.00545483134,0.00489872726,0.0521679941,0.00182415824,-0.000766481389,0.000837642699
92946.357778,-0.00588856485,0.00437065283,0.0460322679,-0.000448317034,0.000375215779,0.00033403933
92946.367802,0.0059353814,-0.00758908516,0.0523170472,0.00116981962,6.28269627e-05,-0.000382618047
92946.377825,0.00106518155,0.0107230541,0.0399000487,0.000290976459,0.000445523241,0.00122300209
92946.387849,0.018454178,-0.00173504363,0.0410959805,0.000271535362,-0.000629594899,-0.000688615255
92946.397872,0.00678237188,-0.00521486684,0.0460340214,2.30624573e-05,-0.000856229919,-0.00126385782
92946.407896,0.0149235745,0.00107239217,0.0615945786,0.00099591515,0.00127376639,0.000987844542
92946.417919,0.000475983481,0.00259735498,0.0484288076,0.000754899113,-0.000525465235,0.000478914939
92946.427943,-0.00310013971,0.00607072562,0.0466331564,0.000955435156,-0.00126688939,0.000562804751
92946.437967,-0.0096553335,-0.00618066596,0.0439385104,-0.000296783168,0.00017121766,-0.000365041196
92946.447990,-0.00765670703,0.00187804143,0.0541121139,-0.00064832042,-0.000660753925,-0.00234323647
92946.458014,0.00627252266,-0.00111671537,0.0594990677,-0.00049865077,0.000545924413,-0.000553859398
92946.468037,0.0117843814,0.00576682903,0.0387000253,0.000881665619,-0.0012506441,0.000401150435
92946.478061,0.00845125494,0.00574886868,0.0566577068,-0.000742063741,-0.000183249125,0.00032818038
92946.488084,0.0192409628,0.00199955349,0.039748073,0.000211614257,-0.000377926161,4.72161919e-05
92946.498108,0.0256975916,0.0128876391,0.0360065484,-0.000305038993,-0.00105064071,0.00117373373
92946.508132,0.0138532053,0.00778408257,0.0443868387,-0.000513830804,0.000899592182,-0.00148489978
92946.518155,0.00310163754,0.00289675349,0.0463309585,3.53129872e-05,-0.000361947226,-0.000766378827
92946.528179,-0.00507286455,0.00484421146,0.0515665211,0.000486186182,0.0003027778,-0.000994878821
92946.538202,0.00554817218,0.00861888943,0.046329205,-0.00110638421,0.00158402463,8.87615606e-05
92946.548226,0.0122689135,0.00605605777,0.0472276151,-0.000293587393,-0.00062879594,0.000907683745
92946.558250,0.00665644395,-0.00880105019,0.0431850617,-0.00140252768,-0.000268736505,0.00029861927
92946.568273,0.00651937357,0.00130956193,0.0452794037,-0.000605976209,0.000159499759,0.00100089423
92946.578297,0.0116967945,0.00944484169,0.0422878206,-0.00196232414,0.000200512412,0.000392362475
92946.588320,0.0122224623,0.00101564788,0.0584510199,8.59130523e-05,0.000666033011,6.98529184e-05
92946.598344,0.00741314407,0.0034734848,0.0550099396,-0.000482139178,-0.000912688905,0.000210735016
92946.608367,0.0031854251,0.0168340889,0.0475251368,0.00110989856,0.000850856362,-0.000217768364
92946.618391,0.00323635157,0.0219286127,0.0556038138,0.00097061519,-0.00180458149,-3.53418291e-05
92946.628415,0.00447380268,0.00437131499,0.0424339511,-0.000784940668,0.00024312298,0.00082725659
92946.638438,-0.00806799125,0.00260039176,0.0334551104,0.000715181406,0.000373884744,-0.000261949375
92946.648462,0.00400350002,0.00138457709,0.0333072263,2.03626696e-05,0.000525418611,0.000942864455
92946.658485,0.0051265127,-0.00803839526,0.057999769,-0.000119985925,0.000313164666,0.000618224964
92946.668509,0.00385333269,0.00302165851,0.0741623838,-7.97721732e-05,-0.00063279015,0.000369486399
92946.678532,0.0188357795,0.00915991467,0.0633878918,0.000712784589,-0.000524133095,0.000725816935
92946.688556,0.00964229136,0.0081846262,0.0499228456,0.00109761127,-6.36725454e-05,-0.000679799356
92946.698580,0.0129994563,0.00297078684,0.0238841489,0.000278955617,-0.00120590243,-0.000676071271
92946.708603,0.00794259303,-0.004108271,0.0318143574,0.000915451092,-0.00037073507,0.000474414788
92946.718627,0.0132746017,0.00394906642,0.04647592,-0.00112985657,-0.00186583365,9.59793106e-05
92946.728650,0.00791201523,-0.00311452442,0.0336065015,-0.000209201797,0.000939273858,6.61518425e-05
92946.738674,0.0126256363,0.0162123996,0.0527624529,-0.000157802802,0.000474818575,-0.000877671875
92946.748698,0.0101579858,0.00648090015,0.0609948592,-0.00174105202,0.000227677228,-0.00121269748
92946.758721,0.00805071132,0.0114534096,0.0422895742,-0.000716533978,0.00143115968,0.00031462498
92946.768745,-0.000258797067,0.00658602733,0.0535147326,-7.47121812e-05,0.00023220462,-7.49956816e-05
92946.778768,0.0106541353,0.00168623605,0.0343617038,-6.45921973e-05,0.000594128156,-0.000642514788
92946.788792,0.015149273,0.00798661027,0.0265805484,0.00108642608,-0.000459684641,-0.0011490481
92946.798815,0.00621604324,0.00201351351,0.0488747978,8.53438105e-05,-5.86125534e-05,0.000344718806
92946.808839,0.00986598058,-0.00397558453,0.0651835431,-0.000615333905,-0.000739849173,-0.00119192526
92946.818863,0.00841616536,0.000203039158,0.0719160662,0.000473100052,-0.00140297634,0.000721556135
92946.828886,0.0174456403,0.0121903775,0.0514139609,0.000507454854,8.6263346e-05,-0.000634525903
92946.838910,0.00529392342,0.00680808628,0.0431850617,0.000416108407,0.000619428232,-0.000583658926
92946.848933,0.00216569013,0.0178192411,0.0339069458,-0.000243556598,-2.1594693e-05,-0.000677402131
92946.858957,4.10078638e-05,0.011811548,0.0467763642,-0.000371920964,-0.00101202435,0.000381470658
92946.868980,-0.000371372329,0.00696144108,0.0572498274,-0.000148481718,-0.000142235891,0.00171278464
92946.879004,0.00348744026,0.00802206975,0.0503670822,-3.84931627e-05,-0.000995246344,-0.000610024668
92946.889028,0.0123260323,0.000670145213,0.060243164,-0.000336767203,0.000948328641,-0.000623340718
92946.899051,-0.00293581599,0.0111371239,0.0442319404,-0.000312798802,-0.00134039193,0.000362562016
92946.909075,-0.00338374242,-0.00704737493,0.040789691,-0.000849159434,-5.08894445e-05,-0.000983665697
92946.919098,0.00108730205,-0.00752037643,0.0584475128,0.000514911662,0.00167403999,-0.000473137945
92946.929122,0.0139997924,-0.00204261631,0.0533627569,-0.000517595909,0.00130013213,0.00123181753
92946.939145,0.00555010841,0.00151251889,0.0413935021,-0.000460071577,0.00070411677,0.000439793803
92946.949169,0.00499132375,0.00537353256,0.0512730911,0.000262177695,0.000905185414,-0.00100337341
92946.959193,0.0059813577,-0.00787170606,0.0455886157,-6.03311055e-05,3.99244018e-05,0.00052288454
92946.969216,-0.00269764159,0.00380676274,0.0408002124,-0.000371388305,0.000165891892,-0.00021401234
