t,ax,ay,az,gx,gy,gz
92549.148834,0.0344745725,0.0253208853,0.0196724408,-0.00176282033,-6.55001908e-05,0.00143085862
92549.158858,0.0246995261,0.0622015679,-0.00891126417,-0.000723388554,-0.000934756053,0.000865469447
92549.168885,-0.00204440983,0.053661831,-0.0350937532,0.00287054743,0.000629052187,0.000183433986
92549.178909,-0.0249037047,0.0337131401,-0.000823234784,0.00113709581,-0.00173237284,-0.00024693297
92549.188935,-0.0490817813,0.00591634772,-0.0159319566,0.00553424105,0.00157261019,0.00101300864
92549.198960,-0.0368065111,-0.021699389,0.034647307,-0.00158305692,-0.000773102203,-0.00218198566
92549.208986,-0.0299544578,-0.0414445567,-0.0135360014,0.00365325024,-0.0036570393,-0.000946545282
92549.219011,-0.0299879674,-0.0415532047,-0.013538924,-0.00549364269,0.000316663371,-0.00156812673
92549.229037,0.00650351498,-0.0287323015,0.0124974346,-0.00489523022,0.0015411848,0.00182820227
92549.239062,0.0347167152,0.0475436404,0.0074009882,-0.00524543591,0.00446640091,0.000345887376
92549.249088,0.0484103643,0.0712593739,-0.00681750676,0.00327241847,-0.00316009349,-0.000907129848
92549.259113,0.0424387791,0.0660725093,-0.0199791862,0.000514182394,0.00139098261,0.00270305084
92549.269139,0.0401096421,-0.0404458097,0.0226593476,0.0212889687,-0.0091032037,-0.004101326
92549.279165,-0.0673239971,-0.0190001399,0.0503393817,-0.00421798874,0.00208899701,0.00148279056
92549.289190,-0.0212258427,-0.0629776855,-0.0343519949,0.00472996624,-0.00519022117,0.00292808818
92549.299216,-0.0388747277,-0.0170656465,-0.00292049932,-0.00239292432,0.0016021713,-0.000497536042
92549.309241,-0.0296617813,-0.0745872218,0.0219140822,-0.00161261803,-7.0293941e-05,-0.00319558499
92549.319267,0.0313179396,-0.0341369919,-0.0226802618,0.000608191958,-0.000487078605,-0.00269650785
92549.329292,0.00154742238,-0.0152542497,0.0102353348,-0.0032736316,-0.000258845668,-0.00313486462
92549.339318,0.0202075713,0.0406573514,-0.00592961801,-0.000917266631,0.00379927918,-0.0021742622
92549.349343,-0.0211544534,0.0441628753,0.000203185654,-0.000326577529,-0.00183863278,-0.00236627577
92549.359369,-0.0330313993,0.0404136971,0.0144181735,-0.00157240422,-0.000116100227,-0.00232100231
92549.369394,-0.0306290966,0.00613084899,-0.00459164741,-0.00158545367,-0.002501227,-0.00229863195
92549.379420,0.0149755205,0.00627223022,-0.0216544259,-0.00128238606,0.00187913999,-0.00131938724
92549.389445,0.0441553738,0.0296106914,-0.00115758131,-0.00165309796,-0.000715844258,-0.00173643907
92549.399471,0.0776655297,0.0474192833,0.00198480837,0.00164789015,0.00102479792,5.56025119e-05
92549.409496,0.0458745166,0.019740126,-0.00294972542,0.00180022286,-0.00345277464,-0.000640281716
92549.419522,-0.00540197663,0.0260592095,0.00752607589,-0.000921527723,0.00318462165,-0.00165494555
92549.429547,-0.0241694721,0.0119967819,-0.0113270931,0.000952272517,0.00193959377,0.00228440179
92549.439573,-0.0297755211,-0.0178308222,-0.0164136026,-0.00377883312,-0.00531645496,-0.0033830714
92549.449598,0.115122076,0.0173438968,-0.00849508459,0.00142551617,0.0100302775,-0.00170208351
92549.459624,-0.0760683304,-0.14592673,0.0163745683,0.00830206376,-0.0197595763,0.00149450846
92549.469649,-0.14035402,-0.183524091,0.0139657535,-0.0138722145,0.00892826119,-0.00479987288
92549.479675,0.115016734,0.0371752084,0.0461103658,-0.00437405,0.00783583238,0.000643095693
92549.489701,0.086237872,0.0524983949,-0.0819718242,0.00542984538,-0.00616094334,0.00262368866
92549.499726,0.106590504,0.0931251688,0.0280135681,-0.00364514247,0.00480861725,-0.00278945291
92549.509752,0.0704985058,0.0731636549,0.073792738,0.00413235331,-0.000825566397,-0.00201527146
92549.519777,-0.052918204,0.0586193803,-0.109194762,0.0099801217,-0.00317207728,0.00512093468
92549.529803,-0.100293676,-0.0661398941,0.0533297957,0.00120314218,0.0033473407,-0.000106318162
92549.539828,-0.140341864,-0.098952414,0.0624535979,-0.00319906293,0.0012916467,4.65472625e-05
92549.549854,-0.0391718566,-0.0760651854,-0.0387025913,0.00114029164,-0.00261893873,0.000628715141
92549.559879,-0.00453245466,-0.0209799704,0.0213038413,-0.00418496544,0.00443098085,0.0017901191
92549.569905,-0.0541239676,-0.0245279269,-0.0211979143,0.00201034646,-0.00254463688,0.00267215841
92549.579930,-0.0350571102,-0.0290854258,-0.00547661355,0.000528030812,0.00716178627,0.00516807264
92549.589956,-0.137632843,-0.10834,0.0958333049,0.0027584283,-0.00438727769,0.00434062839
92549.599981,-0.171640399,-0.127354113,-0.0232665373,0.00464181563,0.00264799451,0.0111189063
92549.610007,-0.213273647,-0.131107219,-0.00575484597,-0.00203339748,-0.00116645095,0.00705039477
92549.620032,-0.118550249,-0.115850339,-0.056037757,-0.000372117602,0.00287569496,0.00871673482
92549.630058,0.0296097794,-0.0540593428,-0.0427217638,-0.00448829906,0.00574764791,0.00477898469
92549.640083,0.111881678,0.0383456952,0.0552739155,-0.00823829688,0.00285705268,0.000773058033
92549.650109,0.169153215,0.19790417,0.00662825027,-0.00169091501,0.00362990187,0.000106468557
92549.660134,0.112257389,0.315502777,0.00288906374,0.000641747859,0.00350739663,0.0030500607
92549.670160,0.0381895744,0.344157575,0.0183140119,0.00491638768,0.00230950672,0.00238613481
92549.680185,-0.0315123822,0.247984891,0.00157681209,0.00882644027,-0.00158190417,0.00455128471
92549.690211,-0.114417442,0.118137628,0.0131246265,0.00610628825,-0.000255383592,0.000577581807
92549.700236,-0.197416737,0.0431564017,0.00102210082,0.00429160993,0.00382804121,-0.00298599364
92549.710262,-0.258640546,-0.000576631027,0.00148328859,0.00264764072,0.00242508804,-0.00539695309
92549.720287,-0.294018441,0.0221813817,-0.00703611795,-0.00106587102,0.00266290824,-0.00701482432
92549.730313,-0.312812829,0.054271469,-0.029482343,-0.00271010671,0.00353828953,-0.0127416852
92549.740338,-0.272655006,0.11441742,-0.0218537479,-0.000808343334,0.00200936858,-0.0170384303
92549.750364,-0.252419133,0.0826716158,-0.0127182552,0.00465699572,-0.00290815816,-0.0229216174
92549.760389,-0.314634236,-0.0533867042,-0.010015426,0.00256668062,-0.00221147532,-0.0287629955
92549.770415,-0.369823368,-0.13259037,-0.0155572781,-0.0070438687,0.00314760367,-0.0325478793
92549.780440,-0.357656472,-0.0920616864,-0.0276942906,-0.00515968205,0.00406026883,-0.0271853388
92549.790466,-0.285230995,-0.0304597829,-0.0514901767,-0.00018276683,0.00306477929,-0.0173074075
92549.800491,-0.26318904,-0.00565199806,0.0549062512,-0.00101473833,0.00388476668,-0.0159148418
92549.810517,-0.244764307,0.0694712667,0.0390423271,-0.00102033098,0.00438117977,-0.0176339105
92549.820542,-0.253300683,0.207344198,0.012256027,-0.000580376784,0.00387411374,-0.0199697719
92549.830568,-0.198700548,0.334371107,0.0104469318,-0.0153441428,0.0103458617,-0.0206864283
92549.840593,-0.211684642,0.39888603,0.100612356,-0.0383381414,0.0245985672,-0.0334213965
92549.850619,-0.203726797,0.405445206,0.0417013172,-0.0420628357,0.0225298241,-0.0385447845
92549.860644,-0.287029057,0.43500499,-0.116975333,-0.000788369666,0.00212787926,-0.049143634
92549.870670,-0.293466671,0.256946689,-0.16257447,0.0243191142,-0.00809280066,-0.0411134057
92549.880695,-0.479370405,0.0373928149,0.0542977639,0.0088288375,-0.0016705875,-0.0607374415
92549.890721,-0.502630358,-0.0208393015,0.0673115593,-0.00993286625,0.00677988907,-0.0620956526
92549.900746,-0.451980221,0.093023736,-0.058694409,-0.00143099045,0.00536974515,-0.0574878485
92549.910772,-0.413664665,0.0870357293,-0.0516520893,0.00521838998,0.0018517094,-0.0534510308
92549.920797,-0.424533959,-0.00965938881,0.0158368081,-0.00334873276,-0.00110786145,-0.0521322333
92549.930823,-0.395516612,-0.0690882773,0.002054951,-0.00533145612,-0.00194995296,-0.0554619834
92549.940848,-0.304632299,-0.09629631,-0.0350686187,-0.00462198995,0.00183067048,-0.0559056655
92549.950874,-0.271183692,-0.145767539,0.0210337922,-0.00256682855,-0.00336036276,-0.0564830408
92549.960899,-0.309908084,-0.184630427,-0.00902758403,0.0209835042,-0.0190109625,-0.058214891
92549.970925,-0.286647584,-0.22691728,-0.164402855,0.0568775927,-0.0304606907,-0.0535879165
92549.980950,-0.296454528,-0.279483041,-0.0695326139,0.0567052831,-0.022752171,-0.0505583056
92549.990976,-0.243571462,-0.268232985,0.174008431,-0.000861074003,-0.0107434444,-0.0477215045
92550.001001,-0.230922208,-0.0836601706,0.259848978,-0.0381160322,0.0215375297,-0.0537519709
92550.011027,-0.082310732,0.0370111952,0.169490077,-0.0592913608,0.0226629809,-0.0464708873
92550.021052,-0.253258378,0.184284591,0.00773241212,-0.0503591168,0.0210746717,-0.0500768044
92550.031078,-0.202729456,0.212861391,-0.211266897,-0.0142759494,0.0107141765,-0.0530480959
92550.041103,-0.143652633,0.151730649,-0.139281273,0.0158838165,-0.00755430902,-0.0442151867
92550.051129,-0.220629672,-0.00860228097,0.0839990747,0.00115067799,-0.00159415479,-0.0590921373
92550.061154,-0.195169835,-0.0808262623,0.0868205619,-0.0130245303,0.00247861767,-0.0644104735
92550.071180,-0.198468274,0.0212982422,-0.0076194708,0.000358188424,0.00325672604,-0.0656736821
92550.081205,-0.190595147,0.0449640357,-0.0188370304,0.00294944419,0.00415234729,-0.0645887137
92550.091231,-0.312776406,0.070752155,0.0938395007,-0.00197580589,0.00457738755,-0.0672787756
92550.101256,-0.359989774,0.0901673419,0.00854022137,-0.00243413581,-0.00240968172,-0.0625420765
92550.111282,-0.283978638,0.0541416869,-0.0483033634,0.0107290708,0.00645518252,-0.0540356741
92550.121307,-0.335886539,-0.00132673701,0.0815978588,-0.00277928162,0.00293794573,-0.061543125
92550.131333,-0.335549087,0.0500052082,0.0211419288,0.00576946519,0.00180530334,-0.0582956628
92550.141358,-0.305229735,0.0622066094,-0.0550043223,0.0034301447,0.000754686322,-0.0583723665
92550.151384,-0.286280102,0.138197761,0.0534876166,0.000920115346,0.00606183378,-0.0632901595
92550.161409,-0.22996856,0.18083224,-0.0364305547,0.00625096455,0.00216935757,-0.0608016953
92550.171435,-0.17029651,0.146164283,0.00159434775,0.00715404244,-0.003053634,-0.0611247376
92550.181460,-0.195917548,0.148318447,0.0102873573,0.00161200467,0.00329907048,-0.0662478611
92550.191486,-0.184448534,0.131643718,-0.0802369632,0.00649011655,-0.00159688496,-0.0667208389
92550.201511,-0.184591377,0.0647851181,-0.103550619,0.0132846395,0.000619930348,-0.0624768243
92550.211537,-0.165119181,-0.0645728823,0.0271058056,0.00224051073,-0.00164668604,-0.0654569075
92550.221562,-0.121896052,-0.09655339,0.0631766514,0.00445279859,0.0024489895,-0.066088605
92550.231588,0.00257553245,-0.104315622,0.0438909362,0.00714552037,-0.000854395721,-0.0628342212
92550.241613,-0.0484656359,-0.153519633,-0.0187961138,0.00126526116,-0.00294417799,-0.0598847747
92550.251639,-0.0929772335,-0.123990555,-0.0497786966,-0.00455720808,0.0064517208,-0.0616539077
92550.261664,-0.0201530167,-0.0846401763,0.0504726527,-0.00130681989,0.00468684356,-0.0587891445
92550.271690,-0.0368729685,-0.157199217,0.0805398742,-0.00563179368,-0.00844254116,-0.0533885241
92550.281715,-0.0692644363,-0.207201703,-0.0857267928,-0.00473164527,-0.00211194022,-0.0514524088
92550.291741,-0.0262314781,-0.158726865,-0.119707388,-0.00879669368,0.0187651109,-0.0512215078
92550.301766,-0.0618392638,-0.142805201,0.147818344,-0.0139563018,0.000722728337,-0.0515086011
92550.311792,-0.0547889252,-0.155017653,0.0686279026,-0.00378063011,-0.017660541,-0.0424008549
92550.321817,-0.0288274996,-0.162817038,-0.182164721,0.0024730047,0.00930316696,-0.0410490364
92550.331843,-0.116274842,-0.209404949,-0.0727626818,0.00680064138,0.00528765279,-0.0427808866
92550.341868,-0.0784835566,-0.303876454,0.0492206068,0.016421577,-0.0134402286,-0.0353227065
92550.351894,-0.107535555,-0.263620213,0.0166463709,0.019754788,-0.0122015928,-0.0313468755
92550.361919,-0.036580493,-0.273501957,0.0651716246,0.0114065791,0.00112886048,-0.0289433685
92550.371945,-0.106552462,-0.241323771,0.0906094328,-0.0136068956,0.0120392986,-0.0290682737
92550.381970,-0.151913096,-0.0733515973,0.0120169576,-0.0116633204,0.0122688631,-0.0245377023
92550.391996,-0.126099112,0.00688203268,0.0144029759,0.0025020331,0.00354514639,-0.0165295762
92550.402021,-0.14266943,-0.0578553923,-0.00518493713,0.00691462455,-0.00122564022,-0.0111720965
92550.412047,-0.148635481,-0.200864481,-0.037039042,0.00290363778,0.00548659121,-0.0126317751
92550.422072,-0.190462497,-0.234738511,-0.0299996449,-0.00119017337,0.00739314822,-0.0108956595
92550.432098,-0.124241528,-0.238798052,-0.0111342009,0.00505999902,0.00360746445,-0.00440100884
92550.442123,-0.145908997,-0.229689082,0.0276295372,-0.00124210508,-0.00346775543,-0.000597748214
92550.452149,-0.10692061,-0.220449289,-0.0774183987,0.00408022206,0.00111154987,0.00661568972
92550.462174,-0.0884408139,-0.220569883,-0.0670764529,0.00462430583,0.007815259,0.0148259483
92550.472200,-0.137278422,-0.270944528,0.0622273879,0.00420832036,-4.13326029e-05,0.0190401345
92550.482225,-0.183783513,-0.324815599,0.0595304039,-0.00483444326,-0.0145845893,0.0164627272
92550.492251,-0.160984876,-0.141641308,-0.0796606247,-0.0111325522,0.0069116484,0.018323478
92550.502276,-0.0840216093,0.12283627,-0.158381695,-0.00590423487,0.0159019478,0.0202252425
92550.512301,-0.0665782522,0.141026208,0.0446671813,-0.00499130359,0.00130995533,0.0225901275
92550.522327,-0.112597533,0.0547256791,0.0835676976,0.00369299886,-0.0097762519,0.0239810988
92550.532352,-0.0494269141,-0.0500526827,-0.0391257852,0.00348420705,0.000170655042,0.0229568451
92550.542378,-0.0976534087,-0.0974250583,-0.0177147484,0.000431425361,0.00862326143,0.0166816402
92550.552403,-0.108830755,-0.0803584804,0.0714657564,-0.00571035679,0.00626316895,0.00940162199
92550.562429,-0.0855258398,0.0704489891,0.0748963153,-0.000766464493,0.00121674473,0.00589876691
92550.572454,-0.0664614712,0.232295118,-0.0546898495,-0.00329167388,0.00859716298,0.00261695333
92550.582480,-0.123249586,0.283839391,-0.0179082251,-0.0235583297,0.0158598688,-0.00563644921
92550.592505,-0.116476804,0.280880377,0.0427721613,-0.0292191449,0.0181259536,-0.0109174971
92550.602531,-0.112319337,0.284580948,-0.0672617463,-0.0083596687,0.00746665146,-0.0147694938
92550.612556,-0.138708253,0.191509208,-0.0551370088,0.00602752536,-0.00763586913,-0.0145377994
92550.622582,-0.230423483,0.0707031283,0.0365896733,-0.00753195902,-0.00207172664,-0.0259108294
92550.632607,-0.22147427,0.10594483,0.0374530121,-0.0152588542,0.00710712462,-0.0296416518
92550.642633,-0.192170251,0.141098634,-0.0153912738,-0.0033361485,-0.00276121874,-0.0274248358
92550.652658,-0.216609294,0.101396263,-0.0191257842,0.00582405979,0.00062499034,-0.0198641208
92550.662684,-0.272379002,-0.0866036036,0.0426856521,0.00188471245,-0.00265975254,-0.0192225662
92550.672709,-0.255892051,-0.213442424,0.0156006613,0.00118456718,-0.00568217369,-0.0146853377
92550.682735,-0.190758265,-0.223874003,-0.0654947367,0.00412176743,0.00102419821,-0.0112708986
92550.692760,-0.142909477,-0.139018668,0.00798083392,-0.00468397459,0.0107095823,-0.0155178413
92550.702786,-0.140174837,0.0506708325,0.102990191,-0.00393136513,0.00613453794,-0.0170885746
92550.712811,-0.119860071,0.214918524,0.0271338627,0.00853702247,0.00581415971,-0.0147782818
92550.722837,-0.15821121,0.196038157,0.0490043337,0.00207273157,0.00540296776,-0.0182094995
92550.732862,-0.155943594,0.176034594,0.0512389609,-0.00712875642,0.00588313579,-0.0216945123
92550.742887,-0.10031544,0.20123167,-0.107239536,-0.00179977102,0.00987707773,-0.0220772077
92550.752913,-0.161421185,0.0552312722,-0.145092005,-0.000240756518,0.0080157951,-0.0267001886
92550.762938,-0.27993824,-0.104282833,-0.0270396261,-0.0080203823,0.00115762251,-0.0304224875
92550.772964,-0.257771691,-0.173220724,-0.0589375701,-0.0104382661,0.00259972429,-0.0323085368
92550.782989,-0.253843485,-0.108477417,-0.0447471322,-0.0112523948,0.0095737441,-0.0356068641
92550.793015,-0.220303673,0.00877666906,0.0801651956,-0.0126590765,0.000132838223,-0.0361410931
92550.803040,-0.137674819,0.0652757147,0.0231322258,0.00233771613,-0.00243950919,-0.0272386794
92550.813066,-0.10983848,0.00779050756,-0.0247430396,-0.000969930012,0.00575370617,-0.0264048439
92550.823091,-0.182123964,-0.05805044,0.105880067,-0.00803156748,0.00771752089,-0.0302070391
92550.833117,-0.223280552,-0.00707845067,0.0317977628,-0.00359074671,0.00662908699,-0.0263166924
92550.843142,-0.308343319,0.0372077772,-0.0714615361,-0.00273560586,-0.00394579307,-0.0283114028
92550.853168,-0.312881291,0.00294825516,-0.0977960008,0.00245809097,-0.00439267144,-0.0316318304
92550.863193,-0.226233776,0.010242924,-0.0482647849,-0.00558465572,0.0178926591,-0.035714458
92550.873219,-0.225981025,0.0706024078,0.155521758,-0.0108396047,0.00425301488,-0.037360023
92550.883244,-0.174303956,0.122336303,-0.0125247785,0.0106377239,-0.00588137847,-0.0288845126
92550.893270,-0.150742244,0.118129682,-0.154503392,0.00530314593,0.0113175814,-0.0288922351
92550.903295,-0.198846989,0.000684712412,0.0367369728,-0.00264212878,0.00141195448,-0.0316624597
92550.913320,-0.150244487,-0.0492975169,-0.0210196351,0.00446185291,0.00245857677,-0.0223421932
92550.923346,-0.179504082,-0.0597141536,0.0475120493,-0.00641103454,-0.000615510083,-0.0266426664
92550.933371,-0.261351814,-0.087122659,0.0774161892,-0.00989977542,-0.000185942202,-0.0300270107
92550.943397,-0.194775904,-0.0536470174,-0.0337891003,-0.0050741275,-0.00302460561,-0.0299191524
92550.953422,-0.148563274,-0.135762753,-0.0385886096,-0.00064316012,-0.00688059632,-0.0275068593
92550.963448,-0.102117137,-0.216462667,-0.0700107528,0.00255023626,0.00454463061,-0.0239408885
92550.973473,-0.0828637262,-0.207843691,0.0163365743,-0.0021952504,0.0149466716,-0.0268187013
92550.983499,-0.10174645,-0.0988282579,0.180773688,-0.0117701133,0.00710206428,-0.0272352186
92550.993524,-0.0397457429,0.0166565539,0.0347145271,0.00448688686,-0.0103765284,-0.0208702639
92551.003550,0.0148181882,0.0440543735,-0.222176998,0.0153757549,0.0129583557,-0.015188941
92551.013575,-0.178401272,0.0193739596,-0.0220852185,-0.00190336785,0.0271916189,-0.0222356666
92551.023601,-0.234104363,0.131640102,0.276268782,-0.0182770155,0.00083404851,-0.0271246967
92551.033626,-0.0788111537,0.249221758,0.222476402,-0.0246134754,-0.0131416885,-0.0290437725
92551.043651,-0.0110002122,0.408223585,-0.338697345,0.00726136805,0.0176985156,-0.0244570088
92551.053677,0.103755865,0.228187317,-0.346716986,0.0207843669,0.0147053892,-0.0200039365
92551.063702,-0.0633081856,0.00646630975,0.144428701,-0.00157846224,0.000955222308,-0.0297468465
92551.073728,-0.0131563993,0.0401949216,0.0776745479,-0.00450832203,0.00474243095,-0.0321646512
92551.083753,0.0759358289,0.144363408,-0.0480321452,-0.00478688899,0.00809348696,-0.0303382569
92551.093779,0.136689783,0.173900523,-0.0136219261,-0.0014259797,-0.0013921607,-0.0314381414
92551.103804,0.14034362,0.0932383286,-0.129872809,0.0113500031,0.00181881264,-0.0241261676
92551.113830,0.0802091589,-0.0259889028,-0.0795694392,0.00633926557,0.00553019387,-0.0259397805
92551.123855,-0.0103529866,-0.125734988,0.16269501,-0.00413761048,-0.00428515258,-0.0301752717
92551.133881,0.0413963117,-0.122004003,0.110164613,-0.000493340702,-0.00787988728,-0.0264630907
92551.143906,0.00682768717,-0.13823961,-0.0206239138,-0.00074021569,-0.00405665351,-0.0249637321
92551.153932,-0.0202425536,-0.187120107,-0.0251118729,0.0024862041,0.00369900414,-0.0239810266
92551.163957,-0.00882117168,-0.241077194,-0.0101317459,0.00867006376,0.00263533784,-0.0199583203
92551.173982,0.0461026902,-0.204169496,0.176482128,-0.00166380002,-0.00226834048,-0.0205769737
92551.184009,0.0645453696,0.0143442949,0.157457694,-0.0100935036,0.00975263627,-0.0262849249
92551.194034,0.0516855866,0.243744148,-0.0327533275,-0.00672140896,0.0145077104,-0.0230875344
92551.204059,-0.0638976257,0.331815395,-0.0749821115,-0.0108695486,0.00529104188,-0.0246982158
92551.214085,-0.156941537,0.267096145,-0.243467039,0.0109721004,-0.00208484898,-0.0115632371
92551.224110,-0.176544739,-0.0479941792,-0.0933425285,0.0156994779,-0.0176576837,-0.0166275047
92551.234136,-0.217862472,-0.202647894,-0.0584115004,0.0397627336,-0.0244575325,-0.0187372614
92551.244161,-0.155832589,-0.292631349,-0.0825370569,0.0417515841,-0.023335544,-0.0133203913
92551.254187,-0.153030008,-0.22143366,0.158747734,0.00664499642,-0.0115390704,-0.0158477307
92551.264212,-0.0543256185,-0.0930875953,0.188049232,-0.0220241993,0.0110434698,-0.0312565148
92551.274238,0.086728432,0.118229598,0.0360823083,-0.0469535197,0.0179921896,-0.0166978121
92551.284263,-0.116192927,0.222314096,-0.0949786053,-0.0354851502,0.0152358184,-0.0302250714
92551.294289,-0.0500368536,0.173079489,-0.515312972,0.0392490086,-0.00464920657,-0.0173707933
92551.304314,0.0419081428,-0.0857996851,-0.337966108,0.0771921371,-0.0122498679,-0.0173561454
92551.314340,-0.211180109,-0.0984553512,0.10815678,0.0536753555,0.0010779212,-0.0188365963
92551.324365,-0.188100152,-0.021365353,0.481108634,-0.00414613254,-0.00740504548,-0.0350568474
92551.334391,-0.196974071,0.217073967,0.204384865,-0.021648161,-0.0017144032,-0.015075681
92551.344416,0.0163685092,0.443020538,-0.220619247,-0.00222146597,0.0237134588,-0.0251573429
92551.354442,0.0833211808,0.322195443,0.0368071154,0.0299172961,-0.00166327056,-0.0167303023
92551.364467,-0.126566437,0.103466676,0.0994053182,0.00814275823,-0.0206574682,-0.0195202299
92551.374491,-0.387553634,0.0477516023,-0.145864743,-0.00819626816,-0.0184121575,-0.0277525925
92551.384518,-0.268161896,0.0123947317,-0.345642634,0.00639572468,-0.00293333227,-0.0214970943
92551.394542,-0.176296792,-0.102553617,-0.0149084588,0.0164632723,0.00619784832,-0.0312306837
92551.404569,-0.318729652,-0.222312873,0.289374932,0.0413529073,-0.0387983858,-0.0258955725
92551.414594,-0.247145832,-0.32069757,0.15619162,0.0798305292,-0.0506382673,-0.0265661546
92551.424620,-0.0883452446,-0.35031533,-0.0454655096,0.0867877696,-0.0397382169,-0.0174861078
92551.434645,-0.301581954,-0.391074297,-0.175806877,0.0252309312,0.0025288113,-0.0171915621
92551.444671,-0.521898392,-0.241757761,0.180297302,-0.0598879586,0.0284179323,-0.0233458609
92551.454696,-0.266719205,-0.0533405635,0.539953037,-0.117992541,0.0364183359,-0.0178064865
92551.464721,-0.218808503,0.22292567,0.234672451,-0.126889897,0.0496523813,-0.0310772837
92551.474747,-0.234373243,0.39333837,-0.22707763,-0.0675892885,0.0355051369,-0.0363053375
92551.484772,-0.355519277,0.459342581,-0.435570743,0.0260274821,0.00162786404,-0.022404968
92551.494798,-0.313666852,0.0809676797,0.0584882014,0.0464981329,-0.041374994,-0.0265065015
92551.504823,-0.347627684,-0.021406233,0.0327318288,0.055021314,-0.0287217866,-0.0189604343
92551.514849,-0.258760757,-0.012413382,-0.130253917,0.0294656233,-0.00207126657,-0.0301411816
92551.524874,-0.239676227,0.0477372084,0.246552859,-0.00983570974,0.00519516827,-0.0350152992
92551.534900,-0.235002791,0.0902396947,0.0395900241,0.0110706371,-0.0241696458,-0.0245083303
92551.544925,-0.112891292,0.0186943981,-0.382639947,0.0197370966,-0.00888017057,-0.0132223864
92551.554950,-0.232309899,-0.0927128437,-0.100527472,0.0128078173,0.00175942407,-0.0230901979
92551.564976,-0.0439409844,-0.150661449,0.160602422,0.00237488382,-0.000397203648,-0.0161779628
92551.575001,0.0662738647,-0.166405108,0.276283396,0.0107143066,-0.0168669909,-0.0151723542
92551.585027,0.0413155929,-0.17061383,0.0322349852,-0.00145420925,0.00613579662,-0.0159851511
92551.595052,-0.325617512,0.0551118106,-0.184598086,-0.0162419434,0.0237693847,-0.0227285393
92551.605078,-0.207647222,0.0749870161,0.150850843,-0.0105060273,-0.0112418612,-0.0166315001
92551.615102,-0.0752188786,0.02931812,0.0740832454,0.0143367379,-0.0212702617,-0.0112806757
92551.625129,-0.168535876,0.0557671692,-0.263628953,-0.00385132029,0.0193908815,-0.0201159802
92551.635153,-0.204334919,0.0305360079,0.117315653,-0.0195863414,-0.00782502586,-0.0291283832
92551.645179,0.0581325891,0.0729729181,-0.0571594545,0.0242615399,-0.0176877766,-0.0107978445
92551.655204,-0.0717058335,0.0360493645,-0.163800213,0.00637282113,0.00886340668,-0.0170048748
92551.665230,-0.182665779,0.139684584,0.205925665,-0.0265694167,0.006988008,-0.0318780982
92551.675255,0.0980105995,0.223517353,0.143006559,-0.0193860716,-0.00905913445,-0.0141672765
92551.685281,-0.0511336039,0.185182434,-0.331196176,0.0232335609,-0.0118059195,-0.00936027175
92551.695307,-0.076497059,-0.065138809,-0.144966333,0.0436205883,-0.00913343722,-0.0178070192
92551.705332,0.125435234,-0.297167751,0.217721316,0.0490843301,-0.0352119073,0.00334753445
92551.715358,0.121091789,-0.169714433,0.313434438,0.0266397429,0.00920189401,-0.00946067204
92551.725383,-0.220635006,-0.0772406224,0.170243526,-0.0193226877,-0.000993219129,-0.0140208036
92551.735408,-0.234375307,0.132623322,-0.109829553,-0.0547437984,0.00891400637,-0.0138809879
92551.745434,0.0114718825,0.364617338,-0.307623577,-0.0393379423,0.0275020715,-0.0200845536
92551.755459,0.110430411,0.399940033,-0.212506084,-0.0152152953,0.0299745504,-0.0215247918
92551.765485,-0.0321217509,0.244185316,0.148259658,0.00533125883,-0.0251880377,-0.0173590754
92551.775510,-0.0404020651,-0.0585253092,0.147225638,0.0183964615,-0.0328502185,-0.0141816579
92551.785536,-0.150189323,-0.0809751693,-0.238028063,0.0380223599,-0.0154070449,-0.0118308861
92551.795561,-0.0640758364,-0.212003185,-0.1162704,0.0488507693,-0.0391169019,-0.0114362047
92551.805585,0.0333160821,-0.288131261,0.0307684198,0.0473663267,-0.0327761821,-0.00908490015
92551.815612,0.11812692,-0.251780283,-0.0631069647,0.026961187,-0.00768813961,-0.0112724204
92551.825637,0.0256656541,-0.14886209,0.282689755,-0.03928628,0.0211871829,-0.0234662362
92551.835663,0.103944629,0.0310264948,0.391631776,-0.074556915,0.0193298948,-0.0158964668
92551.845688,-0.00206815147,0.140331759,-0.129564181,-0.0480323638,0.0207275212,-0.0207479477
92551.855714,-0.0252192963,0.0801040852,-0.298417942,-0.00168137687,-0.00779546475,-0.0154895366
92551.865739,0.0388114463,-0.0523436797,-0.140820319,0.0196718481,-0.00336529691,-0.0043391476
92551.875764,0.125412091,-0.15197845,0.256794851,0.00648334257,-0.0215978302,-0.00954163192
92551.885790,0.0965913438,-0.16884766,0.118216402,-0.00369978642,-0.0146831987,-0.0106519044
92551.895815,0.238019484,0.110526824,-0.10328583,-0.0314837489,0.0286104795,-0.0169055399
92551.905841,0.379532306,0.150240721,0.111547591,-0.015016091,0.0134392497,-0.00130074681
92551.915866,-0.109591684,0.154527221,-0.157656303,-0.00201107624,0.0146467271,-0.00989077357
92551.925892,0.0335373647,0.0677550739,0.166573898,-0.0189122948,-0.0340795308,-0.0145861928
92551.935917,0.409684722,-0.105404001,-0.0932349765,0.0114615896,-0.0192361395,-0.00256867731
92551.945943,0.348768189,-0.0597019335,-0.639954082,0.0124629383,0.0505541288,-0.00926226681
92551.955968,0.0685597837,-0.101911757,0.253247972,-0.0241153128,0.0226561841,-0.0153124363
92551.965993,0.243176392,-0.108087377,0.595095663,-0.009730515,-0.0567664667,-0.0118125093
92551.976019,0.446910035,-0.0535644354,-0.444578809,0.0286195372,-0.0102056251,0.00845441198
92551.986044,0.154066276,-0.0532392037,-0.477266443,0.0202305802,0.0378662967,-0.00969796
92551.996070,0.215141662,-0.179461628,0.563923695,-0.0180225334,0.000944230548,-0.00631254935
92552.006095,0.382773334,0.0151982813,0.592743547,-0.0161178409,-0.0275713015,-0.000154788846
92552.016121,0.27311858,0.177604802,-0.281475575,0.00239885233,-0.0108716819,-0.00297507575
92552.026145,0.216363678,0.246678649,-0.644921349,0.00777044807,0.0309386146,-0.0061469006
92552.036171,0.305777225,0.0752897071,0.0132076287,-0.00679544492,0.0134184775,-0.00846544957
92552.046196,0.226683558,-0.0166744004,0.227612596,-0.00899787892,-0.0181793976,-0.00631281571
92552.056222,0.262154977,-0.0144041539,-0.0884652779,-0.00872943264,-0.0221922487,-0.00641960861
92552.066247,0.436379325,-0.0663568065,-0.179767597,-0.00103742447,0.0184491877,-0.0036467251
92552.076273,0.494347018,-0.09095694,0.103938285,-0.0139577397,0.0302576054,-0.00601265138
92552.086298,0.376399269,-0.0999247113,0.424124764,-0.0142309805,-0.0182795688,-0.00389357401
92552.096324,0.285603584,-0.129065922,-0.0346875105,0.00652516408,-0.0211376748,0.00427007977
92552.106349,0.290906513,-0.123945821,-0.27231787,-0.0111968405,0.0131329479,-0.0056533909
92552.116375,0.297501345,-0.004493841,-0.00449227869,-0.015607302,0.0321444557,-0.0122710795
92552.126400,0.368766619,0.158313936,0.161138428,-0.0102988229,0.0123153575,-0.00600839058
92552.136426,0.209847465,0.140607635,0.174436886,-0.000870700502,-0.0119202068,-0.00504805451
92552.146451,0.145129731,0.0988502136,-0.188882631,0.00161402878,0.00514133457,0.00246978294
92552.156477,0.120741487,0.00203073846,-0.0940030383,-0.0104463621,0.018080302,-0.00716074114
92552.166502,0.115597292,-0.0153199901,0.158105929,-0.00850864586,-0.00269874562,-0.00755968248
92552.176526,0.245460447,0.0423303444,-0.0416550114,0.00921522368,-0.0101691788,-0.00248236513
92552.186552,0.277799304,0.0666062874,-0.0634898266,0.00231151057,0.0046441224,-0.00490371162
92552.196577,0.258184612,0.0579676932,-0.0473219511,0.00527560905,0.000402505585,-0.00389437308
92552.206603,0.278455904,-0.0208610019,-0.00705190004,0.00692810032,-0.00409450852,0.00413106265
92552.216628,0.242086404,-0.112273887,0.0623834552,-0.00286008177,-0.00545032373,0.00199227803
92552.226654,0.264355556,-0.0959364272,-0.0419215534,0.000450227425,0.0051487912,0.00460510537
92552.236679,0.23349459,-0.0644221121,-0.0296436711,0.00380367979,0.011049557,0.00647304649
92552.246704,0.112396158,0.00359438931,0.114453834,-0.00931398563,-0.00651239189,-0.000382462756
92552.256730,0.0357664161,0.0961775238,-0.0465743476,6.08732965e-05,-0.00310807353,0.000520082882
92552.266755,0.0117654724,0.0958424101,-0.204728435,0.00671078645,0.00670753927,0.0012452614
92552.276781,-0.116403227,-0.0692873436,0.00776631438,-0.000182273345,0.00319456352,-0.00114599081
92552.286806,-0.0730556316,-0.155650453,0.215902869,-0.00701408034,-0.0060894825,-0.000371810289
92552.296832,-0.017067143,-0.0933507398,0.0925827787,-0.00760530207,-0.00294269113,0.00153181724
92552.306857,-0.0846420062,0.0520927733,-0.158376434,-0.00428247631,0.0069445604,0.00274595268
92552.316882,-0.0470980784,0.101327016,-0.0422710975,-0.00815364711,0.003690178,0.00288124126
92552.326908,-0.00576952674,0.129178223,0.0835519155,-0.00442016164,-0.00880803684,0.00349270296
92552.336933,-0.0111660246,0.0518075266,-0.0614504297,0.000805226811,-0.00462154769,0.00678623444
92552.346959,-0.135069029,-0.145797734,-0.135072131,-0.00262092978,0.00209547715,0.00655187596
92552.356984,-0.284045511,-0.182277233,0.00795862209,-0.0122541161,0.00500178473,0.00236192461
92552.367009,-0.215788223,-0.134097012,0.140196178,-0.0107289235,-0.0146254464,0.00317791732
92552.377035,-0.046852666,-0.133788037,0.052631292,-0.00419192847,-0.011235775,0.0124015089
92552.387060,-0.180958245,-0.0449361434,-0.117223755,-0.00706388189,0.0178089258,0.00571431196
92552.397086,-0.358173591,0.0474555785,-0.0927018925,-0.014615274,0.0209226948,0.00524399778
92552.407111,-0.387600651,0.0357683556,0.219540933,-0.0196310728,-0.0102251047,0.00064738164
92552.417137,-0.378830704,0.109111294,-0.0609161767,-0.000776158223,-0.00531556787,0.0109218571
92552.427162,-0.373231533,-0.068418196,-0.216391401,-0.00514294339,-0.00425083567,0.0112094784
92552.437187,-0.454618424,-0.237514972,-0.145482466,-0.008681219,0.00385183185,0.00499951955
92552.447213,-0.275401017,-0.166679394,-0.0790749337,-0.0165282226,-0.00161910003,0.00211132108
92552.457238,-0.169759846,-0.00669562536,0.0558438243,-0.0127928731,-0.0120799966,-0.00271059783
92552.467264,0.00121833199,0.209685391,-0.119107084,-0.00794645298,0.00716400515,-0.00408745209
92552.477289,0.188170434,0.212313749,0.0881293064,0.00205744531,-0.0115119447,-0.00686220011
92552.487315,0.328047911,-0.0497689156,0.111778478,0.0128525692,-0.0263825036,-0.00257744012
92552.497340,0.41084719,-0.150533457,-0.0792725021,0.0141079827,0.00496476698,-0.00494499063
92552.507365,0.484290977,-0.17131036,0.146085236,-0.0120732867,0.00072208491,-0.00629468007
92552.517391,0.488495516,-0.106779856,0.0981591175,-0.0110508994,-0.00722851655,0.000782936572
92552.527416,0.55195092,0.0244522492,0.027649411,-0.00955553439,0.000367085524,0.00158055336
92552.537442,0.446722988,0.137444605,0.115597744,-0.0146155403,0.00131197502,-0.00829498028
92552.547467,0.295285239,0.203836994,-0.0372173212,-0.00387447972,-0.00571850412,-0.00900524599
92552.557492,0.288386347,0.192501708,-0.130444471,0.000646768677,-0.00191684165,-0.00929819351
92552.567518,0.397976383,0.0413943422,0.132929987,0.00712996775,-0.00404577241,-0.00861855527
92552.577543,0.491976782,-0.192786517,0.308639605,0.0194103365,-0.00106249928,-0.0039609524
92552.587569,0.420900784,-0.264787083,0.210522345,0.0084375805,0.00219268255,-0.00365708513
92552.597594,0.249487347,-0.130941343,-0.0648038318,-0.00302120291,0.00242544264,-0.00547256252
92552.607620,0.265956159,0.108201943,-0.307053084,0.0105561252,0.00832620864,0.0016623123
92552.617645,0.352158635,0.165133334,-0.124900281,0.013794263,0.00793818613,0.00543601135
92552.627670,0.330856246,0.0452941627,0.178902633,0.00818537928,-0.0033075442,0.0062570644
92552.637696,0.177447252,-0.0611054619,0.0318193901,0.00380581019,-0.0133580477,0.0114382438
92552.647721,0.00506093323,-0.0802972517,-0.258473469,0.000928797484,-0.000223337248,0.0234991691
92552.657747,-0.122918253,-0.108052506,-0.230045832,-0.00477036733,0.00565399272,0.0308931682
92552.667772,-0.236832089,-0.172813806,-0.102863221,-0.00326301802,0.000753243878,0.0418177217
92552.677798,-0.295646444,-0.266159211,-0.0301340849,0.00712810371,-0.00183668027,0.0492636531
92552.687823,-0.281686838,-0.347689256,0.124599965,0.00059217385,-0.00726153939,0.0426803201
92552.697848,-0.253767935,-0.275170457,0.21631671,-0.00260175524,-0.00881043407,0.0337067961
92552.707874,-0.18671889,0.0298415411,0.0988330712,-0.00902316898,0.0041618235,0.0275703415
92552.717899,-0.0761020774,0.331642851,0.12210055,-0.0542441773,0.0260767103,0.0296673148
92552.727925,-0.133054685,0.507296465,0.221120311,-0.0836132522,0.0473910519,0.013632423
92552.737950,-0.0705004306,0.49769456,-0.039429152,-0.0410199854,0.0145249827,0.0147845063
92552.747975,-0.118080567,0.327730354,-0.48742894,0.0495232326,-0.0265867669,0.0351243995
92552.758001,-0.200887244,-0.0238252768,-0.385890474,0.11517095,-0.0387840472,0.00148760876
92552.768026,-0.204535264,-0.212070058,-0.100023614,0.135607781,-0.0458542048,0.0251479305
92552.778052,-0.358998571,-0.271387212,0.439232901,0.0650135075,-0.048920834,0.00919506302
92552.788077,-0.234596147,-0.293107899,0.498958178,-0.0275968536,-0.0143916212,0.00220533064
92552.798103,-0.245543749,-0.0417492204,-0.294523273,-0.0438839476,0.0349439703,0.0101687151
92552.808128,-0.286102517,-0.0681480191,-0.350123579,-0.037499817,0.0349471666,0.010584967
92552.818153,-0.422396472,-0.0969189719,0.118620891,-0.0178779139,-0.00797153781,0.0141187149
92552.828179,-0.203058177,-0.0443571196,0.198043387,0.00666604524,-0.0302083991,0.0141581304
92552.838204,-0.0477017982,0.0597180805,-0.0901381795,0.013870163,0.00418605838,0.0116249311
92552.848230,-0.0863467095,0.185018531,-0.0030134383,0.00445908362,0.019461418,0.00471056648
92552.858255,-0.164805256,0.0954844452,0.217868616,0.00320739819,-0.0028670575,0.0107468876
92552.868280,-0.248413221,0.0798225465,0.0679416739,0.0102208332,-0.0244144272,0.0087923936
92552.878306,-0.231964319,0.0315033551,-0.242681442,0.0139295515,-0.00999127938,0.0113407725
92552.888331,-0.207819528,0.0445642409,-0.250887544,0.00245638665,0.00971984068,0.00795083469
92552.898357,-0.148496164,-0.0529978693,0.0382356869,0.010123361,0.00365662198,0.0131304159
92552.908382,-0.19663872,-0.187152785,0.224700508,0.00431500662,-0.0184295061,0.0117024293
92552.918408,-0.250418077,-0.181547585,0.0864084739,-0.00763353186,-0.0212298199,0.00624268292
92552.928433,-0.197046753,-0.072249664,-0.155724458,0.00319061994,0.00860584104,0.00708823674
92552.938458,-0.169387415,-0.0728356289,-0.0807314688,0.00482713252,0.00565239504,0.00700860819
92552.948484,-0.249549916,-0.0601089434,0.227658189,-0.012576891,-0.0174475979,0.00173634826
92552.958509,-0.198834495,0.04171245,0.0248670868,0.000702428822,-0.00971244699,0.00467860861
92552.968535,-0.270407794,0.101135585,-0.311196759,0.012768413,0.00814271668,0.0122853953
92552.978560,-0.330462979,-0.0196368304,-0.0946495195,-0.00245501513,0.00357060177,0.00898893433
92552.988585,-0.299363784,-0.112552156,0.177076587,-0.00428141087,-0.0136318212,0.00989547441
92552.998611,-0.245235998,-0.0582027262,0.0223372761,-0.00360576708,0.00248509734,0.00757745955
92553.008636,-0.280351242,0.0532071095,0.168073781,-0.00710489454,-0.000234522549,-6.58130809e-05
92553.018662,-0.252262883,0.0775562638,0.164588861,-0.0145854474,-0.0151831112,0.00177709455
92553.028687,-0.216200275,0.129230008,-0.205642628,0.00372564893,-0.0110195256,0.00407726666
92553.038713,-0.400641152,0.106739177,-0.244819623,0.0121569513,0.0186630026,0.00491749425
92553.048738,-0.419174734,-0.0102535918,0.219670697,-0.0130682438,0.000253102235,-0.00179633522
92553.058763,-0.344160154,-0.0276487989,0.25685798,-0.0149385826,-0.03934464,-0.00486030174
92553.068789,-0.198655522,0.122759369,-0.576019662,0.0253020488,0.0090990583,0.0135242983
92553.078814,-0.257937969,-0.030248186,-0.244330378,0.0191202965,0.0248665032,0.0100723009
92553.088840,-0.332035964,-0.125488904,0.639127112,-0.0253251995,-0.00865790112,-0.00162776397
92553.098865,-0.198987165,0.102276955,0.387496868,-0.0167460925,-0.0241311337,0.00167695223
92553.108891,-0.212163676,0.299364986,-0.330144036,0.0318568666,0.0120359254,0.00549379479
92553.118916,-0.336861594,0.0995381959,-0.135100188,0.000461125238,0.00307705156,-0.00497376011
92553.128941,-0.367289904,0.0937492372,0.34712628,-0.0279630608,-0.0181099936,-0.0173840907
92553.138967,-0.154622172,0.267106484,-0.269140994,-0.000419315808,-0.000736328698,-0.00717619365
92553.148992,-0.128566954,0.0924568593,-0.520636798,0.0149087739,0.0267948978,0.00309295509
92553.159018,-0.243796065,-0.212357515,0.292700862,0.0235874821,-0.0222016736,-0.00714050723
92553.169043,-0.227739943,-0.427290981,0.0548425383,0.0541342069,-0.0556363292,-0.0026629346
92553.179069,-0.269521823,-0.384540219,-0.395546775,0.093926089,-0.0269556824,0.00488952337
92553.189095,-0.0884968276,-0.49773186,0.0585261953,0.0662856792,-0.00779929808,0.0117974968
92553.199120,-0.381729567,-0.419480235,0.558790424,-0.0442453603,0.00498946752,0.00586450681
92553.209146,-0.409219705,-0.177489396,0.4390441,-0.110671526,0.0409919419,0.020566222
92553.219171,-0.342909898,0.0338194134,0.127022808,-0.149033813,0.0657138065,0.020806438
92553.229197,-0.409070287,0.228431319,0.0415166083,-0.127144499,0.0466812537,0.0223191127
92553.239222,-0.137914765,0.438710676,-0.108059036,-0.0404447596,0.0194605519,0.0176921382
92553.249247,0.256898646,0.384602178,-0.200213588,0.0381368642,-0.00619900464,0.0254675026
92553.259273,0.031206812,0.247028376,0.000216629658,-0.00744553369,0.039931471,-0.00136863837
92553.269298,-0.575731762,0.26995263,0.0972729823,-0.0312880165,0.0194650781,-0.0136564646
92553.279324,-0.389257077,0.145633501,-0.0240866215,0.0295694751,-0.0403287462,0.00992289813
92553.289349,-0.326475298,-0.114615993,-0.415240487,0.100934731,-0.048197323,-0.0133914792
92553.299374,-0.195159131,-0.160437523,-0.533367684,0.164217578,-0.00517102475,0.00702564487
92553.309400,-0.325602643,-0.241881369,0.723050427,0.083944561,-0.0098643131,-0.00610080944
92553.319425,-0.378081786,-0.271701465,1.02939134,-0.0360934231,-0.0389167383,-0.0154501025
92553.329451,-0.358144475,0.0461426692,-0.453076004,-0.0701917391,0.0454306327,0.00119891506
92553.339476,-0.583348922,0.277127216,-1.02168195,-0.0622563156,0.095194994,-0.000723621116
92553.349502,-0.512375945,0.147183306,0.193405206,-0.0548314247,0.0245850053,0.00148706906
92553.359527,-0.141855538,0.168522446,0.522161944,-0.033478463,-0.0293474677,-0.0200693563
92553.369552,-0.169512539,0.367707596,-0.538036845,0.0192305502,-0.0054498576,-0.00652638288
92553.379578,-0.283885626,0.235002642,-0.377154794,-0.0128703927,0.0302831051,-0.0181340363
92553.389603,-0.0683893065,0.171808647,0.57221923,-0.0387485939,0.00101043862,-0.0263978255
92553.399629,0.0830236135,0.115412386,0.0081725571,0.010948387,-0.025685621,0.00626584491
92553.409654,0.0209051206,-0.0994681084,-0.483547715,0.0955863093,-0.000897183706,-0.00568003045
92553.419680,0.0232412034,-0.373805767,-0.0660278206,0.134303885,-0.0401923932,0.0214586451
92553.429705,-0.192564803,-0.39926944,0.15812288,0.0815298726,-0.0154731968,0.00114618404
92553.439730,-0.406077461,-0.218965261,0.591221452,-0.0564293209,0.0394473099,-0.00900791703
92553.449756,-0.182021106,0.0544916329,0.51179311,-0.16486658,0.0864214808,0.00170385022
92553.459781,-0.0858907093,0.237274642,0.154939574,-0.152935876,0.0670975805,-0.0084827405
92553.469807,0.236303163,0.469049882,-0.620003765,-0.0262301414,0.0568193742,-0.000538530999
92553.479832,-0.00123560963,0.45639228,-0.702068301,0.0441545454,0.0011981915,0.0179406113
92553.489857,-0.22243137,0.190395566,0.0845473562,0.0348356125,0.00206664829,-0.00129114115
92553.499883,-0.202027957,0.0567941011,0.280947296,0.0217661467,-0.0358157545,0.00246125343
92553.509908,-0.0862052734,0.00512959952,0.122941092,-0.00841971759,-0.00900863907,-0.0130263597
92553.519934,0.390222992,0.194304812,0.110322433,-0.0266599748,0.020576416,-0.0190613486
92553.529959,0.160823103,0.151249587,-0.313746444,0.0222891924,0.0255908821,-0.00242271764
92553.539985,-0.280913278,-0.077662154,-0.0386289416,0.0314398129,-0.00858040298,-0.0231493015
92553.550010,-0.376079031,-0.339918257,0.173387669,0.0770813321,-0.093854548,-0.00114733005
92553.560035,0.0230151533,-0.403585915,-0.375236393,0.125257121,-0.0522517167,-0.00441529533
92553.570061,0.305828462,-0.309341478,-0.220961193,0.0876950939,0.0252907429,-0.000300178544
92553.580086,-0.177048871,-0.407179593,0.600614134,-0.0528098176,0.000601377122,-0.0175476086
92553.590112,-0.154866612,-0.179588871,0.382762241,-0.130446551,0.0163566381,-0.0222201247
92553.600137,0.244980646,0.180738643,-0.41091444,-0.0992132704,0.0834118411,-0.00741481339
92553.610163,0.251646698,0.216433916,-0.242742232,-0.0507999304,0.0718191028,0.00658728857
92553.620188,-0.0150354408,0.0861570833,0.675176915,-0.0316880214,-0.0144649228,-0.00358358981
92553.630213,-0.160664795,0.14818408,0.0596601678,0.00747935388,-0.0478071697,0.00766080873
92553.640239,0.0471418377,0.0336659399,-0.624162054,0.0213368443,-0.0134638413,-0.00306640403
92553.650264,0.157837219,-0.0208303145,-0.460665436,0.0265406613,0.0441089072,0.00453399144
92553.660290,-0.0733284708,0.0167646173,0.265100323,-0.0331378448,0.0254318905,-0.0244270873
92553.670315,-0.0337113718,0.00137799191,0.656873197,-0.0277827642,-0.0604518555,-0.0114473712
92553.680340,0.267029981,0.106353027,-0.447281639,0.0405462292,0.0095868832,0.0157855812
92553.690366,-0.0426183392,0.028056466,-0.357347101,0.0418889952,0.0342211225,-0.0178368271
92553.700391,-0.249173593,-0.336901137,0.679272076,0.012211525,-0.0460801102,0.00271451961
92553.710417,-0.165113792,-0.217960888,0.197076588,-0.0242170579,-0.0447069831,-0.00320888335
92553.720442,0.0762653577,-0.211205075,-0.884674693,0.0205293746,0.00701107313,0.0194418344
92553.730468,-0.099429314,-0.244570297,-0.569140424,0.0156174396,0.0782905803,0.0129983162
92553.740493,-0.318956848,-0.122855615,0.914533368,-0.0254644825,0.0115767973,0.00190278817
92553.750518,-0.319991744,-0.197641245,1.02616361,-0.0350310858,-0.0909549012,-0.000106566825
92553.760544,-0.0645009939,0.151065408,-0.989798032,0.0348388088,-0.0127245482,0.0344942852
92553.770569,0.0834908017,0.128962224,-0.685156913,0.00786018565,0.0847269133,0.010431295
92553.780595,0.0980686681,0.116446953,1.02526929,-0.0801021661,0.0250124433,0.016338187
92553.790620,-0.110056443,0.252026586,0.543445555,-0.0929740201,-0.031641779,-0.00713331742
92553.800646,-0.129340998,0.475284393,-1.00149431,0.0357434843,0.0156429116,0.0208871316
92553.810671,0.0414050887,0.135899695,-0.461287368,0.0516215172,0.0209564496,-0.0128005233
92553.820696,-0.214294003,-0.0414536167,0.707179489,0.0102477093,-0.0323879994,-0.00642385078
92553.830722,0.0658337974,-0.151383297,0.15860628,0.0199956764,-0.0623016856,-0.00610347302
92553.840747,0.0313324614,-0.0912973692,-0.795708707,0.0314757657,0.0153369144,0.0055545147
92553.850773,-0.00109848445,-0.0156484184,-0.178518474,0.0127417604,0.0468530268,0.00378324626
92553.860798,-0.0405059182,-0.0879726087,0.731728239,-0.0224857367,-0.0165989153,0.00143646891
92553.870824,0.35671038,0.107264004,0.852794413,-0.0344851407,-0.0624460294,-0.00292312564
92553.880849,0.666422299,0.537216679,-0.690111905,0.0397406203,0.0324133695,0.0119309209
92553.890874,0.415343697,0.399618692,-0.680418194,0.0190976598,0.0378989488,9.55674262e-05
92553.900900,0.126851147,0.0573535616,0.412555322,-0.00100387969,-0.0118848528,-0.00138807973
92553.910925,0.279848089,0.0337460925,0.0429703142,0.0206079372,-0.028831081,0.00732312002
92553.920951,0.206010773,-0.0722701953,-0.249660048,0.0286565424,-0.0053912681,-0.00555459527
92553.930976,0.455981559,-0.111282739,-0.00432393638,0.0214180724,0.0128633701,-0.00216465747
92553.941001,0.34715078,-0.147985398,0.158681098,0.00806578163,-0.0134057845,-0.00134893158
92553.951027,0.400041061,0.0333052899,0.177998378,0.000280030262,0.00449278807,-0.00146744238
92553.961052,0.412268857,0.183728692,0.118577052,-0.00781171808,-0.00588475172,-0.00963775372
92553.971078,0.431232135,0.335556152,-0.10513818,3.10247281e-05,0.00571704326,-0.00258756732
92553.981103,0.380882625,0.135223385,-0.0772781134,0.0142608267,-0.0118502318,0.00118133821
92553.991129,0.319227,-0.0999768799,-0.13198644,0.0356766377,-0.0208913978,-0.0122604345
92554.001154,0.10998401,-0.301315427,-0.446050636,0.107866945,-0.0300976797,-0.00180885965
92554.011180,0.27661309,-0.377994816,-0.109493453,0.123989986,-0.0299360245,-0.00374444505
92554.021205,0.35256042,-0.422434664,0.696953863,0.0455676188,-0.0396869234,0.00618674955
92554.031230,0.0569649472,-0.287472578,0.335714074,-0.0323380995,0.00638762718,-0.00883614203
92554.041256,-0.0387574123,-0.0740175139,-0.446868966,-0.0800957735,0.0510064945,0.0141791615
92554.051281,-0.00716690851,-0.0194628255,0.0411974593,-0.086133955,0.0426902421,0.0121849866
92554.061307,0.299145568,0.0708691142,0.213222836,-0.0801466386,0.0208856095,0.0112185262
92554.071332,0.413240259,0.335398441,-0.00437186718,-0.0393054615,0.00932882303,0.00817000563
92554.081358,0.367114066,0.298720752,-0.288665194,0.0464039129,0.00748957689,0.0256898988
92554.091383,0.17046269,-0.0310659869,-0.00212438051,0.0450297204,-0.00843719164,0.00123808556
92554.101408,0.251860231,-0.196394113,0.3915289,0.0440741797,-0.0521388664,0.0161238245
92554.111434,0.323394532,-0.177274657,-0.166540451,0.0215204005,0.0134582542,0.00210387934
92554.121459,0.183627183,-0.0211793289,-0.143171851,-0.0134527636,0.034139032,-0.00883425517
92554.131485,0.104690881,0.00774401981,0.0532812804,-0.00193725519,0.0134750311,0.00215447949
92554.141510,-0.0129260337,0.0819301315,-0.0687943627,0.0130414274,-0.0114026214,-0.00121548423
92554.151536,0.112296881,0.0721711367,0.0681199531,-0.0100774736,-0.010140549,-0.0125464362
92554.161561,0.367683975,0.146094835,-0.26276386,-0.006782344,0.00143647818,-0.0066264954
92554.171586,0.282569221,0.0648954101,-0.429884514,0.0159695727,0.0180745781,0.00716734747
92554.181611,0.116401814,-0.137214742,0.166914674,0.00836145513,0.00415663091,0.0005131734
92554.191636,0.262455823,-0.279853408,0.510053573,0.014320544,-0.0339092627,-0.00182508236
92554.201662,0.357908138,-0.308519367,0.0358975994,0.028533036,-0.0104500088,0.000389602727
92554.211687,0.120000971,-0.204792541,-0.115040566,-0.00174524127,0.0198868592,-0.00293162582
92554.221713,-0.0828344179,-0.0939774386,0.198873993,-0.0229123122,0.0181400911,-0.00744941203
92554.231738,-0.0226399884,-0.0380726508,0.215423561,-0.0267778895,-0.00935837957,-0.00295932242
92554.241763,-0.0643454289,0.0981678574,-0.206010876,-0.00741191527,-0.00142641998,0.00262026604
92554.251789,-0.0497592696,0.0609971788,-0.470684142,0.0230599736,0.0206684959,0.0126063216
92554.261814,-0.00430371023,-0.143757277,0.163839504,0.00609936573,0.018630112,0.0041060436
92554.271840,-0.0118823516,-0.129836578,0.522210459,-0.0111206331,-0.0154777891,-0.00416200632
92554.281865,0.0429836905,0.174052827,-0.130677111,0.00530308073,0.00387114003,0.00638863886
92554.291891,-0.0755145325,0.311579466,-0.289596338,-0.0170304551,0.0260976166,0.000812778941
92554.301916,-0.0774879788,0.317870091,0.100157598,-0.0338198188,0.0359742143,0.00784325762
92554.311941,-0.116959838,0.214575246,0.187331439,-0.0141917913,0.00254595113,-0.00273082336
92554.321967,0.00698935314,0.00106598508,-0.0831963976,0.0291681998,-0.0174820847,9.42579866e-05
92554.331992,-0.0171041505,-0.118153848,-0.30439877,0.0509864148,0.00399044967,-0.0246425134
92554.342018,-0.126526963,-0.165772838,-0.114699789,0.0147120292,0.0220767767,-0.0189481427
92554.352043,-0.457828509,-0.177742037,0.392853427,-0.0295233428,0.00343704476,-0.0262041923
92554.362069,-0.340300446,-0.119297082,0.17610745,-0.0107912001,-0.0161742061,-0.00647629263
92554.372094,-0.37978658,-0.157455018,-0.379937703,0.0169405621,-0.00869551817,0.00232518813
92554.382120,-0.299535762,-0.190339763,-0.137191607,0.00572465926,0.0243615009,-0.00709015248
92554.392145,-0.0619709046,-0.234282858,0.341198059,-0.0121667235,0.0118827284,-0.0100513205
92554.402170,-0.262577045,-0.0563749445,0.135381471,-0.0373381245,-0.00450370232,-0.0110689134
92554.412196,-0.20464077,0.281687236,-0.182555182,-0.0422609764,0.0427421056,-0.0104475983
92554.422221,-0.0915222855,0.228234718,-0.00652933747,-0.0408247317,0.0292273634,-0.0100233567
92554.432247,-0.32789923,0.261302894,-0.0909857363,-0.0084950234,0.021866119,-0.00443125168
92554.442272,-0.317618695,-0.00223948621,-0.0061295245,0.0181368534,-0.0428295187,0.000181875883
92554.452298,-0.289393631,-0.123124458,-0.100206569,0.0262999759,-0.0183745097,-0.00437399396
92554.462323,-0.181862226,-0.0847557107,-0.236618196,0.0151660974,0.0201047048,0.00298938038
92554.472348,-0.194504448,-0.207632733,0.235220733,-0.00219345132,0.0088208918,0.00233131344
92554.482374,-0.100670053,0.0119161544,0.403515691,-0.0273126531,-0.0155901756,-0.00442459365
92554.492399,0.00710775535,0.334374724,-0.210036479,-0.00185123509,0.0206099064,0.0015374252
92554.502425,-0.246909411,0.358352323,-0.287677352,0.000248401063,0.0380312413,-0.00424855878
92554.512450,-0.3564715,0.221053483,0.475422989,-0.0436034742,-0.0203433852,-0.0147904151
92554.522476,-0.170822745,0.170238146,0.162268894,-0.00223126814,-0.0460825689,-0.0128883862
92554.532501,0.335924343,-0.104554819,-0.884802118,0.0750219767,-0.0124098282,0.00467223184
92554.542527,-0.0265495128,-0.22196373,-0.51505286,0.13012703,0.00673909807,0.00370071059
92554.552552,-0.278367758,-0.44958377,0.58672414,0.0827541967,-0.0516304686,-0.00127833547
92554.562577,-0.15489856,-0.39773887,1.00062935,-0.0465744975,-0.0811753138,-0.0125011627
92554.572603,0.342443296,0.136273789,-0.452378085,-0.0747067983,0.0657891021,0.00304424133
92554.582628,0.264400053,0.154033519,-0.761790071,-0.0571832004,0.121672867,0.00974688562
92554.592654,-0.0907120103,-0.0279954569,0.879278515,-0.0879192705,0.0475171529,0.00325090274
92554.602679,-0.0265241089,-0.0311564234,1.13699831,-0.0806653555,-0.0610740385,-0.0155323718
92554.612705,0.109393579,0.233835826,-0.997796629,0.0456070957,-0.0054102424,0.013611132
92554.622730,0.00739462774,0.171333485,-1.16345598,0.0283799042,0.04946073,-0.00816340489
92554.632756,-0.0813650212,0.0183795417,0.448755347,-0.0265515222,0.0172450025,-0.0102089804
92554.642781,0.181621341,0.0909450482,0.515128392,-0.00969744001,-0.0517356634,-0.0064259593
92554.652807,0.274697593,0.105971097,-0.421001534,0.0213462301,-0.0117498967,0.00569009198
92554.662832,0.1104358,0.0731718382,-0.264131641,0.00175974502,0.0430065603,-0.00989952056
92554.672857,-0.00309353073,0.00999543373,0.3330545,-0.0213514324,0.0207880721,-0.0102683671
92554.682883,0.227250727,0.0787966558,0.676408503,-0.00972913198,-0.0561186946,-0.00538652787
92554.692908,0.479702992,0.193464854,-0.327196293,0.0237193723,0.00436036285,0.0110539652
92554.702934,0.148179173,0.0788202376,-0.450147549,-0.00821139656,0.0470702746,-0.00157314749
92554.712959,-0.134365996,0.00459394001,0.341217932,-0.0352075937,0.0107759186,-0.00720200432
92554.722985,0.246023068,0.157945596,0.472261895,0.00950048871,-0.0274806577,0.00778599991
92554.733010,0.308667722,-0.0115681268,-0.0116105863,0.0255084839,0.0074275252,0.0182016238
92554.743036,-0.169664277,-0.133617594,-0.0737727357,0.0246354994,0.00164234052,0.00570367439
92554.753061,-0.198203796,-0.292212137,0.15624598,-0.00708887393,-0.0144964154,0.0122358759
92554.763087,-0.298528082,0.032071419,0.104552033,-0.0307928714,0.00109719155,-0.0111299001
92554.773112,0.104844793,0.112975587,-0.446000367,0.00941473532,0.00550072822,0.00329724163
92554.783137,-0.0956795148,0.168723924,-0.427362302,0.0261998401,0.0368045889,0.00543602625
92554.793163,-0.356726424,0.0105349657,0.327003529,-0.00386991112,0.0125011135,-0.00652289787
92554.803188,-0.221499094,-0.0894736244,0.66350752,0.00100740192,-0.0665673404,-0.00411566743
92554.813214,0.0526748214,0.00923378344,-0.706856119,0.0196668395,-0.0150474231,0.0109993701
92554.823239,-0.297052621,0.168732582,-1.10814384,-0.00876506783,0.0633608312,-0.0016285407
92554.833265,-0.437750182,0.165491189,0.27715258,-0.035264587,0.0316143543,0.0026162716
92554.843290,-0.011254187,0.0630395348,1.11469529,-0.0382143016,-0.0437930501,-0.00947581162
92554.853316,0.170544323,0.0234207325,0.0853037276,0.0243574661,-0.0418601274,0.00850318907
92554.863341,0.0359808078,-0.081076456,-0.721425328,0.0603916329,0.000617822474,-0.0166495678
92554.873367,-0.234790537,-0.293192582,-0.377068285,0.0763551538,-0.0118625495,0.0167619183
92554.883392,-0.411914534,-0.391103816,0.424255112,0.0472044592,-0.0474823281,0.0112542349
92554.893418,-0.137954056,-0.223497644,0.576599637,-0.0212390478,-0.00214547342,0.004984088
92554.903443,-0.224312123,-0.00297781042,0.0484309177,-0.0557874385,0.0185960237,0.00928669119
92554.913468,-0.116846596,0.0929827464,-0.130374913,-0.0558979604,0.0387878441,0.0094371594
92554.923494,0.00763128604,0.165865045,0.175928001,-0.0490317959,0.00976178651,0.0146518953
92554.933519,-0.371613978,0.233180468,-0.253445997,0.00563517686,-0.00195372574,0.00623417575
92554.943545,-0.412228239,0.154552465,-0.433384046,0.037157951,-0.0152929663,0.0217241857
92554.953570,-0.120700559,-0.0693691218,0.24079298,0.0147711514,-0.0524283513,0.0132265713
92554.963596,0.149245569,0.126827112,-0.174743631,0.00495553816,0.0245066438,0.0101314455
92554.973621,0.0783628095,0.30057091,-0.230244569,-0.00646782473,0.0281668924,0.00910666095
92554.983647,0.147470924,0.141037661,0.320875401,0.0164995418,-0.020474413,0.0118896651
92554.993672,0.170924189,0.120951918,0.172035086,0.0208439567,0.00496543288,0.00490339402
92555.003698,0.0673099755,0.0590908155,0.0194222654,-0.00892911844,-0.000914826798,-0.0102172357
92555.013723,-0.141376121,-0.0124397402,-0.149069676,0.0096288529,-0.0102337595,-0.000810417586
92555.023749,-0.177099889,-0.0135615839,-0.351344645,0.0101186084,0.00508500864,0.00307300383
92555.033774,-0.158792188,-0.0175669471,0.381686721,-0.0394196491,-0.00686459527,-0.0187063285
92555.043800,0.0257060409,0.25447924,0.120322434,-0.0163809098,-0.0132508553,-0.0139011864
92555.053825,0.468360783,0.196286359,-0.257172908,0.0357233044,0.00841609058,0.000852459802
92555.063851,0.248825156,-0.244908534,0.120920984,0.053001361,-0.0478596962,-0.00857912494
92555.073876,0.102398094,-0.308388562,-0.49945314,0.084241042,-0.00888779903,-0.00573193958
92555.083901,-0.0434561646,-0.341528797,-0.101066985,0.0644061734,-0.0236056685,0.0111357465
92555.093927,-0.0550398038,-0.384298227,0.592098819,-0.0222978275,-0.00441200151,-0.00402243366
92555.103952,0.048349469,0.0362303105,0.35134945,-0.0848365779,0.0340845235,0.00729173957
92555.113978,0.266838148,0.0928096183,0.253100673,-0.105333058,0.045019994,-0.0108995151
92555.124003,0.402078192,0.381638506,0.0497811633,-0.0902073736,0.0589973279,-0.00543470798
92555.134029,0.143155362,0.339503319,-0.244699796,-0.0175819024,0.0143675445,-0.0134899721
92555.144054,-0.0162698437,0.27916338,-0.437686712,0.0353209954,0.00410824963,0.0121831677
92555.154080,-0.230235869,0.0650790413,0.131023276,0.0241769963,-0.0265833489,-0.0156652418
92555.164105,-0.148082112,-0.0423450674,0.012268302,0.0189289712,-0.00651483382,-0.0049910259
92555.174131,0.014558117,0.0796167035,0.129135855,-0.0214474797,0.00452316967,-0.0240773682
92555.184157,0.229156616,0.23723663,0.11695968,-0.00732420424,-0.00586901749,-0.0166807056
92555.194183,0.463596381,0.271458212,-0.401343479,0.0291709565,0.0048275692,0.00331244407
92555.204208,0.0719249676,-0.00526391206,-0.159143327,0.0300290269,-0.00465355026,-0.028973059
92555.214234,0.0985571731,-0.0683787225,0.159337517,-0.000666301682,0.0123747014,-0.0212610748
92555.224259,0.0239735591,0.107207379,0.383290649,-0.0357017833,0.00320836711,-0.0435437441
92555.234285,0.154207009,0.232552691,-0.000743155285,-0.00575293919,-0.01220814,-0.0338455767
92555.244310,0.356820562,0.307464396,-0.255720371,-0.00359418096,0.021507746,-0.0343638316
92555.254336,0.247570535,0.257492085,0.1147648,-0.019526543,0.0243109897,-0.0478958816
92555.264361,0.272134099,0.282230494,0.000684831691,-0.0198884662,-0.00921101826,-0.0447485552
92555.274387,0.162745741,0.215905855,-0.497763287,0.0176557136,0.00103762462,-0.0321584672
92555.284412,0.0626057159,0.0328219999,-0.0610909487,0.00113532676,0.0249067382,-0.0472527251
92555.294438,0.178822066,-0.0857446304,0.461406739,-0.029435899,-0.00897879111,-0.0457027659
92555.304463,0.291234539,0.0305676451,0.38607005,-0.00335929023,-0.0306638438,-0.0480729819
92555.314489,0.409431551,0.149474321,-0.37465947,0.0181180388,0.0367676564,-0.0393079848
92555.324514,0.185003476,0.0958995471,0.0482199053,-0.0273325331,0.0177494944,-0.059518981
92555.334540,0.107426005,0.0739974936,0.215001536,-0.00642219132,-0.0170495003,-0.0441219166
92555.344565,0.140690945,0.143363711,-0.448036256,0.00456947328,-0.00118771269,-0.029745375
92555.354591,0.00283797821,-0.0648020514,-0.209498134,0.0108643864,-0.0100757466,-0.0473997325
92555.364616,0.274844856,-0.231751824,-0.0156741824,0.020417411,0.0118055832,-0.0351348103
92555.374642,0.309269085,-0.217527155,0.198247385,0.0386195873,-0.0316223181,-0.0453831882
92555.384667,0.213545443,-0.404776112,-0.0132501702,0.0315656719,-0.0461732983,-0.0316945419
92555.394693,0.304559812,-0.150374376,-0.124251462,-0.00756495392,0.0287901596,-0.0377340571
92555.404718,0.125811995,0.146522559,0.109283154,-0.046383189,0.0524294399,-0.0231524531
92555.414744,0.203873012,0.199984319,0.485607699,-0.0682453494,0.0213974923,-0.0356575952
92555.424769,0.24284305,0.0869123221,0.17786803,0.0237098784,-0.0311197783,-0.023502392
92555.434795,0.311209406,-0.0483386088,-0.6043,0.0640863274,-0.00419069319,-0.0216134109
92555.444820,0.242505287,-0.104451797,-0.153147886,0.0331241545,-0.0156971454,-0.0191611734
92555.454846,0.481756892,-0.228474135,0.154234056,-0.00608530168,0.00275270031,-0.0225066368
92555.464871,0.166844518,-0.0861706008,-0.276303725,-0.0170729718,0.0256721307,-0.0145336643
92555.474897,0.137346183,-0.177018783,0.0356626216,-0.0060355006,-0.0130281267,-0.00692847488
92555.484922,0.214349215,-0.23600022,0.216258258,-0.00297286564,-0.0203968264,-0.00698546624
92555.494948,0.237590171,-0.264246108,0.0283110898,0.00155823662,0.00538576763,-0.00771597145
92555.504973,0.180347522,-0.272436447,0.156698985,-0.00158855428,-0.00110994842,-0.00871252758
92555.514999,0.219564338,-0.27928107,0.140225404,-0.00828427441,-0.00769994086,-0.00575988019
92555.525024,0.251844431,-0.196685844,0.058799167,-0.00524400912,-0.000329376007,-0.00577053265
92555.535050,0.0997076218,-0.0911208436,-0.252291566,0.00671944309,0.0173731898,0.00659292633
92555.545075,-0.070613563,-0.127236716,-0.0433951331,-0.00503095605,-0.00333262262,0.00803209817
92555.555101,-0.0160204058,-0.205162252,0.139771815,0.0170136262,-0.00574890854,0.0172458372
92555.565126,0.115255457,-0.33621005,-0.0843227712,0.0309270435,-0.00983260064,0.0153384812
92555.575152,0.0359842007,-0.452552154,-0.324073192,0.0552180056,-0.0301858071,0.0371963724
92555.585177,0.0224423538,-0.3980814,-0.239832482,0.055697905,-0.00889969482,0.0349662423
92555.595203,0.0322686143,-0.372743033,0.173841843,-0.00431509867,0.0071738143,0.0457033112
92555.605228,-0.148320113,-0.249519663,0.363669418,-0.0361457299,-0.00489083821,0.041618821
92555.615254,-0.0289719907,-0.161545977,-0.053299272,-0.014860684,0.0001206982,0.0456513807
92555.625279,-0.0675199627,-0.210259027,-0.132293314,0.0209740122,-0.00100794951,0.0545141145
92555.635305,-0.0988497788,-0.407335185,0.0699173579,0.0114422926,-0.0122590061,0.0472234457
92555.645330,-0.182749457,-0.400263785,0.0862149972,-0.0134023371,-0.0202471572,0.0541724309
92555.655356,-0.140938369,-0.259133021,-0.208008188,-0.00667146353,0.00349918446,0.0611403256
92555.665381,-0.150529076,-0.109051655,-0.247220254,-0.00714417446,0.0125251696,0.068652299
92555.675407,-0.37241543,-0.0484757887,0.074032392,-0.009328233,0.0127603267,0.0634338378
92555.685432,-0.146599491,-0.0585025494,0.525453971,-0.0240368712,-0.00762590537,0.0641534224
92555.695458,-0.066098305,0.0514127734,0.363287141,-0.0501496959,-0.00534224375,0.060005021
92555.705483,-0.0786044248,0.34089397,-0.23842846,-0.0838631894,0.0554990009,0.0614420592
92555.715509,-0.0979099407,0.659050257,0.128498142,-0.131832851,0.089336066,0.0454274088
92555.725534,-0.228025609,0.731954458,0.373066776,-0.128081245,0.0520246424,0.0256872575
92555.735560,-0.293854391,0.728807976,-0.282259419,-0.000279344384,-0.0198900267,0.0245383705
92555.745586,-0.173036073,0.373848364,-0.678946953,0.0908428375,-0.0394791752,0.034008038
92555.755611,-0.458282463,0.276518218,-0.340758954,0.11085623,-0.0313400231,0.0112060539
92555.765637,-0.0725687294,-0.0546158624,0.312257795,0.0984062199,-0.0514695249,0.0138023689
92555.775662,-0.237056874,-0.063772343,0.265966584,0.0884819497,-0.0467770375,0.0156809639
92555.785688,-0.157490275,-0.17380468,-0.0664890084,0.0552038905,-0.0113077253,0.0119344282
92555.795713,-0.213429824,-0.154106493,0.280145332,-0.00617158825,0.0106899854,0.00621049641
92555.805739,-0.257826143,-0.00530603417,0.275280356,-0.0488772373,0.000611252518,0.0128638714
92555.815764,-0.242431827,0.0550666563,-0.154453708,-0.0322287548,-0.00946508399,0.0157070614
92555.825790,-0.292077043,0.0142428255,-0.568374116,0.0162684732,-0.000861741877,0.0383037149
92555.835815,-0.360684076,-0.251711986,-0.176085694,0.0522395243,-0.0197840329,0.0209279235
92555.845841,-0.15097144,-0.435265431,0.284059875,0.0756601562,-0.0496649682,0.0345675691
92555.855866,-0.119946617,-0.343388856,0.387000609,0.0354661365,-0.0335312724,0.0174154795
92555.865892,0.00236254272,-0.0972834213,0.206651641,-0.0566885564,0.019293061,0.0109035184
92555.875917,0.141228815,0.166627901,-0.0343619318,-0.136034248,0.075583233,0.0181374631
92555.885943,-0.0873314462,0.408064522,-0.0854257641,-0.13452716,0.101880616,0.024574057
92555.895968,-0.206959934,0.383282547,0.101641699,-0.0718094538,0.0241434765,0.0165289126
92555.905994,-0.134882019,0.380425696,0.142123347,0.0339614508,-0.0562099531,0.0263775501
92555.916020,0.0920513166,0.146059215,-0.371121359,0.086600693,-0.0324287243,0.0139507081
92555.926045,-0.245699158,0.0606219706,-0.577789595,0.109321715,-0.0277402266,0.0320673927
92555.936071,-0.230050685,-0.0905875769,0.0431743124,0.101194279,-0.0260911971,0.0169976305
92555.946096,-0.244032467,-0.215459098,0.301377505,0.0822149982,-0.0448041684,0.0268068507
92555.956122,0.175205994,-0.322093444,0.52568778,0.0485915263,-0.031219916,0.0301560431
92555.966147,0.0499329114,-0.0992522189,0.0573629967,-0.0134936831,0.0208382275,0.0132295235
92555.976173,-0.220054978,0.0886730665,-0.364091899,-0.0628580357,0.0399669134,0.0308186363
92555.986198,-0.137001797,0.0524356319,0.170386734,-0.0718123819,0.00622812515,0.0202868998
92555.996224,0.155115703,0.119606403,-0.394152106,0.000912686418,-0.00669299955,0.0345340117
92556.006249,0.362258588,-0.125760488,-0.439104177,0.0724518467,-0.0325285918,0.0250030931
92556.016275,0.132840213,-0.224607614,-0.144527941,0.114860023,-0.026363106,0.0190607801
92556.026301,-0.0497458941,-0.313874957,0.292485758,0.0645100345,-0.0420366093,0.00453803106
92556.036326,-0.0424077743,-0.341625572,0.769100815,-0.0291394889,-0.0315645277,0.00392390624
92556.046352,0.207641077,-0.0899579921,-0.0143975866,-0.0764167215,0.0151499812,0.0210759945
92556.056377,0.290749039,0.0879609909,-0.406936769,-0.0923008825,0.0666549862,0.0278460167
92556.066403,-0.0471406526,0.125635144,-0.0907887524,-0.0719444807,0.0451158681,0.0193193748
92556.076428,0.213596862,0.178631716,0.298003644,-0.0207824893,-0.00965496762,0.0174972385
92556.086454,0.323721937,0.259288357,0.120791805,-0.000262271583,-0.0398710608,0.0145650895
92556.096479,0.37926423,0.452005663,-0.466531114,-0.000358678036,0.0292603378,0.0131618704
92556.106505,0.241791422,0.420840051,0.0949132674,-0.00560856743,0.0278541878,0.00330497813
92556.116531,0.166265531,0.231501648,0.41588885,0.0107328557,-0.0193580646,0.00745817809
92556.126556,0.249130989,-0.108394379,0.269904508,0.0484972765,-0.0481308564,-0.00823609648
92556.136582,0.407029275,-0.192838302,-0.373227391,0.0857708772,-0.032524468,0.00280963047
92556.146607,0.196055945,-0.215335636,-0.605246926,0.0799239074,0.0112464488,0.00204184115
92556.156633,0.0641244271,-0.262707646,0.340724011,-0.0023730932,0.0122153074,0.0107040384
92556.166658,0.0562056716,-0.178190311,0.426257684,-0.0376384053,-0.0186419408,0.00459181773
92556.176684,0.259810259,-0.0855491627,-0.350740834,-0.0107940081,-0.00345127009,0.0111668955
92556.186708,0.21606844,-0.00462607081,-0.528952206,-0.00331238976,0.045187904,0.0219407144
92556.196734,-0.0513819891,-0.0914139813,0.411655743,-0.0260384753,0.0050418167,0.0104896545
92556.206760,0.0463690221,-0.163558596,0.630032536,-0.0300779584,-0.0370068341,0.00999004556
92556.216785,0.311500352,0.00509178826,-0.234322194,0.00426883072,-0.0205402426,0.0135610781
92556.226811,0.178421687,0.033586792,-0.632319057,0.0126442062,0.0539539666,0.0216421734
92556.236836,-0.107017669,-0.0903842912,0.252799644,-0.0196780469,0.0229808711,0.0144021043
92556.246862,0.0746626626,-0.103508488,0.888526236,-0.0422131847,-0.0269075926,0.0207351006
92556.256887,0.236262228,0.161990085,0.0432421169,-0.0400538909,-0.00127307085,0.00645549758
92556.266913,0.274307151,0.415692788,-0.739108284,-0.0120608741,0.065836458,0.0146138256
92556.276939,0.0617321708,0.25835473,0.0359963836,-0.0224112495,0.0394107089,0.00329299387
92556.286964,-0.0571678106,0.156697075,0.651834618,-0.0302491988,-0.0121960263,0.00373880727
92556.296990,0.0738581915,0.0987536579,0.0321420462,0.0103003579,-0.0387746408,0.0174245245
92556.307015,0.0734152016,-0.032175172,-0.550641475,0.0295467564,0.014330123,0.00702541437
92556.317041,-0.0311680258,-0.148088584,-0.289738961,0.0231594314,0.00420824714,0.0171193264
92556.327066,-0.0338575434,-0.236482779,0.0546116522,0.00312713355,-0.0199037469,0.00220642448
92556.337092,-0.100986791,-0.1671031,-0.272331314,0.015615495,0.0141596808,0.0076829486
92556.347118,0.0989085712,-0.112258543,0.0616937194,-0.00389349174,0.0221259952,0.00690903398
92556.357143,0.157444822,0.0124397216,0.47524471,-0.0234930254,-0.0153018055,0.0121006004
92556.367169,0.199964095,0.186601087,-0.0660178838,0.010773602,0.00387615101,0.0170032128
92556.377194,0.0352310899,0.176561193,-0.215339846,-0.0082376403,0.0148092261,0.00832477095
92556.387220,0.0458002001,0.145071483,0.256581501,-0.0157794467,0.00140473755,-7.88339018e-05
92556.397246,0.119412019,0.19069254,0.0377861896,-0.00519204877,0.00509215049,-0.00210070634
92556.407271,0.0444443057,0.175342867,-0.128180618,-0.00721924698,-0.0101515172,-0.000458601171
92556.417297,-0.11522642,-0.0102629259,-0.297137839,0.00325736225,-0.0121829766,0.00425865617
92556.427322,-0.0481693061,-0.0551701353,-0.212874917,-0.00490762333,0.0217614085,0.000172834604
92556.437348,-0.0735162531,-0.0402837692,0.494391309,-0.0440821889,-0.00992301809,-0.0193776966
92556.447373,0.231869546,0.166507417,0.285529947,-0.034799477,-0.0210233382,-0.0040173831
92556.457399,0.0314313506,0.316094459,-0.417821735,-0.0018508472,0.00260422538,-0.0108116393
92556.467425,-0.0163119772,0.11413758,-0.271900522,0.00991260175,0.0141956335,2.36972631e-05
92556.477450,-0.164649353,-0.15319853,0.571912356,-0.00318562372,-0.0203375756,-0.00933145476
92556.487476,-0.0138707079,-0.249742677,0.530724605,-0.00500536144,-0.04312651,-0.00158192241
92556.497501,-0.0585876142,-0.299376166,-0.522673857,0.0604122598,-0.0348067969,0.00382908829
92556.507527,0.044995793,-0.299815525,-0.495238153,0.0773776565,0.0142233301,0.00925341504
92556.517553,-0.149547518,-0.222414488,0.467898439,-0.0437101479,0.0088211088,-0.00155209495
92556.527578,-0.0920584747,0.105579997,0.638067374,-0.1452381,0.0202671089,0.00337635096
92556.537604,0.271549705,0.412887923,-0.185465516,-0.119232071,0.07586938,-0.00251988718
92556.547629,0.171681729,0.52830652,-0.678264816,-0.0320023577,0.064134425,0.00530208251
92556.557655,0.0688180602,0.199671106,-0.023579841,0.0334898327,-0.0485375203,0.0128380291
92556.567681,0.0278165668,0.00224801621,-0.0299026143,0.0589898658,-0.0413962542,-0.00520781638
92556.577706,-0.00143073491,0.16383438,-0.368819512,0.0435549822,0.0256099426,0.00227087293
92556.587732,0.0371417048,0.0413366207,0.558506346,-0.0437389071,0.0157304131,-0.00895088842
92556.597757,-0.0612234974,0.211194955,0.685389682,-0.0489613692,-0.0319710612,0.000622110202
92556.607783,-0.0126208265,0.369222969,-0.535705772,0.0166749005,-0.00376019678,0.00665203924
92556.617809,-0.155576039,0.0645627624,-0.527091088,0.0370486137,0.00334112202,-0.016184035
92556.627834,-0.15745999,-0.112877662,0.107351893,0.0584460479,-0.018554322,-0.0113988661
92556.637860,0.0178520029,-0.239345895,0.263869904,0.0519218352,-0.0354973539,-0.0136305962
92556.647885,-0.129980538,-0.220043704,0.223710328,0.0188989063,-0.014537212,-0.00462564943
92556.657911,-0.07654857,-0.10959,0.0228914028,-0.0197653993,0.018669479,-0.0128990256
92556.667937,-0.177320217,-0.0613602769,-0.0633442806,-0.0139999212,0.00224097022,-1.86471804e-05
92556.677962,-0.283768685,0.010603026,-0.0868356309,0.00914135024,0.00786157181,0.00400032964
92556.687988,-0.211802935,-0.0268514197,0.20408559,0.0056779092,-0.00396233103,-0.000301474014
92556.698013,-0.151408928,0.0467309357,0.217552974,0.00176412771,-0.0095738783,-0.00468530344
92556.708039,-0.138717734,0.168136954,-0.280129421,0.00763453364,0.00616407297,-0.00178059401
92556.718065,-0.216949504,0.156700509,-0.161289691,0.00745743334,0.00338959154,-0.0044442874
92556.728090,-0.262659499,0.0858294771,0.0178300278,0.000574493622,-0.0119869686,-0.000478574315
92556.738116,-0.131542618,0.0934048625,-0.0297634981,-0.000472927625,-0.0137672914,0.00209829979
92556.748142,0.0885413449,0.00535610176,0.131724118,0.018180918,0.0259902426,0.00776683795
92556.758167,-0.276727023,-0.160225579,0.137443665,-0.00254353548,0.00639949642,0.00389273813
92556.768193,-0.482206469,-0.141831807,0.173012406,-0.0185496657,-0.0197375655,-0.00523444755
92556.778218,-0.321255298,-0.00974082001,-0.00867394828,0.0078718216,-0.0227812916,-0.000864999609
92556.788244,-0.120853338,-0.0136469971,-0.499589918,0.0148351882,0.0120877414,0.00540408189
92556.798270,-0.274889378,-0.148547361,0.0344813028,-0.00584718671,0.00770018432,-0.00696789963
92556.808295,-0.33170823,-0.00345443322,0.0796642604,0.00502357081,-0.00868038698,-0.00531221205
92556.818321,-0.174053561,0.110902544,-0.00817359755,-0.0126691404,-0.00674533382,-0.00198698906
92556.828346,-0.0123481105,0.0698146733,0.240639835,0.0048211702,-0.0270727086,-0.00402990008
92556.838372,0.116077166,0.114408524,-0.263285254,0.0315992554,0.0194393978,0.0102406486
92556.848398,-0.166996647,-0.103754079,0.0889979059,-0.0143511928,-0.00942181101,-0.0108151019
92556.858423,-0.17854764,-0.0626162135,0.0494497394,0.00752134908,-0.0198028121,-0.00205010572
92556.868449,-0.198526306,0.1005572,-0.454620311,0.0326030013,0.00384206274,0.00612926087
92556.878475,-0.271784032,0.151240655,0.173743059,-0.0131349265,0.0139008215,-0.0103650272
92556.888500,-0.0142859011,0.0757827879,0.612585727,-0.00465435667,-0.0280932333,-0.00312335999
92556.898526,0.143215294,0.0843388001,-0.0731811995,0.0253751819,-0.0116964174,0.00776097946
92556.908552,0.0234810081,0.0385310069,-0.260650229,0.00221393544,0.0083934045,-0.000746488811
92556.918577,0.133252082,-0.0642484543,0.0600553045,0.0143472972,0.0188630898,-0.00566321635
92556.928603,0.284544613,0.0530411783,0.182183555,-0.0080136684,0.00857583103,-0.00599904103
92556.938628,0.153118081,0.176771256,0.123043383,-0.00510815943,-0.0206566225,-0.00914423471
92556.948654,0.0939128088,0.215352422,-0.420421104,0.0194483158,0.00665249671,0.00117471557
92556.958680,-0.00198075631,-0.0443663441,-0.267124393,0.0253520124,0.00747221751,-0.00181974215
92556.968705,0.0794765246,-0.262759924,0.337467055,0.0244942066,-0.0287174783,-0.00905608317
92556.978731,0.438625862,-0.333149932,0.24473558,0.0226630178,-0.0435845755,-0.00460327813
92556.988757,0.301757449,-0.21631977,-0.278808986,0.00364405297,0.0090517378,-0.00840786962
92556.998782,0.231713881,0.0130223986,-0.195158058,-0.0162628087,0.0311450571,-0.00876526652
92557.008808,0.306942707,0.0641288097,0.289613417,-0.0330913234,0.0113031747,-0.00080854004
92557.018834,0.224896291,0.174322566,0.173565364,-0.0121029522,-0.0098330039,-0.00324879518
92557.028859,0.134191911,0.0735613124,-0.393071325,0.0256865044,0.00645249333,0.0109961878
92557.038885,0.0417299002,-0.0530943336,0.148655379,0.000526024103,0.00682267263,-0.012762937
92557.048911,0.0194984321,-0.000753448898,0.416048425,-0.00191183358,-0.0105917384,-0.0112981994
92557.058936,0.139889319,0.086784184,-0.284686354,0.013915333,-0.0196534093,0.00300643802
92557.068962,-0.0121298464,0.066548091,-0.286171039,-0.00168599751,-0.00392744322,-0.0104750164
92557.078987,0.190454947,0.18631785,-0.166938511,-0.0177781488,0.0178873078,-0.0112760954
92557.089013,0.382586068,0.183728071,-0.0247956465,0.00735122299,-0.00553355324,-0.006860425
92557.099039,0.314275333,-0.0517479971,0.178588745,0.0148743867,-0.012261231,-0.0044404103
92557.109064,0.0418672948,-0.245022461,-0.150566052,0.0395120886,-0.0359654962,-0.0147116904
92557.119090,0.124724729,-0.344317661,-0.24098399,0.0581877698,-0.0130596464,0.00105022894
92557.129116,0.216479706,-0.250595658,0.297225646,0.0184861664,0.0050389296,-0.00350963535
92557.139141,0.0953487051,-0.190274698,0.470308423,-0.0531936157,-0.00443686409,-0.00896831719
92557.149167,-0.0506606161,0.00861240014,0.0311051044,-0.0686758961,0.0168825392,-0.00235435577
92557.159193,-0.0385071913,0.217253671,-0.376165783,-0.0304054766,0.0503166602,0.00416772556
92557.169218,0.0522637153,0.0962906288,0.106998258,0.00489019563,0.00849438129,-0.00075938856
92557.179244,0.173381574,-0.0309542336,0.308119965,0.00649981022,-0.0359694898,0.00672356108
92557.189270,0.0613925361,-0.039573703,-0.311231246,0.00494985057,-0.0033247278,0.000761009513
92557.199295,0.00413664886,0.129384724,-0.393803731,0.00734829305,0.0424747155,-0.000414243208
92557.209321,0.141247738,0.120756103,0.344070399,-0.0119870546,0.0116776577,-5.04555716e-05
92557.219347,0.119603843,0.0810809491,0.544546794,-0.00979793623,-0.0354629583,0.0016342604
92557.229372,0.112908309,0.113410599,-0.17447592,0.00129626,0.00323543693,0.0090120153
92557.239398,-0.0362430594,-0.0659248631,-0.215771807,-0.00979580537,0.02560599,-0.00167285302
92557.249424,-0.0371443191,-0.177576325,0.142584535,-0.0151269212,0.00676306007,-0.00530407322
92557.259449,0.0463645149,-0.111243539,-0.040430438,0.0213479996,-0.0333753056,0.00254825711
92557.269475,0.049895639,-0.166765958,-0.397663329,0.0532539991,0.0169935938,0.00640984088
92557.279501,-0.0293471898,-0.139968717,-0.100928454,0.0404689592,0.0272417035,0.00459542893
92557.289526,-0.101804144,-0.236494104,0.640393187,-0.0211030542,-0.0247767563,0.000742101802
92557.299552,-0.107996998,0.0215783012,0.0257514684,-0.0197424459,-0.00894586141,0.0152137193
92557.309578,0.0667331437,0.203357759,-0.578348397,0.00464944595,0.0190953598,0.0105726279
92557.319603,-0.172277035,0.165518862,-0.0900645298,-0.00915611435,0.0233060852,-0.00446118252
92557.329629,-0.0091304591,0.117086712,0.391129672,-0.0251848809,-0.00676979268,-0.00617252966
92557.339655,-0.00976282502,0.0651013993,0.288259665,-0.0157666131,-0.0173723693,-0.00834274037
92557.349680,-0.171271201,0.112688788,-0.544462494,0.0142219123,0.0193033539,0.00978033779
92557.359706,-0.300136741,-0.209565455,-0.112729951,0.00608542243,-0.0106444252,0.00227102194
92557.369732,-0.172958807,-0.269022181,0.276331326,-0.00721813219,0.00311666001,0.0075733757
92557.379758,0.0863348113,-0.0418229798,0.290482017,-0.0423332433,0.0175699018,-0.00364199398
92557.389783,-0.0755647877,0.096901308,0.086877845,-0.0289359446,0.0196237308,0.00806659343
92557.399809,-0.294777224,0.0589082985,-0.407524213,0.0144671901,0.0237100855,0.0187591843
92557.409835,-0.278051038,-0.273749027,0.070628721,0.0387264547,-0.0445224992,0.0107486627
92557.419860,-0.148223813,-0.340369508,-0.0910225611,0.046974266,-0.0110641397,0.0235582001
92557.429886,-0.17480575,-0.166208982,0.00930652956,-0.001379418,0.0204786066,0.00845594773
92557.439912,-0.315161438,-0.0348713523,0.350712906,-0.0585026275,0.0176711012,0.0100692909
92557.449937,-0.304173011,0.167630685,0.134153975,-0.0860231946,0.0342103974,-0.00470086677
92557.459963,-0.132662343,0.423888918,0.0282988148,-0.0800465326,0.0453466684,0.000480578972
92557.469989,-0.238526362,0.466367731,-0.070764786,-0.0349658746,0.0238672127,-0.00995688258
92557.480014,-0.341897323,0.276050965,-0.25781822,0.0326962602,-0.0445549912,0.00934544368
92557.490040,-0.282394493,-0.104721828,-0.36853485,0.10358269,-0.0520784199,-0.00136898668
92557.500066,-0.246826372,-0.159687654,-0.393794379,0.143595355,-0.0395189538,0.00676057929
92557.510092,-0.261939679,-0.246842425,0.175117269,0.0762509276,-0.0322882026,-0.0037011162
92557.520117,0.0689818451,-0.271077579,1.05442524,-0.0241241454,-0.0306327823,-0.012323634
92557.530143,-0.143300787,0.0117771843,-0.098949847,-0.077140754,0.0655483515,0.00329287699
92557.540169,-0.278830937,0.0735155371,-0.181159928,-0.110752245,0.0625051506,2.35808478e-05
92557.550194,-0.194923715,0.00835347521,0.266274627,-0.0889404248,0.00288736187,-0.00601939788
92557.560220,0.00178615847,0.173253567,-0.656159367,0.0362611656,0.0144209801,0.0147303555
92557.570246,-0.0199896017,-0.00769473767,-0.0776843561,0.039308088,-0.00378172593,-0.0106024325
92557.580271,-0.1369181,-0.175500012,0.547393416,-0.00372086924,-0.042925933,0.00757444114
92557.590297,-0.186628911,-0.147677903,-0.0161809629,-0.0132368756,0.0080648134,0.00784208881
92557.600323,-0.218618972,0.0954535021,-0.183665774,-0.0306688621,0.0280688819,0.00443990039
92557.610348,-0.333192989,0.0231698813,0.14812814,-0.0304835065,-0.0257717125,-0.00394053502
92557.620374,-0.0719714576,0.102888803,-0.0413738564,-0.00766527692,-0.0235897857,-0.00174475858
92557.630400,0.158107578,0.0338254961,-0.157790159,0.00724948997,0.00886189701,0.000149547814
92557.640426,-0.0606435969,0.113597153,0.0493176374,-0.00694835411,0.0214751609,-0.0117350754
92557.650451,-0.0280041321,0.134724824,0.186654563,-0.00818858847,-0.0244593076,0.0016672837
92557.660477,0.12935681,-0.127424786,-0.147627076,0.0226082076,-0.0350506991,0.0220889344
92557.670503,0.119156738,-0.0906516917,-0.461795902,0.023317406,0.030545887,0.0106858124
92557.680529,0.0625410303,0.0133188973,0.123020587,-0.0170936658,0.0409141057,-0.00528117014
92557.690554,0.239013883,0.10455133,0.844768343,-0.0591148864,-0.0179846301,0.00229605589
92557.700580,0.189344921,0.503623402,-0.00129143682,-0.049136823,0.027164739,-0.00701888209
92557.710606,0.168331688,0.548743122,-0.656188008,-0.014409732,0.0246451222,-0.00734884782
92557.720631,0.11387424,0.435475968,-0.0528117807,0.0277331938,0.0168444556,0.000485106132
92557.730657,0.144289362,0.0570201102,0.370569699,0.00997363783,-0.0402430646,-0.0177335788
92557.740683,-0.015708463,-0.109661239,-0.0130455875,0.0505820495,-0.0479372046,-0.0135726549
92557.750709,0.134819888,-0.113400096,-0.458351899,0.0721454044,-0.0108833113,-0.0160203662
92557.760734,0.0539236981,-0.220373082,-0.0990527229,0.0523514543,-0.0363114416,-0.010789919
92557.770760,0.315248379,-0.339704979,0.406798366,0.016068548,-0.0153459697,-0.00702500833
92557.780786,0.390766269,-0.177851051,0.236050169,-0.0235568918,0.0214716983,-0.00985648041
92557.790811,0.251991895,-0.0813245307,-0.0342461964,-0.0196891817,0.00885843528,0.00661650183
92557.800837,0.12196712,-0.0784182879,0.107125683,-0.0141796348,-0.00604195105,-0.00116418885
92557.810863,0.160081107,0.172810097,0.0047197863,-0.0295205078,0.0176471327,0.000639836064
92557.820889,0.190547356,0.138273475,0.170414791,-0.0423612054,-0.000119080692,-0.00556799235
92557.830914,0.118413263,0.188251905,-0.0906285934,-0.0143727138,0.0204290715,7.36478181e-05
92557.840940,0.0970682863,0.246934834,0.0245596283,-0.0154992313,0.00465037437,-0.00831637462
92557.850966,0.427727707,0.191122035,0.48808724,-0.0169077776,-0.00325548537,-0.00618238399
92557.860992,0.263613195,0.114091896,-0.153437809,-0.00445323849,-0.00293484078,-0.000529291348
92557.871017,-0.0466226932,0.0823188934,-0.451999899,-0.0163090992,-0.000488727395,-0.01434737
92557.881043,-0.0169337487,0.0171857471,-0.314187173,0.0234074221,0.00145058656,-0.0158259564
92557.891069,0.176261988,-0.0604168586,-0.0351574661,0.0375653152,0.04425717,-0.0158659045
92557.901095,-0.0690212341,-0.170728999,0.715766115,-0.0189994238,-0.017862923,-0.0301558927
92557.911120,-0.0761534149,0.0212588965,0.245234177,-0.00877181992,-0.0544030942,-0.010980868
92557.921146,-0.0394708213,0.22288079,-1.07932282,0.0334510003,0.0165142235,0.00869509926
92557.931172,-0.0542234825,0.151011851,-0.469455477,0.0130868732,0.0542884976,-0.013200612
92557.941198,-0.0673257735,0.0894317393,0.701601396,-0.0157644822,-0.0199862621,-0.0114764825
92557.951223,0.0561442922,0.102367866,0.235753817,0.0217418802,-0.0482117772,-0.00809213636
92557.961249,0.052388255,-0.037068497,-0.494222838,0.057020506,-0.00821216083,-0.0122610491
92557.971275,0.208742755,-0.135731225,-0.198132106,0.0194768627,0.00102767653,-0.00885246811
92557.981301,-0.190017877,0.0304321274,0.127780349,-0.0215440746,0.013131211,-0.0296227292
92557.991326,-0.0638425437,0.0658311383,0.141358792,-0.00696619732,-0.019616881,-0.0106517014
92558.001352,0.109254828,0.000828249069,0.221852717,0.0167425946,-0.0356914564,-0.00530007878
92558.011378,0.00913116007,-0.141014079,-0.342662742,0.036464898,0.0077470983,-0.00741116633
92558.021404,-0.128054538,-0.309451588,-0.0305584478,0.0369916727,-0.0170248277,0.0118107318
92558.031429,0.202265083,-0.357805394,0.528100102,0.0206047111,-0.0385215967,0.0132104892
92558.041455,0.0855648589,-0.138906714,0.0125956342,-0.00629508069,0.0121471728,0.00132826319
92558.051481,-0.0364169775,0.0371743134,-0.177212652,-0.0527800265,0.00850982727,0.0014102885
92558.061507,0.34541022,0.208294941,0.00128981185,-0.0771285053,0.0361441173,-0.0131793071
92558.071532,0.312926366,0.528919391,-0.198184713,-0.050668938,0.0736736492,-0.00649104384
92558.081558,0.134147715,0.359747066,0.092792622,-0.0139817623,0.0180569947,-0.00842742925
92558.091584,-0.0596017095,-0.0470486237,0.262625457,0.0186671634,-0.0833098903,0.00491963908
92558.101610,0.209951784,-0.100365441,-0.555149308,0.108110758,-0.0359359808,-0.0022450632
92558.111635,0.602297288,-0.108438382,-0.442922274,0.108900921,0.00719524217,0.00075205764
92558.121661,0.0879752171,-0.159706852,0.681480984,0.00278140775,0.0202231598,-0.010328823
92558.131687,0.0113307068,-0.130358574,0.907777464,-0.0667393486,-0.0244479045,-0.00429516496
92558.141713,0.0412978381,0.000242941728,-0.0873283828,-0.0431088525,0.000319226604,-0.00543100318
92558.151739,0.134078157,0.321209391,-0.928024005,0.00407756779,0.0504276664,0.00502243707
92558.161764,0.10559183,0.056385502,0.226314373,0.00234598092,-0.00175004957,-0.00509011863
92558.171790,0.0364959359,-0.0188444562,0.513590515,-0.00582033668,-0.0330025121,-0.00765420986
92558.181817,0.247982659,-0.186111953,-0.320166832,0.0359891635,-0.0237901039,-0.000991779619
92558.191843,0.072924089,-0.303422756,-0.429884514,0.0530770701,0.00610547695,0.0127402774
92558.201868,-0.0809641762,-0.189412474,0.106018014,-0.0285184588,0.0238535818,-0.0053074325
92558.211894,0.0403726723,-0.00144550455,0.675719936,-0.060028715,-0.00953739932,0.00470578693
92558.221920,0.361902432,0.116994869,0.15482793,-0.0473845582,0.0181672,-0.00780281355
92558.231946,0.0739405041,0.427053373,-0.62919128,-0.0260425172,0.0491125979,0.00275715184
92558.241971,-0.297108334,0.226651029,-0.06478162,0.00215716272,0.0135639249,-0.0108470742
92558.251997,-0.0206759309,0.116806653,0.250237685,0.0172698033,-0.021992737,-0.0035673224
92558.262023,-0.12772822,0.0663832558,-0.0330011648,0.00766537812,-0.00554478778,-0.013219151
92558.272049,-0.140965987,0.0534663632,-0.210913261,-0.0015398375,0.011902912,-0.0178386711
92558.282075,0.297318535,0.0861279486,-0.0127948276,-0.00565282341,0.0169658479,-0.00747524505
92558.292100,0.185227147,0.110157899,0.0977896997,0.0040048641,0.00372168092,-0.00322936779
92558.302126,-0.105550646,0.0498136311,-0.120822656,-0.00202133697,-0.00611763359,-0.000834387036
92558.312152,-0.0978494609,-0.163108276,0.105263981,0.00810373489,-0.0409605666,-0.00624672906
92558.322178,0.215475936,-0.199135721,-0.216707627,0.0416837987,-0.00453518335,0.000794668442
92558.332204,0.113966558,-0.161768826,-0.292748664,0.0369937067,-0.00676291719,-0.00285785669
92558.342229,0.170799393,-0.182914289,0.525173985,-0.0303834695,-0.0162757277,-0.0155060079
92558.352255,0.175984504,0.243919158,0.310753236,-0.0653262715,0.0342058227,-0.00294627366
92558.362281,0.0612397065,0.301872128,-0.112719429,-0.0567945707,0.0325091206,-0.00338569494
92558.372307,0.0270971071,0.0860027878,0.0247192028,0.00100987296,-0.0279885768,0.005639225
92558.382333,0.474142398,-0.0785408913,-0.153739422,0.057243852,-0.0217527855,0.0110997704
92558.392358,-0.00575208241,-0.113604807,-0.504150942,0.0663763602,0.00631267061,0.0128444068
92558.402384,0.257559101,-0.052853675,0.68221865,-0.0497358608,0.00208463609,-0.0174322717
92558.412410,0.62843086,0.207897594,0.786008111,-0.0825345571,0.00383646316,-0.00392285479
92558.422436,0.165360527,0.405079624,-0.768844666,-0.0080283628,0.0593471252,-0.00612129388
92558.432462,-0.218256294,0.248355624,-0.452026203,0.00210603008,0.0248509352,0.00366395828
92558.442487,0.0651240006,-0.070884714,0.723051596,-0.0121554638,-0.0650528535,-0.0135762815
92558.452513,0.379196498,-0.0584210999,-0.232697223,0.0193145779,-0.000284245745,-0.00942388108
92558.462539,0.192338605,0.0151117538,-0.562730557,0.0138503034,0.0249912836,-0.0222477999
92558.472565,0.101242074,-0.193786652,0.326258264,-0.0133823826,-0.0132495794,-0.0143555228
92558.482591,0.15477173,-0.00390564759,0.0618316666,0.000687896814,0.000984484172,-0.00163333514
92558.492616,0.0804105632,-0.0529272883,-0.0260213889,-0.0104390568,-0.00472400155,-0.00775647467
92558.502642,0.125680404,0.0361451895,0.161580327,-0.0162671189,0.00140952466,-0.0131368593
92558.512668,0.246991055,0.300253679,-0.0299879545,-0.0121426805,0.00952364361,-0.00753276912
92558.522694,0.188731009,0.302062317,-0.110063362,-0.00230789317,-0.0032659206,-0.00716685062
92558.532720,0.170149551,0.142812014,-0.152242461,0.0151651055,-0.00214473023,-0.00295719249
92558.542746,0.289168218,0.103224483,0.0948156523,-0.0176554247,0.0258325771,-0.0182756942
92558.552771,0.338367571,0.12319387,0.370249381,-0.0120425456,-0.0181615125,-0.02247044
92558.562797,0.370306432,0.112528939,-0.27047838,0.0274364204,-0.00591816292,-0.007807608
92558.572823,-0.0484041287,0.00902965744,-0.142339491,-0.00669039127,0.0352875986,-0.0274425626
92558.582849,-0.0983868558,-0.0519065304,0.398550762,-0.0265770144,-0.00915363761,-0.0381596529
92558.592875,0.0757977676,0.136484729,-0.0718075731,0.00415160421,-0.0274551451,-0.0269296386
92558.602900,0.158263299,0.110451439,-0.418486921,0.0137142167,0.0122965271,-0.0178101745
92558.612926,-0.00445799205,-0.146226298,-0.0012721476,-0.000716654335,0.0216524791,-0.0194980868
92558.622952,-0.18432889,-0.195470641,0.248771704,-0.00405252997,-0.0108687138,-0.0171438523
92558.632978,-0.27663339,-0.293540263,0.0524395688,0.00855434135,-0.0397562883,-0.0158911005
92558.643004,-0.365215144,-0.173057551,-0.203275314,0.00434894402,-0.000701829483,-0.018686888
92558.653030,-0.167294077,0.047277555,-0.0467725005,-0.0236717723,0.0349853285,-0.0247157507
92558.663055,-0.0929103971,0.179449298,0.391708933,-0.0580313447,-0.00502919969,-0.0130859923
92558.673081,-0.362881111,0.386015625,-0.0842637345,-0.0232174359,0.0108483,-0.0162602153
92558.683107,-0.294702441,0.197998059,-0.30063328,0.0244475548,-0.0133590349,0.00489220837
92558.693133,-0.285430536,-0.137462159,0.134463188,0.0533553679,-0.0466125957,-0.017365427
92558.703159,-0.0285386134,-0.191676637,-0.148061961,0.0518397634,-0.0229789052,-0.00247516041
92558.713185,-0.316199841,-0.161678682,-0.11641653,0.00337715664,-0.00723589495,-0.0108601239
92558.723210,-0.392243655,-0.0181943217,-0.105491816,-0.00868216895,0.0347768017,-0.0143051886
92558.733236,-0.162879457,-0.0225258298,0.289988096,-0.00390472442,-0.0130330646,-0.00199605735
92558.743262,-0.200409361,-0.0999925159,0.222355406,0.0116007319,-0.0285390518,-0.0014021725
92558.753288,-0.245304442,-0.0626498418,-0.179553662,0.00447224833,-0.00187814752,-0.00617828617
92558.763314,-0.277908854,0.0211104463,-0.0228778302,-0.00081492499,0.0133791021,-0.00158566447
92558.773340,-0.256485633,0.113463151,0.115213128,-0.0187702234,0.00759498259,0.00995541061
92558.783366,-0.121015634,0.222474931,0.154952433,-0.0310870762,-0.00553413485,0.00690822093
92558.793391,-0.0883913305,0.206823828,-0.092915243,0.000321179528,-0.0154504166,5.40434779e-05
92558.803417,-8.41506025e-06,0.167951515,-0.511559173,0.0180383903,0.0175038059,0.00928748934
92558.813443,-0.10521177,0.0126364498,0.181298588,0.00307675226,0.0023179289,-0.0182839513
92558.823469,0.0408358146,-0.0547383928,0.357745873,0.0220318009,-0.0196789816,-0.00925823232
92558.833495,0.0918460855,-0.212386248,-0.0937885187,0.0345526543,-0.013631743,-0.00594499266
92558.843521,0.0267420877,-0.16786212,0.0443942096,0.0133032902,-0.00707717058,0.010133309
92558.853546,0.0566091424,-0.146348097,0.14119045,-0.02145469,-0.000602759811,0.0111301306
92558.863572,0.0124807171,-0.0599952721,-0.0837657219,-0.00350232089,-0.0157665327,0.0184463679
92558.873598,0.18824518,-0.11566932,-0.244755325,0.0171169379,0.00190673683,0.0201284185
92558.883624,0.241679394,-0.143927099,0.123541396,0.00686722908,3.1871447e-05,0.00748719251
92558.893650,0.255984855,-0.093219405,0.251641706,0.00649704978,-0.0117835091,-0.00144318515
92558.903676,-0.0170886607,0.16729917,-0.238683896,0.0184253474,0.00713851671,-0.00095769135
92558.913702,-0.0203871771,0.180971685,-0.00507446249,-0.00134782346,-0.00319880903,-0.00364109246
92558.923727,0.394547468,0.0957939496,0.175062909,-0.00388981069,-0.0276245228,0.00505732442
92558.933753,0.592833258,0.218139678,-0.280114223,0.0195364189,0.0199829437,0.00982251832
92558.943779,0.337238714,0.172134755,0.121719441,0.00073796425,0.0330060669,-0.000953963266
92558.953805,0.218584167,-0.128547159,0.725798264,-0.00292974121,-0.0439608857,-0.00402911497
92558.963831,0.366423709,-0.303817235,-0.0432110087,0.0174152107,-0.0480877213,0.00591486203
92558.973857,0.421237505,-0.202794536,-0.892173524,0.0483462308,0.0208319597,0.00710529531
92558.983883,0.0549215044,-0.267827254,-0.284222243,0.013583988,0.0462473058,0.0149768002
92558.993909,-0.0936534797,-0.142328779,0.838925462,-0.042971434,-0.0295529175,0.00267219706
92559.003934,0.304686141,-0.0675571953,0.403641947,-0.0152314146,-0.0460892856,-8.7903121e-05
92559.013960,0.480311223,0.253091329,-0.930776518,0.0347153713,0.048411122,0.0245426081
92559.023986,0.306618352,0.0952591303,-0.0958635714,-0.0123978117,0.0475075119,0.0110747365
92559.034012,0.0194016115,-0.0525340146,0.812212812,-0.0366261843,-0.0326294019,0.0165283575
92559.044038,0.12192802,0.174198994,-0.0544174623,-0.0119096543,-0.0200941689,0.0085737619
92559.054064,0.239036223,0.233912307,-0.412825827,-0.00200429272,0.00451796637,-0.00822678884
92559.064090,0.245814576,0.156901695,-0.186400167,0.0109258863,0.0238903337,-0.00879910333
92559.074116,0.112065803,-0.0275874606,0.134775322,0.0122753103,0.00426549879,-0.00633567875
92559.084142,-0.0567917621,-0.23675924,0.426413167,-0.00304159398,-0.032753238,-0.00255185948
92559.094167,-0.0218054099,-0.267014513,-0.0473365642,0.0101151886,-0.00404534307,0.00688006891
92559.104193,-0.0238706033,-0.111911757,-0.136056466,-0.00835702933,0.023833957,-0.0029022547
92559.114219,-0.0464171059,0.055723531,0.215721667,-0.00780096084,-0.00389727116,0.00102164759
92559.124245,0.000871112287,0.171570125,-0.112886018,0.00538008854,-0.00143997247,0.00488376314
92559.134271,-0.0356545692,0.310228782,-0.166764323,-0.0120513662,0.00085380809,0.00137717905
92559.144297,-0.0964779899,0.205039447,-0.205812723,0.021218706,-0.00492551787,0.0128564692
92559.154323,-0.21695376,-0.00887514309,-0.256916888,0.0202072375,0.00261255955,0.00940687651
92559.164349,-0.150530766,-0.133319744,0.242725409,-0.010763728,-0.0238898877,-0.00770979305
92559.174375,0.126178709,-0.0127008023,0.048478264,0.0149991597,-0.0105644945,-0.00602401165
92559.184400,0.00516906978,0.145144165,-0.348298117,0.0186381043,0.032145685,-0.000520322712
92559.194426,-0.308600253,0.105623343,0.470368628,-0.0228374339,-0.00467731109,-0.0176484429
92559.204452,-0.0596942375,0.0691118405,0.436052517,0.00178269048,-0.0359324343,-0.00612787554
92559.214478,0.15082766,0.0388014579,-0.316900524,0.0252920111,-0.00894662416,0.00369572709
92559.224504,-0.16389574,-0.0661575759,-0.36758734,-0.00231484922,0.0323326387,-0.0105577775
92559.234530,-0.260105924,-0.0538034135,0.0867013194,-0.019605955,0.0220022355,-0.00933725131
92559.244556,-0.108816635,-0.0195021164,0.375469161,-0.00398172175,-0.0272497326,-0.000390361303
92559.254582,-0.000569583474,0.057369709,0.0134829385,-0.00136436713,-0.00561314593,-0.00545862248
92559.264608,0.0187219678,0.017216398,-0.113728898,-0.0137443383,0.0229543154,-0.0103883997
92559.274634,-0.054082631,0.00443378101,0.03664871,0.00431482408,0.00440113848,-0.00303993957
92559.284659,-0.0685400721,-0.106926169,0.0395163744,0.00989787474,-0.0146148974,0.00684970873
92559.294685,-0.100263984,-0.170430052,0.222377618,0.000992796691,-0.0126657286,-0.00930183125
92559.304711,-0.0448152739,-0.0307047889,-0.166369186,0.00624801272,0.0111762206,-0.00513851108
92559.314737,-0.0708737118,0.0516447007,-0.235930798,-0.000391780674,0.00975595643,-0.0034828235
92559.324763,0.0283773972,0.136229859,0.250973598,-0.0139539288,-0.00136646924,-0.00817451371
92559.334789,0.140576269,0.271723421,0.0495298189,-0.0109546771,-0.00103037843,-0.00534943329
92559.344815,0.0453961722,0.242111396,-0.115248071,-0.011277452,-0.00659398785,-0.00954550994
92559.354841,0.169992461,0.175785989,-0.0491468284,-0.0126676223,0.00841825032,-0.0124142666
92559.364867,0.269435088,0.0297503739,-0.0690357703,0.0132566533,0.000466051819,-0.00674865884
92559.374893,0.0833760345,-0.204226067,-0.00299531813,0.0196570289,-0.00149882833,-0.0151783612
92559.384918,0.0125934796,-0.254754386,0.210121363,0.00704696083,-0.0217601578,-0.000852419303
92559.394945,0.052375295,-0.248882443,0.0654112786,-0.00853093427,-8.01624678e-05,0.000193137436
92559.404969,0.18871888,-0.174327224,-0.134528525,-0.0131717584,0.0236113169,0.00397242954
92559.414996,0.116648792,-0.0929411543,0.222476987,-0.0186155251,0.0123056671,-0.00292648958
92559.425022,0.205070423,0.157516758,0.322222724,-0.037323432,0.0105714169,4.77291108e-05
92559.435048,0.177099754,0.178360206,0.0946689373,-0.0332432035,0.00290018106,-0.00361837843
92559.445073,0.100480826,0.195777314,-0.431815189,-0.000583261963,0.00528211236,0.0053769804
92559.455100,-0.0984753012,0.125412313,-0.56674973,0.0151909078,0.00937166294,0.0143505025
92559.465126,-0.1628434,-0.153433708,0.043524441,0.0158220772,-0.0128169968,0.00235482561
92559.475152,-0.0862165803,-0.224338424,0.255583137,0.0101737781,-0.0230730973,0.00588244874
92559.485177,0.156293113,-0.07376511,0.244500018,-0.00964786384,0.00473563183,-0.00145935384
92559.495204,0.339140675,0.0406393957,0.17640088,-0.0115536218,0.0189257511,0.00793201732
92559.505230,-0.0438513516,0.0904390715,-0.0531689236,-0.0123294004,0.00795459417,0.017819802
92559.515256,-0.459219013,0.173170857,-0.321789465,0.00576864377,-0.00460034566,0.0135845772
92559.525281,-0.304014423,0.120888954,-0.289541392,0.0402914678,-0.00183944676,0.0165574632
92559.535308,-0.0540719269,-0.0652217929,0.216655149,0.0413511378,0.0161123895,0.00098995561
92559.545334,0.0759582736,-0.118396717,0.70065564,0.00597637014,-0.00202240566,-0.0082024776
92559.555359,-0.0361441017,0.153185871,0.352599743,-0.0025489411,-0.00234704515,-0.00428363612
92559.565385,-0.107852658,0.302455518,-0.274983875,-0.0034464264,0.00307568345,-0.00501707034
92559.575411,-0.296143343,0.184677517,-0.70128095,0.0215984733,-0.0053707981,0.0154104407
92559.585437,-0.289405303,-0.0905181284,-0.506682507,0.0302588065,0.00313587064,0.0101118151
92559.595463,-0.201163851,-0.19548582,0.104508194,0.0239447188,-0.0193593181,0.0174879718
92559.605489,-0.0992398376,-0.287798193,0.347414449,0.0262046774,-0.0446143388,0.00735970423
92559.615515,-0.159553546,-0.230871808,0.0710495768,-0.00955172341,-0.00429061991,0.0108846638
92559.625541,-0.0932681519,0.00490766387,0.184564312,-0.0413527954,0.0285895639,-0.00467698486
92559.635567,0.17960907,0.154808832,0.429816838,-0.0899640079,0.0327837788,0.00296362419
92559.645593,-0.231900533,0.337298247,-0.0239691326,-0.0902979653,0.0240858928,-0.00670498168
92559.655619,-0.178664581,0.403279078,-0.302469848,-0.0362640265,0.0175515604,-0.00992927072
92559.665645,-0.0146502272,0.362635261,-0.199830142,0.0163557754,-0.00710638011,-0.00159064797
92559.675671,-0.0925937689,-0.0354837668,-0.0609126696,0.0411870871,-0.0601554825,-0.023430967
92559.685697,-0.107492337,-0.217111633,-0.477964946,0.086266147,-0.0591288335,-0.0037784346
92559.695723,0.0637936881,-0.11042994,-0.141101474,0.0580752586,-0.0103557031,-0.0176132892
92559.705749,0.13929496,-0.252446748,0.613000737,0.00208229602,-0.00834767944,-0.0166830469
92559.715775,-0.00664019949,-0.0844580612,0.565511256,-0.0391048211,-0.0120084607,-0.028733318
92559.725801,0.365566617,0.173516711,0.316650477,-0.0776237156,0.0159800299,-0.0305152398
92559.735827,0.219959821,0.423264466,-0.36467759,-0.0692451428,0.0680650682,-0.02380008
92559.745853,-0.156660163,0.395040936,-0.628444261,-0.033444805,0.0491568916,-0.0139727492
92559.755879,-0.309323453,0.181420068,-0.0155543554,0.0108592753,-0.035375034,0.00289251771
92559.765905,-0.0127242093,-0.0863779416,0.176016849,0.0440345389,-0.0647265329,-0.00688181562
92559.775931,0.153253279,-0.0249096928,-0.226375619,0.0630828013,-0.0128305783,0.00343154161
92559.785957,0.12364593,-0.0646086477,0.100563841,0.0272731372,0.00127245691,-0.00722429832
92559.795982,-0.0246112154,-0.0614528323,0.519999213,-0.0208054426,-0.00554363713,-0.021799247
92559.806009,0.036267397,0.156335695,0.165143572,-0.0269179288,0.00168258378,-0.011281091
92559.816035,0.0578357615,0.324878106,-0.127141922,-0.0128686912,0.0244688545,-0.0209190708
92559.826061,-0.0561687439,0.236005097,-0.182070613,0.00114060224,-0.004256798,-0.00725013135
92559.836086,-0.192559141,-0.100757217,-0.255958856,0.0225494877,-0.0270294897,-0.00131740724
92559.846113,-0.229297876,-0.124606148,-0.0969817618,0.0339371656,-0.00938072013,-0.00969012012
92559.856137,0.00686131088,-0.25289893,0.12801065,0.0313248691,-0.0109461262,-0.00731857424
92559.866164,0.00735946509,-0.213787493,0.571272889,-4.58360725e-05,-0.0107634333,-0.0173645497
92559.876190,0.0272414018,0.0788948555,0.19133366,-0.00966677249,0.0136228664,-0.0202282474
92559.886216,-0.0142279512,0.260623113,-0.213770989,-0.0298205092,0.0328253232,-0.0243388352
92559.896241,-0.192635567,0.244526129,-0.109100654,-0.0464407633,0.0304282107,-0.0174417824
92559.906268,-0.179368893,0.34373555,-0.0728497756,-0.0395972411,0.0214453679,-0.0102765479
92559.916294,0.0900793864,0.279724868,-0.0440310929,0.00246685658,-0.0250744629,7.91547284e-05
92559.926320,0.304508264,-0.00731425045,-0.14289128,0.0409292933,-0.0281293742,-0.000435368398
92559.936345,0.170485779,-0.0237024176,-0.344494633,0.051861303,-0.0223346032,-0.00262688311
92559.946372,0.196332332,-0.156285244,-0.136510055,0.054530589,-0.0231460683,-0.0127839141
92559.956398,0.198344019,-0.115457486,0.333881014,0.00906856552,0.0125599992,-0.0145051137
92559.966424,0.0484284663,-0.0641262162,0.337012297,-0.0126913245,-0.0139309965,-0.0210349199
92559.976450,0.0124066746,0.0249384436,-0.0299248261,0.00964647166,-0.0168492902,-0.0137058992
92559.986476,0.217147522,0.10788937,-0.00686076138,-0.00124585644,0.0130164646,-0.0159291059
92559.996502,0.385800098,0.0749237782,0.227316243,-0.00112974264,-0.00601661489,-0.0146057822
92560.006528,0.346729961,-0.0736753494,-0.219311672,0.0441136342,-0.0244006827,0.00635116523
92560.016554,0.0380559335,-0.165893852,-0.442156551,0.0423647371,0.0085844318,-0.0164899689
92560.026580,0.119978211,-0.0936026504,0.337481084,-0.0226811058,0.00736390562,-0.0152633165
92560.036606,0.416061819,0.11475984,0.401160652,-0.0249309446,-0.00274518788,-0.00563226105
92560.046633,0.305846564,0.190607711,-0.329099496,0.0137804971,-0.00916473711,-0.00430574013
92560.056658,0.32380914,0.00590602726,-0.183140873,0.0295986087,-0.00372602981,0.000450399464
92560.066685,0.231080478,-0.0477590918,0.226756856,-0.00875330802,0.0174972326,-0.0138547712
92560.076711,0.206277534,0.105749782,0.257552392,-0.0188291109,-0.00896100564,-0.0155855597
92560.086737,0.320409598,0.147678743,-0.0860582167,0.0134662437,-0.0261969841,-0.00531081693
92560.096763,0.245699882,0.0938181195,-0.558105235,0.0280295332,0.0153948241,0.000322129338
92560.106789,0.139355815,-0.102967404,0.0313576179,-0.00325595114,-0.00107229959,-0.0107691374
92560.116815,0.400158184,-0.0799067181,0.326997099,-0.0104611329,-0.0236436553,-0.0145819851
92560.126841,0.497756754,0.0296258159,-0.141672552,0.0106694513,0.00989859221,-0.00299457205
92560.136867,0.261322143,-0.0681704501,-0.0225241945,-0.00424078845,0.023406411,-0.0142235246
92560.146893,0.0446669674,-0.134348521,0.400619969,-0.0188639387,-0.00832115723,-0.0236417942
92560.156919,0.202333034,-0.0224189902,0.117181213,0.0127906595,-0.0213751751,-0.0171607242
92560.166945,0.114764559,0.0644521964,-0.321372116,0.0185995475,0.00843944629,-0.013032825
92560.176971,-0.0301758272,-0.0399299143,-0.0489942682,-0.00466050247,0.0158206638,-0.0178499513
92560.186996,0.0513102048,0.0451671753,0.215702378,-0.0120992436,-0.00310588912,-0.0129761
92560.197022,0.216772223,0.176407354,0.00260206349,0.0136476644,-0.0140389647,-0.00809585606
92560.207048,0.249906613,0.168857907,-0.164661213,0.0113514867,0.0075416951,-0.00368646091
92560.217074,0.076583607,0.0537654557,-0.0211534906,-0.00660301179,-0.00239402619,-0.0101310455
92560.227100,0.0235063069,0.118013051,-0.104805587,0.00422540082,-0.000843800529,-0.00720742648
92560.237126,0.0266252974,0.0703363591,-0.0200908298,0.010613259,-0.000622491743,-0.0100373023
92560.247152,0.090714031,-0.019289186,0.23580467,-0.000735801862,0.000920810113,-0.0171695121
92560.257178,0.0496611042,0.00470132764,0.172206935,0.00603848098,-0.00331867584,-0.0174637914
92560.267204,-0.0234892348,0.0322535889,-0.0734775521,0.00785688691,0.00217835485,-0.0163761575
92560.277230,-0.0889200306,-0.0200187972,0.00149380999,-0.00878334224,9.01701447e-05,-0.0193567679
92560.287256,0.0630813066,-0.0240529115,-0.131542203,0.00499851637,0.00333762863,-0.0111699433
92560.297282,0.0807147064,-0.0833416061,-0.157548166,0.0145733804,0.00818538056,-0.00696987217
92560.307308,-0.0353582166,-0.0939514822,0.217599736,-0.0145011488,0.0084455716,-0.0174454164
92560.317334,-0.0728697719,0.030557964,0.169375511,-0.0108579452,-0.023986138,-0.0162395362
92560.327360,0.00951417718,0.190771742,-0.346731599,0.00556949813,-0.00193436495,-0.00594961574
92560.337386,-0.0423302841,0.131723761,-0.252908237,-0.00781395139,0.00919312095,-0.0190845926
92560.347412,0.0268853001,0.118058461,0.0702867757,-0.00886243761,0.0096365376,-0.0199884691
92560.357438,0.0681066879,0.0982892005,0.16111271,0.00552022977,-0.0156733483,-0.0152094264
92560.367465,0.05699995,-0.0352353085,0.242959803,-0.00510365229,-0.00652725207,-0.0217264474
92560.377491,0.115999544,-0.0399884944,0.151801276,-0.0129847451,0.00922694286,-0.0261182666
92560.387517,0.133178487,0.105718839,-0.0620431349,-0.00448473349,0.0173415937,-0.0192843296
92560.397543,0.05132448,0.137238744,-0.0101165483,0.000722545157,-0.00199854704,-0.0154443171
92560.407569,-0.114292062,-0.00691688517,-0.145523382,0.0129909293,-0.00743192858,-0.0134618611
92560.417595,-0.151450949,-0.123243993,-0.234978028,0.00880257606,0.00561489813,-0.0157750819
92560.427621,-0.0951731361,-0.166114947,0.0982824516,-0.00138747731,0.0109406872,-0.0150810622
92560.437647,-0.00623224888,-0.0579398192,0.299238155,-0.00948641628,-0.00164008552,-0.0123928667
92560.447673,0.150042628,0.121794123,0.266142525,-0.00116110865,-0.00958615872,-0.017118647
92560.457699,0.235433157,0.280326889,-0.0135202193,0.00698869683,0.0114083387,-0.0168043946
92560.467725,-0.0326271842,0.277352129,-0.156402504,-0.00779104831,0.0271566738,-0.0179998868
92560.477751,-0.267704033,0.202575961,0.142385213,-0.0310377813,0.000870476377,-0.0260511555
92560.487777,-0.0765819791,0.207123925,0.11344378,-0.00356913886,-0.00792274861,-0.0135872953
92560.497803,0.0915480341,-0.0785902652,-0.230237555,0.0309318472,-0.00334424204,-0.0128748987
92560.507829,-0.0694000134,-0.295910882,-0.335167418,0.0676270072,-0.0454243175,-0.00994968345
92560.517856,-0.00141277457,-0.422147518,-0.359115279,0.072365569,-0.0295542754,-0.011142514
92560.527882,0.146267996,-0.159329671,0.121618904,0.000706033506,0.0345762395,-0.0159300782
92560.537908,0.337100912,-0.0320271601,0.83859813,-0.0990125741,0.034281163,-0.0123779543
92560.547934,0.278174165,0.15373987,0.50339996,-0.149943931,0.0331924618,-0.0241997272
92560.557960,-0.0850667892,0.536402952,-0.689041646,-0.0871295463,0.0795783386,-0.0142735925
92560.567986,-0.106764744,0.491064657,-0.441781288,-0.00321786797,0.0123092862,-0.0209514678
92560.578012,0.0628764911,-0.00152790387,0.120300807,0.0521476549,-0.0694108769,-0.0163412702
92560.588038,0.121714807,-0.0822902339,-0.421939108,0.134624945,-0.0589944548,-0.0128256318
92560.598064,0.265771816,-0.164467783,-0.285286658,0.132163929,-0.0208433415,-0.0190544978
92560.608090,-0.160789646,-0.241218521,0.531469286,0.0197148789,-0.006037497,-0.0142935657
92560.618116,-0.165329408,-0.287677709,0.764374956,-0.0574933569,-0.0249275654,-0.027940403
92560.628142,0.0277494426,-0.0929626172,-0.131787118,-0.0430395807,0.0348188565,-0.00662046602
92560.638168,0.0823763286,0.0116562796,-0.326939687,-0.0150684024,0.0506904968,-0.00892330078
92560.648195,-0.11460964,-0.0414833178,0.43766872,-0.0388600174,0.00589266555,-0.00803886471
92560.658221,-0.237810305,0.0230609045,0.357168366,-0.0568645838,-0.0129768956,-0.0156885285
92560.668247,-0.1190821,0.322922442,-0.512910003,-0.0163893289,0.0349424243,-0.00681248052
92560.678273,-0.170325663,0.359087286,-0.429849442,0.000482594319,0.0351496213,-0.00920346496
92560.688299,-0.164607998,0.227669833,0.329266213,-0.00671566363,-0.0136136576,-0.0157654949
92560.698325,-0.0110174465,0.0839137248,0.261610727,0.0117062201,-0.0305697374,-0.0115747445
92560.708351,-0.104985688,-0.035759442,-0.325383106,0.0154580829,0.00848019259,-0.0160336748
92560.718377,-0.16656253,-0.0985092003,-0.09145803,-0.00138321628,0.018054523,-0.0174411547
92560.728403,-0.214370794,-0.110102005,0.253585242,-0.0073899761,-0.0227743998,-0.0211216447
92560.738429,-0.144883334,0.0824615533,-0.139688685,-0.00283384013,-0.00918428837,-0.0151614894
92560.748456,0.0728222361,-0.0138251667,-0.123669278,0.00563501202,0.00272057434,-0.0172613927
92560.758482,0.143198891,-0.136346727,0.0185022279,0.00269488229,0.0163559583,-0.0132536006
92560.768508,-0.154228734,0.0149869584,0.0307748495,-0.00796202377,0.00620265767,-0.0203703672
92560.778534,-0.0822301867,-0.00754449728,0.205525267,-0.0106129329,-0.00955313588,-0.0115931195
92560.788560,0.0321606284,-0.0836636412,0.102543032,-0.00596145673,-0.00727666593,-0.00880239276
92560.798586,0.0720817656,0.0511277459,-0.211245854,-0.0075415102,0.0271300436,-0.0156595011
92560.808612,-0.0732846591,0.104617472,0.0757467947,-0.00879292928,0.0152882975,-0.0231919841
92560.818638,-0.159053469,0.107757542,0.130794728,-0.00429618165,-0.0161902677,-0.0154184841
92560.828664,-0.0428607834,-0.00767725681,-0.0318800518,4.29061882e-06,-0.024651663,-0.009635431
92560.838691,0.0187361334,-0.123325077,-0.101768996,0.00199100872,-0.000872296206,-0.0134376262
92560.848717,0.0690717518,-0.017438681,-0.234639589,-0.00563308869,0.0265465439,-0.016745006
92560.858743,-0.0985487775,0.0574782475,0.122672212,-0.0128419995,-0.0115869916,-0.0140799799
92560.868769,-0.17210935,0.166114563,0.00758277451,0.00340195147,-0.00966072785,-0.00499007875
92560.878795,-0.110807087,0.135570463,-0.0706624947,0.0109474865,0.000686718226,-0.00417834731
92560.888821,-0.0715667538,-0.0225144682,0.251081734,0.00534685802,-0.00107815854,-0.01043358
92560.898847,-0.112287416,-0.0252161466,0.147981425,-0.00103487486,-0.0165055856,-0.00867562672
92560.908873,-0.151935418,0.0701326166,-0.0514930993,0.00676365949,-0.0100266464,-0.00673471508
92560.918900,0.0207443588,0.0293504331,-0.152489714,0.00299741731,0.000547701219,-0.00588197099
92560.928926,0.0170880922,0.00101237346,-0.105039396,0.00233082807,0.00998461289,-0.00744391536
92560.938952,-0.242792879,0.0766828603,0.0506024165,0.00125251415,0.0149921546,-0.00860026037
92560.948978,-0.0298318635,0.0276896237,0.384578351,-0.00897189409,-0.0283031217,-0.00942477515
92560.959004,0.175750842,-0.0673856747,0.0668784286,0.0143166502,-0.0200047116,0.00163773051
92560.969030,-0.109995013,0.0444261477,-0.692025046,0.0104947482,0.0538346232,-0.00185420668
92560.979056,-0.435998333,-0.0401375474,0.0729451813,-0.00912582494,-0.00320762214,-0.00892889431
92560.989082,-0.30181125,-0.0759889053,0.299034741,0.0187279117,-0.0376433595,0.0031778363
92560.999109,-0.0567399908,0.05306887,-0.161516486,0.0113672,0.000972209108,-0.00420311397
92561.009135,-0.114227381,0.0169636836,0.153621477,-0.0104387625,0.0215003867,-0.0132626549
92561.019161,-0.206466725,0.111994796,0.13237586,0.00690667152,-0.00543429101,-0.00524068182
92561.029187,-0.203905569,0.131538066,0.0533748039,0.0112188627,-0.0275739483,-0.00250641467
92561.039213,-0.101615892,-0.0497201262,-0.000476613304,0.0119253994,-0.0056225765,-0.00526811206
92561.049239,-0.179984723,-0.0787367062,-0.199450203,0.0182565321,0.0211523105,-0.00660768268
92561.059265,-0.263656401,-0.139212766,0.127836463,0.00187489491,-0.00190933099,-0.010996572
92561.069292,-0.153365067,-0.12402475,0.264286084,0.00167435881,-0.0242567151,-0.0104775217
92561.079318,-0.121395848,0.167825331,-0.390066298,0.0112982244,0.0176385366,-0.00171838538
92561.089344,-0.166530637,0.320001002,-0.00141593998,-0.00139999429,0.0304358252,-0.0126139105
92561.099370,-0.0960807434,0.189617951,0.534116001,-0.0153078855,-0.0208671592,-0.00229954464
92561.109396,-0.143059672,0.252624442,-0.0252673557,0.0096605812,-0.0214836798,-0.0126954608
92561.119422,-0.0514907924,0.188742045,-0.487010422,0.0199185443,0.0156676829,-0.0102528085
92561.129449,-0.172581681,-0.0613725701,0.0657906333,-0.00438519653,-0.00203940905,-0.0219912243
92561.139475,0.0312817541,-0.0442669389,0.158387084,-0.00108660517,-0.0251468583,-0.0202977203
92561.149501,0.242723223,0.0568971231,-0.174687517,0.0231803861,-0.00218987772,-0.0116142177
92561.159527,0.298045608,-0.0512783337,-0.128667524,0.0358863269,0.0154722067,-0.00982856681
92561.169553,0.402455794,-0.25539641,0.439295445,0.0415649843,-0.0336575224,0.00453412602
92561.179579,0.179807387,-0.273660764,0.269972313,0.0348226596,-0.0199275962,0.0105025365
92561.189606,0.0523521882,-0.131689275,-0.00847988702,-0.0223290417,0.013941688,0.00578101794
92561.199633,0.125739669,0.0739295064,0.468155628,-0.0847695152,0.0189851825,0.00176017754
92561.209659,0.0287688123,0.359644117,0.0206339793,-0.122751517,0.0490157888,-0.0112818547
92561.219684,-0.0992055061,0.463018639,-0.705305967,-0.0324141662,0.0170141779,-0.0141388935
92561.229711,0.0316177902,0.0422686043,-0.805898093,0.107710982,-0.0146524064,0.000357490724
92561.239737,-0.00883133459,-0.116347548,-0.2002849,0.151480289,-0.0565135717,-0.0120933198
92561.249764,0.111085213,-0.403636586,0.708255593,0.101186769,-0.105233708,0.00404410459
92561.259790,0.384709965,-0.279112326,0.232019306,-0.00163308582,-0.00957855167,0.00646518426
92561.269816,0.468047808,0.0103209028,-0.210211835,-0.066664813,0.0589911849,-0.00450677262
92561.279841,0.151919282,-0.0532735992,-0.0912633842,-0.110830149,0.0570204467,-0.00318264892
92561.289868,-0.0482354256,0.116499669,0.0573828705,-0.106475344,0.017558793,0.00332185509
92561.299894,0.446916136,0.105555684,-0.00207411163,-0.0298724453,-0.0277279946,-0.00121404068
92561.309921,0.429572896,0.278481499,-0.667625348,0.0508913752,0.0143464882,0.0173742908
92561.319947,0.260346539,0.065096376,0.10420775,0.0568744336,-0.0107902899,-0.0187181991
92561.329973,0.434639423,-0.321009997,0.839768342,0.0460646619,-0.0732062622,0.00679967715
92561.339998,0.229429222,-0.122664074,-0.0524955544,0.00133553993,0.00393246343,-0.00514779543
92561.350025,0.204381272,0.132976921,-0.194812021,-0.027463885,0.0514688254,-0.00122868759
92561.360051,0.167941081,0.00118014951,0.17520261,-0.0266830455,0.0148088135,0.0134096432
92561.370078,-0.110407338,0.11543036,-0.0425493299,0.00877907507,-0.0223569307,0.00735441385
92561.380104,0.205644497,-0.00665901968,-0.146663784,0.0347808507,-0.0257340852,0.00753391091
92561.390130,0.113653793,0.0108102024,-0.0282343888,0.00605652535,0.03963933,-0.00677951542
92561.400155,-0.0753078401,0.221841382,0.275517087,-0.0449901465,0.0264678658,-0.00619042316
92561.410183,-0.274482094,0.186145014,0.46512196,-0.0544302519,-0.012929874,-0.010701285
92561.420208,-0.337007871,0.338070327,-0.453559988,0.0273650084,-0.0121860528,0.00595092796
92561.430235,-0.180575967,0.0499133104,-0.46197535,0.0625757296,-0.015197556,-0.00714383578
92561.440261,-0.0947740812,-0.0634816712,0.312512062,0.0399873276,-0.0286787427,-0.00119433297
92561.450287,0.256551166,-0.0364770522,0.392289363,-0.011321932,0.00871470147,-0.022127311
92561.460314,-0.171242724,0.160413484,-0.0919601343,-0.0174464042,0.0339795784,-0.0137902864
92561.470340,-0.217014075,0.0428414175,-0.241577864,0.0168985222,-0.00101009737,-0.00281966036
92561.480365,-0.157439367,-0.252792584,-0.00793102096,0.0613469464,-0.0468827798,-0.012503979
92561.490392,-0.11386937,-0.265264454,-0.291350488,0.0682879408,-0.000169071061,-0.0027299116
92561.500418,-0.242845194,-0.181113487,0.292766913,-0.0217069294,0.0126417991,-0.0104876992
92561.510445,-0.224506404,-0.0131166349,0.659982269,-0.0996874775,0.0170224332,-0.00602131268
92561.520471,-0.0822281774,0.166452125,0.0805153243,-0.0869842003,0.0369111881,-0.00828792831
92561.530497,-0.192781917,0.187239239,-0.618517326,0.00479738282,0.0174722396,0.00461801583
92561.540522,-0.166433204,-0.0276620054,-0.14083084,0.0196706039,-0.0214679684,0.00180119019
92561.550549,-0.0286691855,0.0126603969,0.275311336,-0.0128708267,-0.00410389159,-0.0105518822
92561.560575,0.23292059,0.280280018,-0.0226434369,-0.00540545343,0.0325031192,-0.00613449724
92561.570602,0.186834509,0.221328063,0.0246864695,0.0132904696,0.0151837864,0.00291758752
92561.580628,-0.0259946874,0.0951147169,0.281038481,-0.00704276508,-0.000446039759,-0.00585566392
92561.590654,-0.156187485,0.0622701396,0.122244342,-0.00257557856,-0.0164527032,-0.00675474783
92561.600681,0.0474224949,0.0100437846,-0.358536018,0.00283969318,0.00596472151,-0.000586333924
92561.610707,0.283981773,0.0163838561,-0.0731934745,-0.0218502077,0.0105893011,-0.0139556688
92561.620732,0.363805197,0.12487163,-0.0367070336,0.00410629258,0.0160072357,-0.00771135395
92561.630759,0.38479198,0.0983827605,-0.173578679,0.0185797755,-0.000639651478,-0.00325428812
92561.640785,0.0878687976,-0.138575582,0.129456758,0.00635613089,-0.0164827961,-0.010600352
92561.650812,0.207827832,-0.163575108,-0.0746255531,0.0123839295,0.00659402642,-0.0037775992
92561.660838,0.137423477,-0.076396591,0.237352484,-0.0264683943,0.0156391863,-0.0136526015
92561.670864,0.145398246,0.158228431,0.299083841,-0.0218254383,0.0109885088,-0.00229075668
92561.680889,0.195746989,0.0963015703,-0.0567941283,0.00526130533,-0.0310897041,0.00393278454
92561.690917,0.275064435,-0.113501219,-0.315635034,0.0370179062,-0.0218930091,-0.00282924739
92561.700942,0.254001993,-0.124123497,-0.304173144,0.0206091014,0.0262281806,0.00131889176
92561.710969,0.16477838,-0.106079983,0.276130251,-0.0334778334,0.0109594804,-0.0066351716
92561.720995,0.28871483,0.0401614029,0.468604541,-0.0448386128,-0.00653535737,0.0133755549
92561.731022,0.166090631,0.322528767,-0.258716046,-0.0273317899,0.0266998265,0.0019588496
92561.741048,-0.108517387,0.356786864,-0.24273288,-0.0152844497,0.0222832416,0.00545744388
92561.751074,-0.0599141456,0.200342941,0.245671984,0.0082062288,-0.0165661532,0.000857366009
92561.761099,0.266487873,0.181903267,0.123723767,0.00519978635,-0.0115743247,-0.00102655427
92561.771127,0.260686037,0.151718702,-0.0494034336,-0.00429544777,0.00323018777,-0.00827248325
92561.781152,0.124196523,0.204239784,-0.233748194,0.00549486473,0.0220363666,-0.00809591567
92561.791179,0.148205951,0.153511504,0.0369573376,-0.000664494159,-0.00118346912,-0.00833719713
92561.801205,0.0619582209,-0.0764010298,0.154880537,0.0111183953,-0.00520191299,-0.00438639825
92561.811232,-0.125840525,-0.183144134,-0.132364041,0.0472423118,-0.0321142241,-0.00930312579
92561.821258,0.024550263,-0.285017276,-0.193885554,0.0661270563,-0.0217318866,0.00481908465
92561.831284,-0.159008169,-0.221007471,0.0535782175,0.0317933132,-0.0119202692,0.00413811416
92561.841309,-0.186426995,-0.212739957,0.161169408,-0.0265019517,0.0126284831,3.92428995e-05
92561.851337,-0.129312055,-0.0912515573,0.215572029,-0.0310892443,0.00715968195,0.00785135919
92561.861362,0.0119068627,0.0423088267,0.0280153217,-0.0271216686,0.0180152584,0.0055109735
92561.871389,-0.113865954,0.0567538056,0.0366469564,-0.012464961,0.00251459652,0.00723244086
92561.881415,-0.105808274,0.11354376,0.0420204662,-0.00687684996,0.00594821009,0.006480098
92561.891442,-0.194960923,0.210547926,0.0313459274,-0.0355356577,0.00694423211,0.00505823618
92561.901468,-0.260795349,0.237379198,-0.0851422709,-0.0185268465,0.00324084047,0.00517488247
92561.911494,-0.207510973,0.13936854,-0.342081143,0.0116092163,-0.00772898602,0.0144152527
92561.921519,-0.16271243,-0.0443604806,-0.144525019,0.0106422222,-0.00696998513,0.00731260212
92561.931547,-0.166500351,-0.108487957,0.15281659,-0.00035317063,0.00456816,0.00141742895
92561.941572,0.0907116472,0.0690765683,0.324878207,-0.0109288496,-0.00372226075,-0.00508467877
92561.951599,0.0168350216,0.240257713,0.110280932,0.00745175507,-0.0100930748,-0.00598749077
92561.961626,0.0152736723,0.252677762,-0.235644967,0.0116331848,0.00346374694,-0.00318451343
92561.971652,0.00122006729,0.10232337,0.113473591,0.00401281573,-0.00998068931,-0.0154611536
92561.981678,0.0744822052,0.026556254,-0.0786453101,0.0100581917,0.00795490151,-0.00396535197
92561.991704,0.0891187064,-0.0431613705,0.0906006649,-0.0114055555,-0.000885727624,-0.0117108908
92562.001731,0.0727922976,0.0031015095,0.162092368,0.00409137884,-0.0230405643,-0.0139498089
92562.011757,0.261404524,0.0226551367,-0.518578696,0.0202114937,0.00152709622,-0.00268091006
92562.021782,0.221265662,-0.100056959,-0.0766497524,0.0114448993,0.00511384146,-0.00793665765
92562.031810,0.331872255,-0.143358798,0.303426839,-0.00835330591,0.00300168847,0.00318736559
