t,ax,ay,az,gx,gy,gz
94097.089743,-0.0346053928,-0.038553326,-0.0176539405,-0.000932259867,-0.00281828959,0.000767351394
94097.099771,-0.0582390741,-0.0423538279,0.000930348421,-5.28840207e-05,-0.00317701735,-0.00129526734
94097.109799,-0.0738677281,-0.0112799593,-0.00950745896,-0.00468332219,-0.00290377709,-0.00265933826
94097.119826,-0.0644323027,-0.00925514808,0.00756759448,0.00121078579,-0.000806537836,-0.00281539905
94097.129854,-0.0790127629,-0.0152256099,-0.0212920048,-0.00230378789,-0.00215143422,0.0016358083
94097.139882,-0.0820979425,-0.0319328667,0.00835728355,-0.00237516049,-0.00172080091,0.00221850796
94097.149910,-0.184733703,0.0549399091,-0.0258939456,0.00307020484,-0.000259524591,0.00243688681
94097.159937,-0.184318181,0.0556210461,-0.0258606279,0.00821889433,-0.00814727499,0.000547107575
94097.169965,-0.25719542,-0.0153701741,-0.0679806907,0.00294929728,-0.0101763382,-0.00263829875
94097.179993,-0.352138361,-0.11806034,-0.0868391204,-0.00392458766,-0.0201783701,-0.00639415506
94097.190021,-0.43627678,-0.136756538,-0.0637668724,-0.000596435191,-0.0191293526,-0.00747007198
94097.200049,-0.501858674,-0.0912614823,-0.0411061278,0.00527716669,-0.0266839414,-0.00764743864
94097.210076,-0.567282894,-0.142762911,-0.0552416207,0.0258066753,-0.023386415,-0.00585619706
94097.220104,-0.58582729,-0.145308175,-0.0550364535,-0.00420208872,-0.0212239287,-0.00032774053
94097.230132,-0.582035642,-0.183468376,-0.00983771383,-0.00720027593,-0.0138813275,0.00209280642
94097.240160,-0.658260438,0.065231344,-0.012258219,-0.00481940937,-0.008862866,-0.00206518705
94097.250187,-0.657637777,0.0652211057,-0.0122015204,0.00436902846,-0.00616029036,-0.00703491151
94097.260215,-0.663890042,0.0571187692,-0.0660313102,0.00740556474,-0.00242467449,-0.012872827
94097.270243,-0.675155386,-0.0307288657,-0.0709471393,-0.00278981464,-0.00127844993,-0.0152299914
94097.280271,-0.689265964,-0.0573270914,-0.0619267975,-0.00633368307,-0.0068492502,-0.019279327
94097.290298,-0.78221985,0.0198155184,-0.115266758,0.00427741612,-0.0111683643,-0.0225960274
94097.300326,-0.844361687,0.0652939746,-0.132974849,0.0145353792,-0.0123643912,-0.0206529868
94097.310354,-0.914902957,-0.00475657172,-0.122652192,0.0147638792,-0.0219786669,-0.0186215264
94097.320382,-1.02697677,-0.113216654,-0.161949599,0.0132983407,-0.0264887306,-0.0168212314
94097.330410,-1.08945661,-0.180879365,-0.176671367,0.00703218914,-0.0288594774,-0.0179416199
94097.340437,-1.13681815,-0.225219588,-0.187186331,0.00417914483,-0.0311159733,-0.0177778375
94097.350465,-1.16420753,-0.185890763,-0.149522079,-0.00418611002,-0.0282631963,-0.0216213127
94097.360493,-1.18777524,-0.0900899269,-0.0716362906,-0.00233574576,-0.0211509577,-0.0243971233
94097.370521,-1.18023732,0.0475450222,-0.0119115975,0.000247520479,-0.0169479567,-0.0323056464
94097.380548,-1.2278068,0.213406077,-0.0590468582,-0.00256770701,-0.0151007882,-0.0358074379
94097.390576,-1.26636574,0.289854982,-0.0671483315,-0.000114935716,-0.0162198487,-0.045592956
94097.400604,-1.35147198,0.41554003,-0.17831855,0.0193663543,-0.0221951827,-0.0540357118
94097.410632,-1.40832346,0.421299726,-0.274789796,0.0355964551,-0.0230535193,-0.059168685
94097.420659,-1.39397081,0.0970667761,-0.0423610963,0.0218795786,-0.0256301276,-0.062980998
94097.430687,-1.4900703,-0.158978261,-0.132648101,0.026498566,-0.0348193663,-0.0653448214
94097.440715,-1.59569721,-0.316217006,-0.418735326,-0.00083532077,-0.0406711306,-0.0692088043
94097.450743,-1.58629079,-0.455884821,-0.138406811,-0.0340755669,-0.0358305666,-0.0688039993
94097.460770,-1.43935631,-0.310565081,0.129874124,-0.0288778743,-0.0211842469,-0.0759876107
94097.470798,-1.41841172,0.158232581,0.072723665,0.0251510056,-0.0175668745,-0.0784260069
94097.480826,-1.46173239,0.0984337993,-0.0264322903,0.025576579,-0.00123077948,-0.0783524995
94097.490854,-1.37316973,-0.306025172,0.0755878223,-0.000790047026,0.00723594249,-0.0731630658
94097.500882,-1.27966697,-0.498466876,-0.179954627,0.00130000183,0.0170161352,-0.0703952422
94097.510909,-1.22700601,-0.47821385,-0.370238129,0.0130511993,0.00197300335,-0.0611844321
94097.520937,-1.31454569,-0.629146681,-0.144594559,-0.0201232651,0.00476372996,-0.055119883
94097.530965,-1.21290953,-0.540891073,0.471289852,-0.0274578774,0.0044753096,-0.0505610814
94097.540993,-1.38169819,0.0405732013,-0.0259453835,0.00590194444,-0.000627307135,-0.0519342085
94097.551020,-1.26036314,0.353327867,-0.415479539,0.00442815068,0.00659039206,-0.0507397798
94097.561048,-1.02765248,0.0551737726,-0.223559375,0.00581778827,0.00807004431,-0.0416703855
94097.571076,-1.09169431,-0.178238824,-0.288237307,-0.0139473941,0.00364227276,-0.0449652483
94097.581104,-1.11155906,-0.234420163,-0.176224208,-0.00111841478,0.0157772322,-0.042855758
94097.591131,-0.838795796,-0.16979957,-0.0299388371,0.0128069879,0.0265268163,-0.048957858
94097.601159,-0.804146215,-0.019228087,-0.116715203,0.0178760482,-0.000116246433,-0.0423268561
94097.611187,-1.00122931,-0.183549625,0.0105100777,-0.0301601863,0.000711197702,-0.0345794519
94097.621215,-0.83553979,-0.0261890441,0.637655304,-0.036116348,0.00173704731,-0.0433593613
94097.631243,-1.01958812,0.760410173,0.0805299548,-0.0205722744,0.0105624963,-0.0570922156
94097.641270,-0.96651814,1.07796206,-0.624327456,0.0890801908,-0.00218578885,-0.0512569656
94097.651298,-0.880879619,0.502009084,-0.883395741,0.0275947215,-0.00334133432,-0.0589313989
94097.661326,-0.697123911,-0.370434114,-0.0517572857,-0.0613418086,-0.0101843271,-0.0547172089
94097.671354,-0.645167075,-0.456489875,0.213061525,0.00542710218,-0.00913157864,-0.0517041122
94097.681381,-0.716310403,-0.103270868,0.407953398,0.0538191372,0.0268011224,-0.0450858881
94097.691409,-0.603165305,-0.349100527,0.767695642,-0.0447614988,0.0350193699,-0.0483975296
94097.701437,-0.699846833,-0.109727323,-0.399363686,-0.0134789445,0.0158744381,-0.0467234661
94097.711465,-0.757161834,0.405485559,-1.18398437,0.0295569306,-0.0138343199,-0.0402132754
94097.721492,-1.05434241,0.0425745814,-0.632933372,0.00734403645,-0.0248992219,-0.0300458593
94097.731520,-0.76113841,-0.28419222,0.814723351,-0.0391433029,0.0042996766,-0.0228188408
94097.741548,-0.673814712,-0.145674406,0.799436934,-0.00270806547,-0.0157238337,-0.0152059297
94097.751576,-0.638762469,0.0241857054,0.221721217,-0.0308438292,0.0351017994,-0.0317012814
94097.761604,-0.224117326,0.378005578,0.341279325,0.0863456415,0.0357582663,-0.0133486397
94097.771631,-1.02618328,0.205881252,-1.32209988,-0.0149735207,-0.0300577655,-0.0309952793
94097.781659,-1.52110754,-0.148483673,-1.6804153,-0.0809280364,-0.00613032785,-0.000281841229
94097.791687,-0.085418246,-0.0912184925,0.196917031,-0.019273193,0.0210661386,-0.0271573958
94097.801715,-0.107545249,0.742319659,0.300520029,0.0029034811,-0.019773703,-0.0197764446
94097.811742,-0.603413507,0.323411964,0.688554885,0.000544985724,-0.000164314087,-0.0269326267
94097.821770,-0.666312081,0.607368606,0.656091124,0.0819820525,0.0147501864,-0.0218254809
94097.831798,-0.637774408,0.590673492,-0.574304657,0.00549713391,0.00870587685,-0.0309769024
94097.841826,-0.669982587,-0.0449700338,-0.820438057,-0.122712502,-0.0191065799,-0.0220803467
94097.851853,-0.40914773,0.102455346,0.3556685,-0.0626038885,0.00161787341,-0.0270332915
94097.861881,-0.54412684,0.693879892,1.20269742,0.0273781983,0.0304143672,-0.0141324091
94097.871909,-0.47885708,0.911652728,0.160764937,0.141108497,0.0299626944,-0.0316155289
94097.881937,-0.766161572,0.851020638,-2.23767451,0.0507903123,-0.043509921,-0.0481897106
94097.891965,-0.838335047,-0.578092566,-1.04125348,-0.0799229605,-0.0322921555,-0.0102915975
94097.901992,0.0420935968,-0.761838703,1.60332346,-0.127945871,0.0446529594,-0.0254282055
94097.912020,-0.0907300156,0.909390263,1.2137893,0.0363772871,-0.0148146301,-0.0171186102
94097.922048,-0.988024527,1.42062297,-0.804433848,0.11055564,0.0277509392,-0.0492696238
94097.932076,-0.357840518,0.657750228,0.297084794,0.101346961,0.0116808937,-0.0198307743
94097.942103,-0.34672145,-0.971029954,-0.419437921,-0.0525176985,-0.0105908568,-0.0114724438
94097.952131,-0.673881201,-1.1814734,0.130229513,-0.104671986,0.0270361473,0.0117607073
94097.962159,-0.664421665,-0.615788529,0.346687906,-0.0210375371,-0.0249234567,0.0151961849
94097.972187,-0.799886658,0.456967215,-0.992339515,0.00629501705,0.0265509189,-0.01671328
94097.982214,0.175868226,0.630010719,0.867090667,0.054997577,-0.0211572143,0.00981979564
94097.992242,-0.70891854,-0.397349959,0.603225211,-0.0120549625,0.0208959636,0.0293295796
94098.002270,-0.92451542,-0.203989625,0.777143854,0.0305494914,-0.018994728,0.0359254333
94098.012298,-0.759752289,0.575219062,-1.01893818,0.119002117,0.0973989946,-0.0180898679
94098.022326,-0.0577482949,0.366989678,0.190645696,0.109410747,0.0442319122,0.0263210091
94098.032353,-1.28466844,-1.46242077,-2.32555387,-0.0273838503,-0.0437229741,0.0697707425
94098.042381,-0.557206687,-1.69802694,-1.6249319,-0.211953954,-0.0401146579,0.0616190771
94098.052409,-0.288502778,-0.714055865,1.00830999,-0.175899552,-0.0177734009,0.0893010388
94098.062437,0.043337021,0.115682511,1.8220042,0.00580206568,0.0129498896,0.0849140177
94098.072464,-0.106465345,0.519078328,1.74996948,0.0898724632,0.0548954775,0.0993350337
94098.082492,-0.226162057,0.0831116722,0.697686871,0.162758394,0.0740521309,0.0838902931
94098.092520,-0.733070253,0.111715571,-1.71300883,-0.078152494,0.0218246077,0.0501965138
94098.102548,-0.965767322,-0.319658561,-1.45534807,-0.0712421252,0.0346570519,0.0819488506
94098.112575,-0.0418047297,0.0522108906,-0.497978958,-0.0762549875,0.062917715,0.0671704377
94098.122603,-0.0726850212,0.581960609,0.89649504,0.010646355,0.0116412119,0.0870836939
94098.132631,-0.685317007,0.663283897,-0.166414761,0.0370894136,-0.0036189667,0.0393390733
94098.142659,-0.330810399,0.51442568,0.302941118,0.176883011,0.0092337151,0.090150852
94098.152687,-0.0581006155,-1.34449568,-0.244526175,-0.0834883986,-0.0127730499,0.0651906396
94098.162714,-0.188621869,-1.49502131,0.535546928,-0.0860612853,0.0319352989,0.099371251
94098.172742,-0.0693731201,-0.938321717,0.283749511,-0.0772427557,0.0217300654,0.0759452845
94098.182770,-0.993194258,0.602952288,-1.55774403,0.0923049958,-0.0421511772,0.0863462652
94098.192798,-0.539739346,0.199545967,-0.539136313,-0.0889550759,0.0519612078,0.0648036863
94098.202825,0.76867944,-0.338589544,1.50813582,-0.102727608,-0.0150524507,0.106380161
94098.212853,-0.499693605,0.118506993,-0.555463179,0.0985056372,0.0321166609,0.0752368833
94098.222881,-0.189603135,0.952787506,0.111332505,0.0846026005,0.00814554756,0.0628183002
94098.232909,-0.0772426114,-0.570472301,-0.0496816484,-0.0327421291,0.0638207924,0.0811371173
94098.242936,0.412980335,-1.21730262,0.480088076,-0.199615793,-0.0437687802,0.102204319
94098.252964,-0.718556794,-0.392856703,-0.648870946,0.0547008986,0.00270843794,0.128793579
94098.262992,0.143872959,0.650800044,0.499511154,0.0137358881,0.0638998878,0.0640737082
94098.273020,0.0422213879,0.815967591,-0.811763168,0.0672664853,-0.0491542275,0.0834346305
94098.283048,-0.618927522,-0.0659109689,-2.32192106,-0.136999295,-0.0539471152,0.0519185143
94098.293075,0.184225939,-0.551587568,1.73899684,-0.134212018,-0.012773849,0.11477444
94098.303103,0.503203188,-0.474713002,2.64831767,0.0433928506,0.0756369737,0.101604309
94098.313131,0.24806289,1.01717676,0.89039497,0.136601626,0.0709404928,0.0561659898
94098.323159,-0.36728515,0.680158459,-1.97280017,0.13930261,0.0372850579,0.0695294629
94098.333186,-0.370892088,-0.921684616,-2.14978697,-0.140350343,-0.0425197574,0.0808702673
94098.343214,-0.391463898,-1.61690626,-0.135964678,-0.299476878,-0.00892531491,0.118409392
94098.353242,0.637050883,-0.221612467,2.22431659,-0.131788821,0.0776093137,0.102111642
94098.363270,1.04145827,2.05892292,0.639410038,0.16853693,0.0573937875,0.042740729
94098.373297,-0.546612958,2.41988097,-1.76234248,0.204687475,-0.0481800417,0.0278238284
94098.383325,-1.16063728,-0.0420030052,-0.812205651,0.0073935707,0.00421099327,0.0453644733
94098.393353,0.693884969,-1.060729,1.44807561,-0.0984998433,0.0189888739,0.0547816793
94098.403381,0.557683551,-0.576057115,0.561654598,-0.0246346681,0.0470751059,0.0951378907
94098.413409,0.0131219885,0.194795521,0.0749430946,0.0907592984,0.057839336,0.0499890524
94098.423436,-0.271556831,0.844845968,-1.49518967,0.0346757905,-0.0589296239,0.0316976647
94098.433464,-0.460712863,-0.575966368,-1.07206538,-0.0385305112,-0.0167917608,0.080259871
94098.443492,0.413968177,-1.03394161,2.04311247,-0.05757744,0.0239697845,0.0682255815
94098.453520,0.108959686,0.172986589,1.56152021,0.032605982,0.0147658997,0.0697289373
94098.463547,-0.569401129,0.378650561,-0.614173727,0.148332848,0.0103863311,0.0672290216
94098.473575,-0.147786147,-0.218972053,-1.31379791,0.0589225428,0.0337624942,0.0732791985
94098.483603,0.224278183,-1.27799331,-1.63233019,-0.191902758,-0.0921743977,0.0938664938
94098.493631,-0.484683595,-1.06755746,-0.392845682,-0.191112326,0.0101184175,0.0675637836
94098.503659,0.505952267,0.626187727,2.82668335,0.0145721208,0.0443277863,0.0567066113
94098.513686,-0.16024377,1.3662297,0.72333043,0.187385975,0.00492844926,0.0406014102
94098.523714,-0.71905561,1.10603227,-1.04187073,0.200564636,0.00408103116,0.0474755618
94098.533742,-0.246071676,-0.477388395,-0.930284918,-0.00359170224,-0.0218110195,0.0466318729
94098.543770,-0.258841726,-1.26149897,-1.25130726,-0.140707479,-0.068646701,0.0642798434
94098.553797,-0.242767155,-1.10297284,0.632769285,-0.080747479,0.0297251419,0.0605671297
94098.563825,0.264648918,0.00257309532,2.56094684,0.104270047,0.0246366394,0.0615034963
94098.573853,-0.894599005,0.235534559,-0.2539399,0.0106546111,-0.00970322444,0.0600329007
94098.583881,-0.675468763,0.00542938893,-0.99516977,-0.0575710474,-0.0132556147,0.0405718501
94098.593908,0.081719797,0.167094992,-0.888392234,-0.0780451683,0.00968432249,0.0471615757
94098.603936,-0.16140032,-0.0067667699,-0.0286721782,0.0943063633,-0.0238821599,0.0872333611
94098.613964,-1.09539382,-0.466383894,0.176518971,0.0449329564,-0.0076834838,0.0628963302
94098.623992,-0.569087533,-0.774030514,0.586921142,-0.168589176,-0.0192330795,0.0495869147
94098.634020,-0.0572037397,-0.683433713,0.541939844,0.00312985023,0.0498072413,0.0835635255
94098.644047,0.313125876,0.271873007,-0.691721077,0.140760957,-0.0218174121,0.0630497227
94098.654075,-1.29732217,-0.0945600946,-1.95668724,-0.0757095752,-0.104858236,0.0818055759
94098.664103,-1.33190102,-1.43137828,0.842652391,-0.286761091,0.00726057924,0.105380941
94098.674131,0.628786401,0.398655165,2.07886884,-0.0183754409,0.0466436726,0.0746645744
94098.684158,0.639639073,2.17139414,-0.82898026,0.250578268,0.0484346469,0.0659592266
94098.694186,-0.721977343,0.843429233,-0.0932150852,0.0851562755,0.00511114168,0.0423415194
94098.704214,-1.32581746,-0.758195013,-0.0308273104,-0.106199571,-0.00337502119,0.0536192099
94098.714242,-0.477963858,-0.78997956,-1.0909127,-0.117210002,-0.0039417794,0.0959893505
94098.724270,0.147933487,-0.179093212,0.299843152,0.0311738724,0.0737604705,0.0802993367
94098.734297,0.163782798,0.738497543,0.211021544,0.0401162343,-0.0491388197,0.0380751791
94098.744325,-1.09399586,0.252297679,-0.949277203,0.0701529669,-0.0387687366,0.0876499231
94098.754353,-0.29444795,-0.994696953,1.41998057,-0.0813156528,0.0208269508,0.0867311324
94098.764381,0.2154945,-0.391319447,1.16876241,-0.0742106078,0.0575101283,0.0771466832
94098.774408,0.268326364,0.394174878,-0.425152207,0.0533649275,0.0277359896,0.0805816318
94098.784436,-0.738043877,-0.344172386,-0.213943405,-0.116674976,0.0603812841,0.0895705934
94098.794464,-0.173962572,-0.923171932,-0.0388755923,0.00982650611,0.0232903735,0.119998541
94098.804492,-0.185410506,0.0587057553,-2.49508509,0.0709351363,-0.00125704651,0.0682679678
94098.814519,-0.200940887,-0.603492015,0.362036866,-0.0746867819,0.0154950359,0.0932814444
94098.824547,0.258045867,-1.44225857,1.46324279,-0.0919304801,-0.0257911514,0.109867346
94098.834575,-0.0974759827,-0.289861279,0.555664418,0.0689963536,0.059747452,0.125686255
94098.844603,0.12145143,0.153399425,-0.491681319,-0.102540517,-0.0105890296,0.109966945
94098.854631,-0.214442393,0.330420966,-1.48162058,-0.170458586,-0.00108154435,0.0810524787
94098.864658,0.932161153,1.0579598,0.357518512,0.109080656,0.0361912605,0.102681335
94098.874686,0.647619915,0.914187069,0.225995241,0.164121537,0.00749276913,0.0796612392
94098.884714,-0.476607183,-0.225351324,0.772132163,0.0314585665,0.00432627051,0.0706054236
94098.894742,-0.363956297,-1.31754732,1.07915053,0.0139850328,0.0526317527,0.0970705937
94098.904769,0.204637517,-1.18475308,-0.900480731,-0.0492538562,-0.0144705865,0.113392841
94098.914797,-0.506464049,-0.666826204,-1.64077712,-0.174857856,-0.0115810567,0.0681747611
94098.924825,-0.00724479994,0.424843426,-0.45022352,-0.104418041,-0.0844541955,0.0925328324
94098.934853,-0.284847762,0.824252385,0.365752672,0.0864347281,-0.0116393798,0.0996429364
94098.944881,0.488686295,0.868580187,1.97198668,0.271409913,0.0399005097,0.0995712991
94098.954908,0.250700472,-0.14569638,0.430975962,0.0436057733,-0.00183628421,0.0734635333
94098.964936,-1.00095948,-1.38456787,-0.154744197,-0.177896516,0.0275000335,0.108639632
94098.974964,-0.120350735,-0.984324758,-1.13625816,-0.0736886276,0.00835403529,0.121126656
94098.984992,0.248983001,0.595515817,-1.19164394,-0.0186709141,0.0133527891,0.0852669294
94098.995019,-0.347380937,0.639647585,0.484308324,-0.0568132414,-0.032691935,0.0619916993
94099.005047,-0.0430140325,0.667069042,-0.0851457605,0.0683377521,0.000202099413,0.0932201932
94099.015075,0.585548805,0.0887057842,0.853601655,0.180963366,0.0275847224,0.102450978
94099.025103,-0.347003263,-0.378439872,0.824183253,-0.104338685,-0.0231487638,0.0408376793
94099.035131,-0.902813364,-0.420460165,-0.281134197,-0.168773593,0.0172926691,0.0702304507
94099.045158,0.546543294,0.214484008,-1.30919422,0.0988911377,-1.78776981e-05,0.100062121
94099.055186,0.0378239567,0.519011802,-1.0546665,-0.100272299,-0.0419107321,0.0496197197
94099.065214,-0.325004782,-0.137732461,2.0756604,0.0604372198,0.0147525464,0.075325344
94099.075242,0.0954237666,-0.0647058811,1.5119545,0.131902082,0.0680107084,0.0335035997
94099.085270,-0.598592006,0.113623194,-1.88674218,0.0344943019,-0.0853021461,0.0632636214
94099.095297,-0.860136033,-1.51750086,-2.56299952,-0.189056502,-0.00276040091,0.0858291204
94099.105325,1.01193568,-0.929033079,1.59777401,-0.179337026,-0.0317715461,0.0805041308
94099.115353,-0.40966927,0.610573028,1.05076849,0.0130361482,-0.0209141056,0.0752507786
94099.125381,-0.442468255,1.43866716,0.936194598,0.253458603,0.0407801513,0.0694032724
94099.135408,0.00915257344,0.807692953,-0.476756722,0.0348985704,-0.012473748,0.035509758
94099.145436,-0.814714225,-0.502464129,-1.63219634,-0.144004331,-0.0642346832,0.0810740481
94099.155464,-0.22114664,-0.677148057,-0.453721299,-0.125590177,0.0123479777,0.0542051497
94099.165492,0.126322397,0.759917421,0.916236683,0.03881901,-0.0318988468,0.0453607927
94099.175520,-0.678041317,0.656762971,0.467353097,0.212958856,0.0386272539,0.0608412142
94099.185547,0.209869353,-0.187021923,0.443532077,-0.0468287816,-0.0258193816,0.0297847579
94099.195575,-0.510199509,-0.690163898,-0.806385567,-0.165718154,-0.0380403603,0.0565652403
94099.205603,-0.567519626,-0.131043248,0.13528855,0.141908108,0.0491001327,0.0676698203
94099.215631,-0.201495964,1.192455,-0.525972296,0.083584352,4.5771797e-05,-0.00372872568
94099.225658,-0.426793643,0.136471735,-1.32877044,-0.2808349,-0.0650360229,0.0227944947
94099.235686,0.213569596,-1.257546,1.57015301,-0.221313239,0.019226391,0.0883410166
94099.245714,0.541740789,0.827058455,2.6870323,0.265741898,0.111485479,0.0411439429
94099.255742,-0.40304956,2.61044387,-1.96582682,0.33982466,-0.0675428602,-0.0432857198
94099.265770,-1.92276702,0.00564038306,-2.83102502,-0.164836378,-0.095048787,-0.048483148
94099.275797,-0.454276839,-2.39692778,2.32061716,-0.130862163,-0.0108196595,0.0345478247
94099.285825,0.821215318,-0.942392254,1.57245194,0.0882917555,0.0587463696,0.0601716938
94099.295853,-0.511368115,-6.19293636e-05,-0.0689866529,-0.0207372619,0.000546712398,0.0258059989
94099.305881,-2.05974388,0.0811716989,-2.36800828,-0.138805048,-0.085132772,0.0246741551
94099.315909,-0.213152207,0.0671711986,-1.32916675,0.0297123311,0.037000062,0.0620276521
94099.325936,0.0730287602,0.106695925,0.443409912,0.081259145,-0.093620533,0.0328979942
94099.335964,-1.45231925,0.123716125,-0.108710176,0.0164681641,-0.0249021891,0.0252925384
94099.345992,-0.270661635,-0.885594847,2.58636477,-0.0710944397,0.025465645,0.0766883532
94099.356020,-0.255292947,-0.57960962,0.485411317,0.144225328,0.019543307,0.0844408165
94099.366047,-0.822954157,0.735786166,-2.0070549,-0.0399607582,0.011461678,0.0132830146
94099.376075,-1.23081972,-0.176783565,-0.448827682,-0.0769366188,-0.00606245446,0.0739953632
94099.386103,0.0546947928,-0.33088708,-1.48889671,-0.232438059,-0.00297664982,0.0351715351
94099.396131,-0.0496066357,0.91004522,1.40458485,-0.0459376885,-0.0122076989,0.0631997104
94099.406159,-0.783143321,0.772611629,2.12465093,0.220700397,0.0806657803,0.0510405156
94099.416186,-0.178209489,1.54492199,0.0175833771,0.128932117,-0.024118686,-0.0317654197
94099.426214,-0.990063778,0.726525512,-1.79222557,-0.0468974909,0.0142872921,-0.00314069978
94099.436242,0.269645046,-0.920653227,0.540005077,0.0324351476,0.0427482297,0.0437178875
94099.446270,-0.420518508,-0.180697505,-0.0255216052,0.0223516194,0.0307687969,0.0258121232
94099.456298,-1.4917096,0.0710033378,-0.433946339,-0.131811322,-0.0507202017,0.0171904045
94099.466325,-0.281249226,0.0958672916,-0.454187747,-0.137008743,0.0611762387,0.024332736
94099.476353,0.363641792,1.10274893,0.205525285,0.287143065,-0.0244545116,0.0465166013
94099.486381,-1.18309877,0.91445193,-3.15554455,0.0621363135,-0.149448106,-0.0275874508
94099.496409,-1.28590645,-0.74261407,1.48430837,-0.25458117,-0.0411445404,-0.00988994792
94099.506436,0.571934633,-0.776173518,4.46528058,0.00848746913,0.079583211,0.0321112986
94099.516464,0.0467419341,0.878178109,-1.52851735,0.192112698,-0.0288647058,0.052401122
94099.526492,-2.26307639,0.567231388,-3.31545455,-0.184170933,-0.12271397,0.00359070654
94099.536520,-1.97070278,-0.578027392,0.474367945,-0.0869298665,-0.0302335712,0.00827014659
94099.546548,0.48812435,0.27084107,0.462908393,0.203061475,-0.0299997459,0.0504021535
94099.556575,-0.509100389,-0.503474073,0.704749649,-0.00219180683,-0.0404396038,-0.0254950074
94099.566603,-1.77260188,-0.49364362,0.709764846,-0.123366432,-0.0416801031,-0.0213785579
94099.576631,-1.58057621,-0.449491284,-0.339076098,-0.118359425,-0.0047923931,0.012470484
94099.586659,-0.667100601,0.655785723,-1.43257978,-0.153682531,0.0207329412,-0.0268606764
94099.596687,-0.258604775,2.00978348,-0.0708039314,0.0416211883,0.044554649,-0.0529186425
94099.606714,0.0425839376,1.76883888,0.252574036,0.265706493,-0.00789577412,-0.0521857401
94099.616742,-1.69212053,-0.21777055,0.0148787943,0.02752268,-0.0190333798,-0.0557136272
94099.626770,-0.752677163,-1.38958409,1.36011559,-0.143784629,0.0874587056,-0.0428833177
94099.636798,0.787241298,-0.606691213,0.394737359,0.0881490098,0.0945757386,-0.0233724673
94099.646826,-0.127038835,0.11990274,-1.82838176,-0.11405869,0.0216594544,-0.049142014
94099.656853,-1.09622406,-0.161315563,0.194249858,-0.00992722475,0.0425234568,-0.0111256546
94099.666881,-0.0890072835,0.597926605,-0.275929029,-0.0910108922,-0.000483398239,-0.0563072448
94099.676909,-0.073020829,0.884628673,0.933267897,0.142337947,0.0730776397,0.00104738752
94099.686937,0.333009995,-0.158807818,0.767347851,0.140562146,0.0797115696,-0.019519407
94099.696965,-0.411415237,-0.396302642,-0.772080561,0.0714523183,0.00958601394,-0.00837167978
94099.706992,-0.66833007,-0.926782012,-2.92581751,-0.168265463,-0.0801505315,-0.034324452
94099.717020,-0.435480734,-0.882616707,0.252030431,-0.070754954,0.0269328021,0.00879453801
94099.727048,0.822359446,-0.423750877,2.33412137,0.147807746,0.0187182818,0.0545636232
94099.737076,-0.266467691,-0.449142069,0.283758864,0.00654782503,0.037948968,0.00138083034
94099.747103,-0.678666609,-0.479149779,0.165446372,0.0543281274,-0.0580316241,0.0411945547
94099.757131,-0.510455603,-1.01607745,-1.49728167,0.0761045279,0.0483222474,0.0405431467
94099.767159,0.617672009,-0.95483278,1.14479526,-0.0130309364,0.0569317137,0.0362472015
94099.777187,-0.736347302,-1.33790958,-1.17047958,-0.194552795,-0.140171761,0.0784745554
94099.787215,-1.25236834,-1.25711301,-0.985350972,-0.208888323,0.0931688157,0.114454124
94099.797243,1.31021537,0.697947945,2.61456386,0.145826085,0.00711702052,0.0630567114
94099.807270,-0.445842773,2.33376628,-2.49694621,0.164437322,-0.0201231222,-0.0200781224
94099.817298,-0.888156259,-0.106034533,0.961372294,-0.101390363,-0.00499210638,0.00762700828
94099.827326,0.551671305,-1.24972685,2.07893898,0.0320273513,0.0719071981,0.0824008475
94099.837354,0.445155269,-0.370135204,-0.813264805,-0.129731448,0.0194876698,0.0273943211
94099.847381,-0.443676535,0.875353919,-0.471761982,-0.0257374099,0.0830005986,-0.015239692
94099.857409,0.142559685,1.36083194,-0.792819983,0.110311239,-0.074511798,-0.0189569329
94099.867437,-1.608481,0.306853043,-1.4088856,-0.0657852305,-0.0321875083,-0.0136567081
94099.877465,0.390096668,-0.204131335,1.77089829,-0.0346422246,-0.00141494852,-0.0162511614
94099.887493,0.525655916,0.42415643,0.809958328,0.02249004,-0.0322277228,-0.0320152116
94099.897520,-1.50839667,0.529290729,-0.478541852,-0.0385078019,-0.0584185812,-0.0450849381
94099.907548,-0.327386708,1.04008154,-0.551129534,-0.15394278,0.0209412222,-0.124259915
94099.917576,1.01097487,1.22555267,0.739799919,0.160438313,0.0290244502,-0.0402049643
94099.927604,-0.888707609,0.343594737,-1.02985121,0.108557543,-0.0163728594,-0.073847342
94099.937632,-0.65358156,-0.0977991404,-1.38702272,-0.0103331547,0.00553590161,-0.0873024275
94099.947659,0.519876236,-1.14825677,1.43372969,-0.0911033688,-0.0254262759,-0.0505268422
94099.957687,-0.0996597565,-1.29027806,0.989261002,-0.096139939,0.0384704155,-0.0133866637
94099.967715,0.795539755,0.197112456,1.532238,-0.12986009,0.0623517801,-0.066062655
94099.977743,-0.120102752,1.47493704,0.306335437,0.178475379,0.0764002186,-0.0256406699
94099.987771,-0.837782162,1.30210166,-1.51188478,-0.0201189382,-0.0158823057,-0.113641362
94099.997798,-0.647347707,0.507165115,-1.30229043,-0.241107242,0.0232597702,-0.0762258132
94100.007826,0.360086657,-0.588367146,1.95703928,-0.00270293132,0.0995611978,-0.049106579
94100.017854,0.621005611,1.65621014,-1.56460398,0.316124334,-0.0224006585,-0.107266817
94100.027882,-1.58706309,1.22748876,-3.84549373,0.151094093,-0.145062664,-0.14280777
94100.037910,-0.527464533,-1.59636353,-0.125279033,-0.249889554,-0.0579485315,-0.160768393
94100.047937,0.989193392,-0.893596294,2.98680903,-0.1040703,-0.0420499946,-0.115054968
94100.057965,0.768593004,0.141388477,1.60550256,0.101654364,0.0958801788,-0.0378722993
94100.067993,-0.368183998,0.709190858,1.15511675,0.0426858539,0.00734312282,-0.0993260701
94100.078021,-1.62034124,1.48977556,-2.02678427,0.157373814,0.0156505872,-0.11825129
94100.088049,0.127328067,0.48718696,-1.43430528,-0.00823298507,-0.00233001067,-0.116065372
94100.098077,0.404094287,-0.618943851,0.465685456,-0.0301494686,0.0186165498,-0.0848459338
94100.108104,-0.675173652,-0.764442163,0.668460192,0.0973839896,-0.0127797219,-0.0404497084
94100.118132,-0.345151863,-0.338419741,-1.66737637,-0.0703424303,-0.0318551454,-0.0680704151
94100.128160,0.408545056,-0.285534648,0.901034437,0.0468374552,-0.0206333845,-0.0326527727
94100.138188,-0.344584292,-0.384225141,0.482616718,-0.0519205457,-0.0237388964,-0.0512754579
94100.148216,-0.321143503,0.831714829,0.0261162276,0.0753764199,-0.0252739432,-0.066868264
94100.158243,-0.182280537,0.406628153,-0.832491483,0.101597904,0.00579129913,-0.00949232347
94100.168271,-0.234922506,-0.738918211,-0.233638286,-0.139829622,-0.107137116,-0.0191430857
94100.178299,-0.108086516,-0.554944915,1.15910787,-0.04283251,0.0833265689,-0.00592475358
94100.188327,0.8888681,-0.0568262748,2.46447267,0.159993304,0.0479949434,0.00713405692
94100.198355,-1.2122488,-0.00428388987,-2.47190295,0.0680125194,-0.0650184247,0.00219202906
94100.208382,-1.23840185,-1.10696775,-1.58374473,-0.19821784,-0.00951788193,-0.0175294762
94100.218410,0.999680591,-1.0572473,1.53532135,0.0261340445,0.0201521275,0.0403937439
94100.228438,0.845455733,-0.622746239,-0.15372596,-0.208868624,0.0111077671,-0.00528133355
94100.238466,-1.15621354,0.214102224,0.935691909,0.109150095,-0.0346227045,0.0609275143
94100.248494,-0.959091059,0.276550515,-1.32533228,0.13738413,0.0219910406,0.00406929132
94100.258521,1.12320987,0.153439483,-0.291465036,-0.0665998919,-0.00213906207,-0.0333752853
94100.268549,0.753113476,-1.12298913,0.425479118,-0.0497759035,0.019578483,0.0133032699
94100.278577,-1.01473667,-1.0719188,0.223656569,-0.125901551,-0.0927113089,0.0410523417
94100.288605,-1.06680946,-0.294906068,-0.380109535,0.111841491,0.0885990989,0.0739027004
94100.298633,1.47078061,0.355283531,1.6435333,0.0844468834,0.0577005689,-0.0233492849
94100.308661,0.410917776,0.0971920556,-0.82448821,-0.133095296,0.0102592838,-0.00182348463
94100.318688,-0.829120644,-1.64798982,0.149307138,-0.0465050092,0.0400139821,0.100097027
94100.328716,-0.271445991,0.0620670484,-1.62026917,-0.132804216,-0.0890409368,-0.0156447577
94100.338744,-0.454597084,1.74109908,-0.635261523,-0.0353154702,-0.0160950924,-0.0335561146
94100.348772,0.847373695,-0.118936091,3.61911792,0.209685235,0.0898656976,0.0657065551
94100.358800,0.749525754,-0.29941476,0.521902434,0.0328265639,0.0107498393,-0.000441836859
94100.368827,-1.86270476,0.400216204,-2.30924395,-0.000927934339,-0.0576774235,0.00456011182
94100.378855,-1.68013563,-0.371310313,-2.77080932,-0.0647697685,-0.00499610129,-0.00532740607
94100.388883,1.07352682,-0.0952761065,0.434056977,-0.0649394108,-0.0267927441,-0.0159976256
94100.398911,-0.205173629,-0.514951306,0.948351484,0.092541291,-0.0911107454,0.0591080415
94100.408939,-0.819038445,-0.15589078,0.928513396,0.123048334,0.0918412265,0.00239522828
94100.418967,1.12517934,0.451440086,2.0942745,0.0294850996,0.0231673588,-0.0303004009
94100.428994,-1.12877382,-0.644576598,-2.71984778,-0.169069008,-0.0280577446,0.0452958236
94100.439022,-0.625679919,-0.585596878,-1.21066955,-0.0719632296,-0.0312609951,0.0490910935
94100.449050,0.537002801,0.669558813,1.23655702,0.0698511587,0.067542283,0.00775404115
94100.459078,0.356090134,0.582673798,1.82254547,0.120169459,-0.0513681266,0.0269391875
94100.469106,-0.952338662,-0.123406021,-0.683385794,-0.112618515,-0.0426441449,-0.0145121168
94100.479133,0.026386763,-0.123323156,2.65496485,0.236956535,0.165073371,0.0915480072
94100.489161,1.08062599,0.253644052,-0.24516798,0.187680333,0.153238004,0.00864113987
94100.499189,-0.767648888,0.698361421,-5.63794531,-0.00770594544,-0.16671283,-0.00490849066
94100.509217,-1.50424964,-1.48635169,-3.08191701,-0.34570928,-0.0254835337,0.0340921732
94100.519245,1.06245481,-0.819238826,4.05523263,-0.338548021,-0.0683045033,-0.0176330728
94100.529273,1.1601998,0.883213035,2.69997303,-0.00785268555,0.0879865718,0.0485387522
94100.539300,1.10040336,1.36761853,1.95701999,0.183761223,-0.0200357716,0.0339552837
94100.549328,-0.872781068,2.097026,-2.53540716,0.226325719,-0.0225111785,0.0177938922
94100.559356,-0.540685249,0.875652975,-2.08043286,-0.0097557813,-0.0257312077,-0.0624588725
94100.569384,0.792498196,-0.784312108,1.00587136,0.0243971297,-0.0109165738,-0.00537907119
94100.579412,0.00905700411,-1.64827141,1.90757295,-0.0375535911,0.0167065301,0.0167169089
94100.589440,-1.25502879,-0.603570268,-0.0844840818,-0.211171181,-0.0542573909,-0.0347611976
94100.599467,-0.393414155,1.23460151,-2.55368107,-0.162534939,-0.0522573571,-0.0646855344
94100.609495,0.522752449,1.92644454,-0.684268423,0.245119913,-0.017953446,-0.0208408532
94100.619523,0.176871923,0.21740954,1.88177274,-0.0110138584,0.00847123758,-0.0864102726
94100.629551,-0.677266898,-0.0436953468,1.43701646,0.360767169,0.00916978539,-0.0230392923
94100.639579,-0.483492047,-0.696364653,-2.298162,-0.159603597,-0.0190059262,-0.140014384
94100.649606,0.473034771,-0.844851479,0.103130494,-0.155265303,0.0343768691,-0.0582063344
94100.659634,1.2076149,-0.640159512,1.19822816,-0.0477961091,0.104272334,-0.0623632592
94100.669662,-0.263312442,0.324378873,0.860549867,0.0986178281,0.0215771851,0.00652898688
94100.679690,-0.523434181,0.551780209,-0.835584189,-0.148110466,0.0558880215,-0.0797369217
94100.689718,0.759025404,1.51929158,1.17251855,0.185915722,0.0712328908,-0.0695324873
94100.699746,-0.414708872,0.82901938,-1.91300124,0.146199195,0.00611993307,-0.0568971259
94100.709773,-0.194536354,-0.106269091,-2.57116821,-0.212671073,-0.120440671,-0.0753006299
94100.719801,0.255143277,-1.01420807,1.36407456,-0.0542826032,0.0200025142,-0.0080090833
94100.729829,1.07863452,-0.0581372204,3.3108329,0.191766037,0.0472863336,-0.0542796401
94100.739857,-0.277643969,1.20876835,-0.7504363,0.113956204,-0.0175773519,-0.0892735754
94100.749885,-0.86556383,0.011110243,-1.78636223,-0.0872775776,-0.0337219666,-0.0636592989
94100.759913,0.570324494,-0.63293599,0.0270093771,0.144857659,0.065299688,-0.0180318912
94100.769940,0.926482815,-0.0291933633,-0.0767134478,-0.197913007,-0.0815800372,-0.0806915497
94100.779968,-1.17541143,-0.793332377,0.706132043,-0.045684324,0.0412529428,0.037379172
94100.789996,0.433989878,-0.0130829399,0.951374047,0.02572408,-0.0632476303,-0.0477948447
94100.800024,0.0289070752,1.83518898,-0.934806779,0.168609066,0.049499685,-0.0740213876
94100.810052,1.06614833,0.12005647,0.643890983,0.0279544784,-0.025833683,-0.0660031472
94100.820080,-1.10811871,-1.35016218,-0.58171698,-0.00731989034,-0.0551383103,0.0112887139
94100.830107,-1.04261792,-1.04869384,-1.38830984,-0.304749177,-0.0367704871,-0.0449774859
94100.840135,1.02657605,1.16747041,0.840671446,-0.0341222076,0.0301885736,-0.0973437612
94100.850163,0.92612063,1.81076065,0.461790787,0.340659662,-0.0476905125,-0.0398248022
94100.860191,-0.941719872,-0.355777557,0.143446137,-0.117099391,0.0255019423,-0.0930643265
94100.870219,0.500620405,-0.655899298,2.30715854,-0.103273058,-0.00179119725,-0.0646297519
94100.880247,-0.145479112,0.31754161,-1.77693214,0.173173724,0.0231756718,-0.0824308579
94100.890274,-0.0717582617,0.757395501,-1.81646686,0.00405500325,0.00813653422,-0.0971600001
94100.900302,0.907235532,-0.683375407,1.04130157,-0.0199976018,0.0189343207,-0.0812350993
94100.910330,0.579048703,-1.11928962,0.982667011,0.0691511767,0.0293805693,-0.00633209079
94100.920358,-0.270500746,-0.533082847,-0.471351063,-0.111589575,-0.0560898575,-0.0894730573
94100.930386,-0.963298374,0.323108999,-0.90539773,0.0696859421,0.0350552333,-0.0383890939
94100.940414,1.14185984,-0.149593762,0.834359194,-0.0865958048,0.00857036383,-0.0747375076
94100.950441,1.38466855,0.475009177,0.0418860437,-0.0502804047,0.0438039844,-0.0650430803
94100.960469,-0.0215614215,0.154138151,0.796597911,0.0854225593,-0.023037631,-0.0544178632
94100.970497,-1.15448708,0.229211823,-0.234234498,0.191482423,0.0350853261,-0.0573063267
94100.980525,-0.0224533289,-0.970054314,0.341261789,-0.321493284,0.0133816303,-0.107893068
94100.990553,0.935069587,-1.46608061,-0.290449137,-0.0443572713,0.0176080671,0.0107195967
94101.000581,0.246835029,0.0968967077,-1.55825607,0.00765586327,-0.00913992422,-0.0884682422
94101.010609,-0.928674951,1.62106619,-0.173455328,0.421095385,-0.0425519439,-0.080865178
94101.020636,-0.0711278548,-0.89539611,-0.432786647,-0.104042971,-0.038997421,-0.0854343658
94101.030664,0.93424943,-1.96936507,1.6655955,-0.254885749,0.0243266896,-0.078900296
94101.040692,1.12958561,-0.375319,0.628333348,-0.0490478961,0.0518081133,0.0103014803
94101.050720,-0.332171824,1.25390491,0.0599354951,0.177882983,0.0531953555,-0.026768658
94101.060748,-0.585116511,1.94246702,-0.857738153,0.101679026,0.0107016909,-0.0795940493
94101.070776,0.976925666,-0.00393884843,0.504716321,-0.0784441395,0.0593320784,-0.0505296474
94101.080803,0.51201902,-0.691478926,0.80905758,0.0679186644,-0.04119586,-0.0166441162
94101.090831,-0.886563363,0.13321645,-2.30302698,0.222833945,-0.0187222435,-0.00109312098
94101.100859,0.375125455,-0.730745573,0.206805388,-0.141921387,-0.0489350091,-0.0474848521
94101.110887,-1.00391439,-1.36594047,1.22460939,-0.0605626045,-0.0810972023,0.0352166856
94101.120915,-0.116733056,-0.236632871,-1.14358982,-0.152436332,0.00221233288,-0.00953294497
94101.130943,1.28886717,1.53053793,1.1008889,0.00339134372,0.0366342236,-0.0362108943
94101.140970,-0.111541041,1.35111338,-0.428572244,0.173838972,-0.0679513085,0.0193559605
94101.150998,-1.59337286,0.161746872,-0.437525366,-0.0115436645,-0.000993314229,-0.0258421411
94101.161026,0.858809939,0.139612481,1.62674817,0.0408566954,0.0796493349,-0.0579279062
94101.171054,0.873312292,-0.311497978,-0.577023269,0.0901755007,-0.0225406847,-0.00171337064
94101.181082,-1.18419913,-1.33710293,-1.64427022,-0.0890768109,-0.0555718708,-0.00904026042
94101.191110,0.220233803,-0.799811291,1.03549668,-0.118532435,0.0482693073,-0.041290607
94101.201138,1.40826746,-0.175592255,1.26642784,-0.00412596125,0.0415528138,0.0365983325
94101.211165,-0.724993476,0.292647426,-0.851920991,-0.0676532773,-0.0234099402,-0.0211962589
94101.221193,-0.598472836,1.88695366,-1.60712678,0.0481787907,-0.00389296367,-0.0884197687
94101.231221,1.42298747,1.0965042,0.552661729,0.206963642,0.00864599747,-0.0159783268
94101.241249,0.322563055,-1.34439192,1.79720586,-0.113937148,0.0462082867,-0.00552861552
94101.251277,0.0960988163,-0.530891876,1.22024184,-0.0132656632,0.00386642208,-0.0372892094
94101.261305,0.161916127,0.156869019,-2.01774464,0.164486481,0.0660307241,0.0196033682
94101.271332,0.629150266,-1.12577358,0.626365263,-0.166604088,0.0658131448,-0.0189823729
94101.281360,0.326128054,-0.86817551,-0.593401572,-0.10896583,-0.00248974413,0.0272128193
94101.291388,0.140925654,-0.086474385,-1.90981735,-0.0201568579,-0.0382402855,-0.0112983544
94101.301416,-0.245489858,0.851017788,1.28801014,0.0281582089,-0.0180620457,-0.0402655562
94101.311444,0.211886684,0.28863335,1.88797276,0.138214408,0.0193702803,-0.00470063902
94101.321472,0.390554495,-0.183704852,0.105543985,-0.247671784,0.00563769051,-0.0498116573
94101.331500,-0.416579561,0.4388588,-0.603351888,0.258933617,-0.0216192304,0.049660072
94101.341527,0.361493674,0.124880209,-2.56412823,0.150815679,-0.00486315359,-0.0178358813
94101.351555,-0.178721822,-0.818665702,0.843742524,-0.116410957,-0.0537611897,-0.0255249587
94101.361583,-0.845717412,-1.72009468,1.54614845,-0.0106283346,0.0235607644,0.041417856
94101.371611,0.543470536,-0.0941006512,-0.898363009,-0.0910227759,-0.0339075866,-0.0162153484
94101.381639,0.364354908,0.595008343,0.340395528,0.0567970449,0.0606149231,0.0380209948
94101.391667,-0.119535254,0.0502805572,0.724038871,0.0157095292,-0.0378027278,0.0340153317
94101.401695,-1.49215179,0.52286413,-2.44782182,0.0212907163,-0.0194138679,0.0381323139
94101.411722,0.692697074,0.0546635809,0.47363437,-0.215865911,0.00105092829,-0.0270671954
94101.421750,0.932764891,0.0824127484,2.67929265,0.276782407,0.0399903377,0.0764762427
94101.431778,-0.513694439,-0.370723453,-0.144602158,0.209771677,0.03503819,0.0349074903
94101.441806,-0.452190461,-0.78238472,-0.382977199,-0.0914928256,0.00317906038,0.0271883181
94101.451834,-0.193457473,-1.46411706,-2.01830052,-0.188521908,-0.0801872033,0.0781242068
94101.461862,-0.26192939,-0.569847447,0.0243410346,-0.104654172,0.067484012,0.0699453692
94101.471890,1.17501853,0.598176707,2.29798038,-0.0160087193,-0.0204072259,0.0446778315
94101.481917,-0.798846648,0.759391717,-0.99776797,0.255580975,0.0734327194,0.0700364525
94101.491945,0.0936499618,0.0158886318,-0.408343111,-0.0797392292,0.0332610627,0.0077941141
94101.501973,-0.188256324,-0.808285543,-2.87254887,-0.0370082757,-0.149734596,0.0964289124
94101.512001,-0.323080389,-1.25553291,-1.00081041,-0.0795658616,-0.0423122588,0.0559930692
94101.522029,0.739945951,-0.53275387,4.7073533,0.072902775,0.000764638505,0.0537301789
94101.532057,0.108829557,-0.651760883,0.834349842,-0.264620142,-0.028922418,0.0777074213
94101.542085,-0.626928969,0.275473972,0.333542008,-0.0461431867,-0.00065535892,0.0534382987
94101.552112,-0.488916994,2.08043464,-1.94465894,0.225885658,-0.0495749655,0.0553895946
94101.562140,-0.665270317,0.504829329,-0.247089888,0.143351375,0.0315502492,0.0503732676
94101.572168,0.271014654,-1.59340424,1.1836648,-0.0212428955,0.0189215374,0.0361344109
94101.582196,-0.808737854,-2.12161607,-2.11193333,-0.131955834,-0.0665323752,0.0434714186
94101.592224,-0.290244142,-1.35615206,-0.724372469,-0.131523327,0.013828775,0.0503990988
94101.602252,0.538032071,-0.985288635,2.38775125,-0.130460472,0.027958708,0.0838894213
94101.612280,-0.0174900804,-0.154818785,1.5365015,-0.0936574428,0.0402968657,0.0722157176
94101.622307,-0.206286048,1.2080724,0.0881018514,0.12231773,0.0820589644,0.0691695924
94101.632335,-0.36494487,1.13165997,-1.94464082,0.123319073,-0.0164257995,0.0506731386
94101.642363,-0.706665281,0.0669451348,-3.02087363,-0.0967552302,0.0137297056,0.0155979751
94101.652391,0.930956015,-0.894205877,2.04704046,-0.0565609386,-0.00281917714,0.0486952069
94101.662419,0.602769843,-0.682928102,2.55475442,0.105387478,0.102116829,0.0657125379
94101.672447,0.356625922,-0.164870881,1.80322995,0.0192339575,0.0888612104,0.0662092234
94101.682475,-0.406183766,0.119285047,-2.32792001,-0.0614688782,0.00828194347,0.0707150216
94101.692502,-0.313140814,0.419980168,-3.21649031,-0.0671020014,-0.0244610905,0.0637412707
94101.702530,0.665917423,0.548500603,0.256884301,-0.0738246156,0.0752130431,0.0462882447
94101.712558,1.23713728,0.491026356,2.79204984,0.0255166205,0.0188754649,0.0490448813
94101.722586,-0.301460971,0.843322338,0.388105958,0.144466786,0.0215609522,0.052803647
94101.732614,-0.284194705,0.934154483,0.0840768337,-0.00776003572,0.0688887817,-0.00614489123
94101.742642,0.514030725,0.559832473,-1.75697364,-0.118106247,-0.0808658245,0.0357538204
94101.752670,-0.183186473,0.386864591,-2.70557142,-0.0895276008,-0.0609363223,0.00743643128
94101.762697,0.0248461825,1.06669643,1.39179142,0.279780133,0.0144007784,0.00562388383
94101.772725,0.640685367,0.218544499,1.51794352,0.161100356,-0.0318663175,-0.030891515
94101.782753,0.1683881,-0.926083217,1.20349587,-0.0492685972,0.0639571455,-0.00091870382
94101.792781,0.4766024,-1.17355196,0.542215154,-0.229166196,-0.0388640407,0.00724175413
94101.802809,-0.157560741,0.176464768,-2.09701341,-0.123326847,0.0492285361,0.0253784138
94101.812837,0.864657788,1.5586565,-0.047761494,0.104533217,0.0223359317,-0.0348135528
94101.822865,0.309096109,1.34277664,0.122966829,0.232562019,0.0104739471,-0.0302459669
94101.832892,0.348143851,-0.89097274,0.915325413,-0.0481854877,-0.0261636934,-0.0205344835
94101.842920,0.534589456,-1.64620337,1.4920942,-0.201300742,0.0387077165,-0.0221515537
94101.852948,0.880976543,-0.355179591,-0.0477007038,0.0402146825,0.0770455134,0.0501676502
94101.862976,0.341660773,0.608981814,-2.1931088,-0.0742573006,-0.049045572,-0.0347317939
94101.873004,-0.348814185,1.09981836,-1.86792057,-0.0518025955,-0.0431320201,-0.0434954574
94101.883032,0.800172895,-0.109711742,1.68519744,0.0857600631,0.0254534279,0.00879943677
94101.893060,1.20135694,-0.273201437,1.59897403,-0.00068508185,0.0126572066,-0.0380895098
94101.903087,0.529844307,0.492300577,0.0877113908,0.0266181776,-0.00743874061,-0.0345107538
94101.913115,1.08801025,-0.510592636,0.826500882,0.0129468409,0.147447517,-0.0287830901
94101.923143,1.06981635,-0.208644812,0.7816663,-0.0460957078,0.0121746418,-0.0175562703
94101.933171,-0.269633827,0.0744831793,-3.22894355,-0.0146949062,0.0244382323,-0.0232104284
94101.943199,1.33113789,0.427963166,-0.954906149,-0.129972504,-0.00375558893,-0.0598983986
94101.953227,1.27213406,0.272536548,1.75977367,0.0128131505,0.0408963022,-0.0418951658
94101.963255,1.06725914,0.514165531,1.22082987,0.134669809,0.031856468,-0.0428227444
94101.973282,0.988789926,0.586524775,0.0932585035,0.104190736,0.0408528914,-0.065316606
94101.983310,0.940981003,-0.800596304,-0.106427033,-0.049636112,-0.0107796759,-0.0308531669
94101.993338,0.458465709,-1.52721605,-0.0717584557,-0.00974595399,0.00845260834,-0.0326049958
94102.003366,1.0933777,-0.261839208,0.398674113,-0.0331311723,0.0671326947,-0.0638683771
94102.013394,1.1787222,-0.205567889,0.628117075,0.109050206,-0.0250944345,0.00146908619
94102.023422,-0.0589643196,-0.781926821,-0.468547697,0.0304565938,0.0484069494,-0.0152952464
94102.033450,1.15148041,-0.800495547,0.403743672,-0.186312468,-0.0081303631,0.00403024842
94102.043478,0.859524079,-0.94910768,-0.338598544,0.124604924,0.0478918944,0.0773103203
94102.053505,0.952926658,0.272913821,-1.77419366,-0.0251062693,0.00158910928,-0.0322462653
94102.063533,0.677554523,0.619132548,-0.268820658,-0.126343147,-0.0257290657,-0.00718165908
94102.073561,1.43353385,-0.22323267,1.0318101,-0.0547989173,0.0143334,0.00562201933
94102.083589,1.55568914,0.997060363,1.14843683,-0.0303098181,0.0537061077,-0.0436898691
94102.093617,1.31457152,1.63705798,1.63679552,0.300001754,0.0615139623,-0.0181315129
94102.103645,0.468960288,0.255976422,-1.41322392,0.124291478,0.0875439626,-0.044852074
94102.113673,1.56243335,-0.837895449,-0.435532147,-0.189313845,0.02870355,-0.1237357
94102.123700,1.60576308,-0.815999625,0.128430355,-0.146824719,0.0751123262,-0.0616646108
94102.133728,1.38816663,-0.244697592,0.711360007,-0.0044220294,0.0822352153,-0.0443439406
94102.143756,1.7074392,0.917985876,0.866642923,0.0563305342,0.0988424254,-0.0686245148
94102.153784,1.95620295,0.936483364,0.907390528,0.0997384624,0.139417818,-0.0770113354
94102.163812,1.84186389,0.551729173,-1.0417094,0.0770323487,0.0596260485,-0.061596967
94102.173840,1.6870068,-0.390365763,-1.73183452,-0.0471183596,0.0441341755,-0.0827991848
94102.183868,1.7666596,-0.698531037,1.30338833,-0.0634211687,0.0610250068,-0.100036759
94102.193896,1.83621961,0.00151812235,1.67761911,-0.0064718648,0.0754271132,-0.138205725
94102.203923,2.10214404,0.721207167,0.831768593,0.10486318,0.135458505,-0.157215643
94102.213951,2.21607028,0.384371423,0.66238584,0.0463639187,0.152956804,-0.181820843
94102.223979,2.32985594,-0.0739716718,-0.411314236,-0.016498133,0.141626379,-0.195271406
94102.234007,2.39241264,-0.259939403,-0.657045485,-0.0285875531,0.13423424,-0.181649346
94102.244035,2.2632371,-0.445382059,0.597903723,0.0674321862,0.128793931,-0.149461049
94102.254063,2.26062195,-0.489581193,0.335619984,0.0107774302,0.0997068864,-0.133669827
94102.264091,2.25938247,-0.722453764,0.107685673,0.0210345952,0.0841715989,-0.0945735608
94102.274119,2.25340457,-0.91283817,-0.0153082542,0.0186446743,0.068778528,-0.0702594255
94102.284146,2.25296501,-0.78972427,0.103375993,-0.0220779883,0.052356152,-0.0660902445
94102.294174,2.25181058,-0.682169173,0.578954108,-0.046400105,0.068904495,-0.0570299101
94102.304202,2.35468701,-0.441773038,0.472197615,-0.0278466618,0.0681803805,-0.043926358
94102.314230,2.44643269,-0.141395532,-0.0635850861,-0.0120653011,0.0691369903,-0.026382785
94102.324258,2.42814242,-0.143727537,-0.118990162,0.0137258159,0.0334325266,0.00877067473
94102.334286,2.12060456,-0.334185136,-0.19240845,-0.0413073426,0.00800732718,-0.00142097633
94102.344314,1.97735768,0.175336422,0.521061307,-0.019813768,-0.005583316,-0.0115239431
94102.354342,2.09865664,0.35102043,0.488058032,0.04210073,-0.00510847467,-0.00456137556
94102.364369,2.20640828,0.212679151,0.208607469,0.022181884,-0.00637747059,-0.0137151924
94102.374397,2.24800797,-0.0220448387,0.118881605,-0.0278874071,-0.00567279841,-0.0158292108
94102.384425,2.29599079,-0.20006867,0.243134008,-0.0354366688,-0.000106791646,-0.0169149802
94102.394453,2.31449061,0.143929403,0.440162893,0.0241219984,0.00695404698,-0.0185656079
94102.404481,2.30377735,0.167719974,0.247060241,0.0615018593,0.00403708694,-0.0189190094
94102.414509,2.24095791,-0.324572344,-0.0424341615,0.0175186904,-0.0188834089,-0.0180300472
94102.424537,1.94188713,-0.876134287,-0.235066857,-0.0341642102,-0.0401671249,-0.00425564471
94102.434565,1.88220292,-0.911507359,0.152683921,-0.0234857345,-0.0387958641,0.00873525467
94102.444593,1.8484443,-0.586750212,0.50658153,-0.0191591637,-0.0370067525,0.0112838999
94102.454620,1.70131604,-0.323686647,0.356336608,-0.0268016359,-0.0378917213,0.0100290182
94102.464648,1.62998859,-0.0911593736,0.118037555,-0.0197024489,-0.0498647596,0.0132296051
94102.474676,1.48806902,0.0889269983,-0.0606893647,-0.0120376045,-0.0654511768,0.00813364637
94102.484704,1.42788401,0.256967497,-0.011390204,0.00611822921,-0.0715921613,0.00701272235
94102.494732,1.46490295,0.215848922,0.157679245,0.0102530537,-0.0767501759,0.00836294543
94102.504760,1.31612781,0.0663477397,0.235823392,0.00191869083,-0.084203029,0.00609419801
94102.514788,1.12800981,0.0197987042,0.0718246703,-0.00505745961,-0.0974397379,0.00519857675
94102.524816,0.963416634,0.0619842198,-0.116858996,-0.00541139386,-0.109592276,0.00204832366
94102.534844,0.798759594,0.0828679631,-0.0790193866,-0.00650462174,-0.122131767,-0.00180367261
94102.544871,0.585585265,0.0771125414,0.0289885682,0.00162307985,-0.134019041,-0.00643411066
94102.554899,0.429722722,0.105525758,0.0200483059,0.0148163797,-0.138128841,-0.0088698377
94102.564927,0.416772859,-0.0108398372,0.0172256497,0.00511261969,-0.13676689,-0.0075414532
94102.574955,0.390627706,-0.137035382,0.0915955387,-0.030648041,-0.129000584,-0.00632811684
94102.584983,0.383807724,0.055288686,0.141226123,0.0538468683,-0.121266777,0.00157215054
94102.595011,0.38727708,0.0187657604,-0.198168329,0.0254136311,-0.0907426867,-0.0027514917
94102.605039,0.57515659,-0.449143092,0.504650855,-0.0248135863,-0.0766103583,0.00496794729
94102.615067,0.512312523,-0.490730144,0.370624662,-0.0439529283,-0.0407418366,0.0101890744
94102.625095,0.629676993,0.0526969388,0.275199709,-0.0191349289,-0.0274385474,0.0112578015
94102.635123,0.474488039,0.42520477,0.0965575451,0.0237741886,-0.00561340983,0.00594639246
94102.645150,0.496929441,0.377972881,0.190411302,0.0281023575,-0.00116193612,-0.0015914186
94102.655178,0.372235286,0.0221907048,0.209959468,0.0113113938,0.00850507253,-0.00732573654
94102.665206,0.289127307,-0.206183792,0.0315528657,0.000768471477,-0.00304585617,-0.00803839948
94102.675234,0.119807097,-0.328140522,-0.227381564,-0.0247496715,-0.0147725538,-0.00362474165
94102.685262,0.0839981172,-0.2309022,-0.117958481,0.00216822893,-0.0224773455,0.00170371056
94102.695290,-0.0201546235,-0.0802660593,-0.0995822822,0.0113987453,-0.0286755859,-0.00149953898
94102.705318,-0.0756286734,-0.157261794,0.0475190811,-0.0138679952,-0.0288364421,0.000232846742
94102.715346,-0.0591011708,-0.14034068,0.0865844326,-0.0219693309,-0.0312668401,0.00572801315
94102.725374,-0.0778569439,0.0805569006,-0.0657343731,-0.0237925215,-0.0268782116,0.00358292394
94102.735402,-0.0856373686,0.333106588,0.0334607451,-0.0121893952,-0.0268276109,0.00311234341
94102.745430,-0.109478482,0.492572051,-0.0365912807,0.0275098147,-0.0269929933,0.00127636016
94102.755457,-0.149085685,0.383921268,-0.0307834712,0.02804884,-0.0243143848,-0.0052169596
94102.765485,-0.091250094,0.0841971659,0.0965008464,0.0162979072,-0.0225377902,-0.00852939926
94102.775513,-0.0813952741,-0.145733169,0.0181263979,-0.00884366539,-0.0147648239,-0.00851768136
94102.785541,0.00583511945,-0.176269551,0.0269141,-0.0105763184,-0.00640782426,-0.00712404839
94102.795569,0.000340613692,-0.0321204228,-0.0122243167,0.0266059382,-0.00600329033,-0.00304754797
94102.805597,-0.054909126,-0.145065763,0.0332918183,0.0178436065,0.000184298812,-0.00295327205
94102.815625,-0.02992951,-0.353694175,0.180414809,0.00258023021,-0.00532844468,-0.00629207745
94102.825653,-0.0883059303,-0.470149786,-0.0362306307,-0.018862476,-0.000727035019,2.81364517e-05
94102.835681,-0.037287983,-0.381624421,-0.0164463183,-0.031851781,-0.00190122254,0.00414778039
94102.845709,-0.0584907839,-0.0800829669,-0.0406665673,-0.012957184,-0.000307320764,0.00756834427
94102.855737,-0.0192789366,0.176579243,0.0197724115,0.00266571747,0.00164264577,0.00409584892
94102.865765,-0.0382718794,0.247359912,0.0422034391,0.00385615098,0.00324879828,-0.00120277676
94102.875792,-0.0142446688,0.155384315,0.0119392337,-0.00424997919,0.00314307082,-0.00292664088
94102.885820,-0.0265880175,0.122106826,-0.0555555089,0.0018334797,-0.00159123066,-0.00173247952
94102.895848,-0.033705083,0.12022557,-0.0802392838,0.017066496,-0.000840751833,-0.00196630481
94102.905876,-0.0182503242,-0.0062405358,0.0237939221,0.0123495037,-0.00493216599,0.000925355391
94102.915904,-0.044476287,-0.200769841,0.0522519549,-0.00186272143,-0.000529961108,-0.000606228332
94102.925932,-0.0236287293,-0.223287213,-0.00728335317,-0.00858906695,-0.00126233036,0.000281403107
94102.935960,-0.0495046366,-0.164879667,-0.0653252078,-0.00644655471,-8.228366e-05,0.00145159595
94102.945988,-0.00327165852,-0.07756086,0.0150296009,0.000492578223,-0.00062157368,0.00133787914
94102.956016,-0.0199776595,-0.0290310968,0.0401739791,0.000540248784,0.00151747718,-0.000127126197
94102.966044,-0.00759595146,-0.0258271588,0.0395561394,-0.0039487755,0.00160323104,-0.00183421161
94102.976072,-0.0295800389,-0.0357566171,-0.0339141705,-0.00898294934,-0.0012687218,0.000855580238
94102.986100,-0.0320434334,0.0243931559,-0.0180444012,-0.0024944231,-0.000368573384,0.000253173788
94102.996128,-0.0271354223,0.09135639,-0.000374888959,0.00360554721,-0.00143676731,0.00254935099
94103.006156,-0.0132491549,0.0964807016,0.00502492426,0.00760082117,0.000457272835,-0.00242836374
94103.016183,-0.0327257896,0.0214572668,-0.00199518364,0.00188940609,-0.0014117336,-0.00284008841
94103.026211,-0.0372522541,-0.0448220356,-0.0396927539,0.00132934338,-0.000446337654,-0.000508490684
94103.036239,-0.0258804538,-0.096666748,-0.0440164623,0.00183880617,-0.000873508777,0.000419887048
94103.046267,-0.00174576413,-0.122384926,0.0317042569,0.00158154484,0.00035873588,-0.00125843633
94103.056295,-0.023506345,-0.1370805,0.0465119499,-0.00630114545,0.00118138626,0.000182866384
94103.066323,-0.00477534108,-0.113263325,-0.00198290868,-0.00942290333,0.000354741088,0.00179141554
94103.076351,-0.025971493,-0.0311700199,-0.0223283621,-0.00527556279,0.000117986084,0.00111470631
94103.086379,-0.031703607,0.0449202723,-0.0257589211,-0.000937805602,-0.000978437399,-0.000278127114
94103.096407,-0.0279338792,0.0668708731,0.00703041886,0.0027053988,-0.00127697774,-0.000682128328
94103.106435,-0.0277807344,0.0487352823,0.0166072255,0.0024310931,0.000280705251,-0.00119798325
94103.116463,-0.0217689268,0.00597704256,-0.0312738851,0.00154053219,0.000900156533,-0.00198148444
94103.126491,-0.0252659751,-0.0320886555,-0.0137721307,0.000531194001,0.000816000596,-0.000294638532
94103.136519,-0.0137223254,-0.0428912456,0.0198986683,0.00217676125,-0.000501198841,0.000151440767
94103.146547,-0.0116960803,-0.049525875,0.0134566525,0.0006742058,0.00223626438,-0.000458422783
94103.156575,-0.0259593642,-0.0767246558,0.00537154574,0.000689385776,-0.000437016745,-0.000737788822
94103.166603,-0.0205109626,-0.0827421762,-0.028440123,-0.00213143442,-0.00176247201,-0.000150561999
94103.176631,-0.0189586917,-0.0906784034,-0.0174949506,-0.0025029454,-0.00208018688,0.00110405338
94103.186659,-0.0479555805,-0.0375075958,-0.0191222595,-0.0020717796,-0.00117710923,-0.000369206737
94103.196686,-0.0257730479,0.000628241433,0.0108087684,-0.00294662817,-0.00139202635,-0.000301829274
94103.206714,-0.00771227132,0.0113659713,-0.00415908367,-0.000361231246,0.00166634793,-0.000794247459
94103.216742,-0.0193061899,0.0283429781,-0.000425742364,0.00226704249,7.96365485e-05,-0.00128879651
94103.226770,-0.0297744655,-0.0096404519,-0.0200276839,0.00177142824,-0.000236214285,-0.00127894312
94103.236798,-0.0170051465,-0.0263338913,0.00421886857,0.00125663922,0.0007416984,-0.00107228171
94103.246826,-0.0310857673,-0.0597374952,-0.00461150362,-0.000108230891,-0.000444739971,-0.00161130514
94103.256854,-0.0280369742,-0.0649669295,-0.00834659849,-0.000301576427,-0.000916652062,-0.00104911226
94103.266882,-0.0201381107,-0.0594691266,-0.00623939708,-0.00220174194,-0.0015374349,-0.00115856781
94103.276910,-0.0254509032,-0.0537847472,-0.00668071111,-0.00129040811,-0.000322766981,-0.000943917516
94103.286938,-0.00963052603,-0.0565038699,-0.0104257429,-0.00234288947,0.000674853071,0.0010169682
94103.296966,-0.0214864566,-0.044265758,-0.00743649791,-0.00103021731,-0.00108336579,0.000162625951
94103.306994,-0.0208662058,-0.00870985423,-0.00144865567,-0.00300361953,0.000626916152,-0.000162013541
94103.317022,-0.0371373955,0.000562881725,-0.0111710083,-0.000746590642,-0.000270036428,0.00125185892
94103.327050,-0.0208735123,0.00801892593,0.00185798466,0.00302071715,-0.00136672627,0.000351976869
94103.337078,-0.0276939329,0.00300037568,0.00844846897,0.000495507699,0.000328109453,-0.00152794897
94103.347106,-0.0310997228,-0.0312993591,0.00620741204,-0.000117552033,0.000279906292,-0.000631794999
94103.357134,-0.0231103315,-0.0581669215,-0.00156731361,-0.000865900223,0.0008964281,0.00023666237
94103.367162,-0.0196460894,-0.0638544336,0.0198174197,-0.000759640159,0.000381639081,-0.000498902719
94103.377190,-0.0149075166,-0.0702726484,-0.0147541274,-0.00191997938,0.000858611164,-0.000802769992
94103.387218,-0.0242820056,-0.0653449964,0.00154643449,-0.00227977234,0.000995231355,-0.000872544679
94103.397246,-0.0214620528,-0.0472579072,-0.00741837773,-0.00226379364,-0.00116246185,-0.000906100231
94103.407274,-0.0194051933,-0.015478354,-7.44447079e-05,-0.00266220226,0.000704680423,-0.000260017547
94103.417302,-0.0227976122,-0.0112653548,-0.00964657517,-0.000428342875,-0.00049427469,-0.000981733869
94103.427330,-0.0125909102,-0.0104068828,0.0078645316,-0.00135032929,-0.000941419422,-0.000331124025
94103.437358,-0.0392731654,-0.00867049262,7.87000272e-05,0.000441978187,0.0014106844,-0.000982000227
94103.447386,-0.0242614743,-0.0173398279,-0.000680009386,0.00044757078,0.000513199221,7.5807129e-05
94103.457414,-0.0247017654,-0.029953276,-0.00576710339,-0.000585203091,0.000990970263,-0.000579597163
94103.467442,-0.0220811345,-0.0366208053,0.00185681562,0.00208301804,0.00104503243,-0.000420872788
94103.477470,-0.0336094406,-0.0415954154,-0.00757093794,-0.000249644774,-0.000615448372,-9.62332962e-05
94103.487497,-0.0212199877,-0.0498696835,0.000372130016,-0.00165499482,-0.000839420275,-0.000302894707
94103.497525,-0.0227102262,-0.0504969851,-0.00903867241,-0.0025639319,-0.000766982238,-0.00179106902
94103.507553,-0.0405005883,-0.0377970574,0.00951814402,-0.00172210651,-0.000476697839,-0.000470407042
94103.517581,-0.0185752453,-0.0192019765,0.0327201559,0.000871279594,0.000539830739,0.00198049963
94103.527609,-0.0430108176,-0.00769251672,0.0177517194,-0.00177536978,0.00173825325,-0.000864821221
94103.537637,-0.0286845514,-0.0104849182,0.0518492193,-0.00118095221,0.000537433981,-0.000897844988
94103.547665,-0.0329686585,0.0109577833,-0.0125043027,0.00320021421,0.00180643014,-0.00196177765
94103.557693,-0.024514353,-0.00387033778,0.0130755442,0.00402952227,0.00125302534,-0.00368857078
94103.567721,-0.0416518773,-0.0233823069,0.0437272876,0.00318130557,0.00496493941,0.000122412373
94103.577749,-0.00407099221,-0.0548040757,-0.00150769238,-0.000196914221,0.00251882579,-0.00216923814
94103.587777,-0.0295771894,-0.0502532075,-0.17928418,0.000762622655,-0.000241540752,-0.000212080511
94103.597805,-0.00419600682,-0.0741064635,-0.112535872,-0.00263743513,-0.00351669607,0.000221215454
94103.607833,-0.012112406,-0.0838801125,0.0199103587,-0.00122116591,0.000133432418,-0.000563883889
94103.617861,-0.0108843255,-0.0674999277,0.0516212557,-0.00386541864,0.00225091175,-0.00177349217
94103.627889,-0.0140557221,-0.0355188765,-0.00989850411,-0.00309416713,0.00104476613,-0.000354559827
94103.637917,-0.0250237639,-0.0210913076,0.00640731853,-0.00331174737,-0.000347001857,3.3995402e-05
94103.647945,-0.0300577394,0.0191433296,0.0442714775,0.00124279069,-0.00027829237,-0.000504761669
94103.657973,-0.0255022681,0.030069279,0.0550523992,0.00188008518,-0.000236480643,-0.00211597487
94103.668001,-0.0273383244,0.0127902217,0.011652818,0.00265932627,0.00190177138,0.000194317927
94103.678029,-0.0278144175,-0.0207751977,-0.0290515329,0.000914422879,0.000818397471,-0.000835792827
94103.688057,-0.0274409811,-0.0521592329,-0.0490947885,0.000995382983,-0.00223731357,-0.00108160238
94103.698085,-0.0241659049,-0.0742134767,-0.0158612119,-0.00143688199,-0.00045512608,0.000390060511
94103.708113,-0.0276995589,-0.0740584003,0.0272402632,-0.00119986062,0.00195317037,0.000858776537
94103.718141,-0.0030260132,-0.0543222105,0.0047776715,-0.000646988428,0.00178192914,-0.00129971534
94103.728169,-0.0164189441,-0.0336765,0.0129995564,-0.00133404605,-0.000339433115,-0.00027753945
94103.738197,-0.0384560769,-0.0367098307,0.00283588978,-0.00225629882,-0.000461405872,0.000352830891
94103.748225,-0.0319531978,-0.033154812,0.0228943429,-0.00151673894,0.00070878709,0.000119271954
94103.758253,-0.0424247613,-0.00799438174,-0.00104767365,-4.34782448e-05,2.06263203e-05,-0.000461563203
94103.768281,-0.026258201,0.00892254197,-0.0278322202,0.000812461684,-0.000274718303,-0.00157769463
94103.778309,-0.0222831599,-0.00688419429,-0.0239328747,-0.00044827865,0.00032049822,-0.000554508264
94103.788337,-0.0140978076,-0.0336895422,-0.0151089322,0.00214191185,2.27568371e-05,-0.000251173708
94103.798365,-0.0286395432,-0.0361995911,-0.0157098207,0.000329364408,0.000150055944,-0.000513229254
94103.808393,-0.0218440378,-0.0629417392,-0.00165323833,0.000730969096,0.000441938376,0.000154425655
94103.818421,-0.0276902797,-0.0765545005,-0.00479679705,-0.00111326998,0.00155886818,-0.000706840972
94103.828449,-0.0464894535,-0.0466605076,-0.00134928695,-0.00136520507,0.000641142803,-0.00151324618
94103.838477,-0.0363897189,-0.0257453577,0.0151184482,0.000501670842,-0.000163930731,-0.000914566885
94103.848505,-0.0228255962,-0.0148163556,0.0160110132,-0.000219779471,0.000130348576,-0.00213775757
94103.858533,-0.0331060942,-0.0227715729,0.00298143573,-0.000558000905,0.00142544377,-0.00110098879
94103.868561,-0.0352875299,-0.0247164074,-0.0272547126,-0.00120941006,0.00107763495,0.000628734273
94103.878589,-0.0213994359,-0.0104079531,-0.0214217686,0.00131313604,-0.000369260583,0.000448438604
94103.888617,-0.0264974166,-0.0143846759,-0.00704194563,2.07039669e-05,-0.00039775626,-0.000556371841
94103.898645,-0.0281932607,-0.0244735454,0.00972798738,0.00208811587,-0.00115036572,-0.000553176473
94103.908673,-0.0346219056,-0.0354907966,-0.00970911902,0.00105640743,0.000472032086,-0.00144506871
94103.918701,-0.0232663257,-0.0513803118,0.00287446823,-0.000245345789,-0.00115649079,-0.000797920595
94103.928729,-0.0276883069,-0.0539657982,-0.00729387457,-0.00173831397,-0.00107233509,0.000189845716
94103.938757,-0.0211838204,-0.0589668899,0.0166551563,-0.00160409059,-0.000505347999,0.00247031058
94103.948785,-0.0233161562,-0.032335705,0.0100675946,-0.00176574444,0.000343667779,-0.000534267831
94103.958813,-0.0217138356,-0.0100895896,-0.00639721799,-0.000569985106,0.00120866249,0.000264946637
94103.968841,-0.0192633006,-0.0196413737,-0.0170314247,0.000570913046,0.000996142188,0.000268408363
94103.978869,-0.0265025312,-0.0232622105,-0.00445192914,0.000251333779,-0.00173306503,0.00104498657
94103.988897,-0.023062766,-0.0203401285,-0.0211961432,0.0010532116,0.000274691934,-0.000702580172
94103.998925,-0.0264133916,-0.0379051095,-0.00637266807,-0.000698349471,-0.000364466833,-0.000969694662
94104.008953,-0.0427960058,-0.0368377771,-0.0107045598,0.000358392801,0.00109441284,0.000638854955
94104.018981,-0.0243135698,-0.0494824332,-0.00248209037,0.000545879328,0.00032049822,-0.000625614743
94104.029009,-0.0150038896,-0.0406508691,0.0130837276,-0.001793974,-0.000277115062,0.000201829975
94104.039037,-0.0169622572,-0.0424259342,0.017422049,-0.00169011069,0.000382283556,-4.37132223e-05
94104.049065,-0.0121062685,-0.0362116308,-0.00293743292,-0.0019452415,0.00033754247,-0.000468221228
94104.059093,-0.0144727054,-0.00795931328,-0.0198435595,0.00110247996,-8.96286519e-05,-0.000204035747
94104.069121,-0.0336540104,-0.00473965055,-0.00458344656,-0.00116493533,0.000564443849,0.000335520399
94104.079149,-0.0385701317,-0.0109455591,-0.0123622639,0.00141673311,0.000414241541,-0.000511364746
94104.089178,-0.010460474,-0.0118796685,-0.0237370598,0.000590620414,0.00137510998,0.000939525464
94104.099206,-0.0167730182,-0.0270402837,-0.0104222357,-0.00156787158,0.000445134209,-0.000592324617
94104.109234,-0.0169429679,-0.0408898746,-0.00129667998,-0.00173964553,-0.000769799838,-0.00168075852
94104.119262,-0.0223687193,-0.0416184309,0.0180024793,-0.000298609058,0.00207658668,-0.000495652403
94104.129290,-0.00649756177,-0.0331833554,0.0606345833,0.00181114729,-0.00109683609,-0.00118780761
94104.139318,-0.0421537624,-0.0335351439,-0.0324289003,-0.00105388151,0.00148137016,-0.00110178787
94104.149346,-0.0163407643,-0.0254170071,0.00302761296,-1.65802518e-05,-5.10127583e-05,-0.000721221524
94104.159374,-0.0350522598,-0.0155523714,-0.100806271,0.000348805417,-0.0022611701,0.000332058673
94104.169402,-0.033818188,-0.0258542774,-0.115435685,-0.00132712178,-0.00373469704,-0.00110178787
94104.179430,-0.0171795532,-0.0405436915,-0.0366918185,-0.00390106711,-0.00217514989,4.17738082e-05
94104.189458,-0.0188691868,-0.0271082413,0.0602838701,-0.00130927869,0.000349526729,0.000303030279
94104.199486,-0.0176032585,-0.0169507943,0.103505757,0.00144309838,0.00323506174,-0.000515625547
94104.209514,-0.0178216505,-0.00231112222,0.0753505064,8.51525368e-05,5.36495054e-05,-0.000334264445
94104.219542,-0.042331457,-0.0474016814,0.0154831899,-0.00103470675,0.00342254815,0.000532861133
94104.229570,-0.0243851737,-0.022968776,0.0202710087,0.00166786913,-0.00262549045,0.00131982498
94104.239598,-0.0560429523,0.000430551449,-0.04898899,0.000684097493,-0.00168299771,-0.0015254968
94104.249626,-0.0471726865,-0.0297155719,-0.0494180291,0.000142410481,-0.00136102157,-0.00164480574
94104.259654,-0.0290305884,-0.0112192609,-0.059724319,0.000994355735,-0.0015072292,0.00106522654
94104.269682,-0.0043728247,-0.037584828,-0.0444490085,-0.000311392159,-0.000345292065,-0.000805910411
94104.279710,-0.00628421128,-0.0496888333,0.00731391198,0.000640421608,0.00176020313,-0.001888219
94104.289738,0.00742012362,-0.0405858319,0.0508362428,-0.00165309271,0.00216979728,0.000108885844
94104.299766,-0.0186339898,-0.0492117539,0.0439359619,-0.0037229016,0.000970043212,0.00112781095
94104.309794,-0.0281024407,-0.0194745281,0.0018831191,0.000735230129,-0.000359939441,0.000773877171
94104.319822,-0.0595242916,-0.0058767965,0.0108771574,-0.000827246494,-0.0025823474,0.00143833532
94104.329850,-0.0449827022,0.0080027534,0.00477591793,0.00304365818,-0.00156794934,-0.00150685451
94104.339878,-0.0248192543,0.00710870947,-0.00867977597,0.00250703128,-0.000323187823,-0.000234928648
94104.349906,-0.021206909,-0.03439464,-0.0264843127,-0.000254134214,0.000828363088,-0.000139587293
94104.359935,0.000320886078,-0.0738832766,-0.00944374608,-0.00354154027,0.00176739364,0.00019197565
94104.369963,-0.00260121191,-0.0501383535,-0.00870374137,0.000799944941,0.00227419319,0.00041807842
94104.379991,-0.0130770132,-0.0502231777,-0.00168597156,-0.0007646622,0.00201959498,-9.24493326e-05
94104.390019,-0.0326804161,-0.0473965759,0.00504772061,-0.00110501421,-0.00142680181,0.000423404654
94104.400047,-0.0501658039,-0.00987942888,0.0143579853,6.27819357e-05,-0.00310192994,0.00158454318
94104.410075,-0.048596801,-0.00859205252,0.0146964234,-0.000217116237,-0.00390567203,-0.000282865684
94104.420103,-0.0409098998,-0.0220733935,0.00783413646,0.00238106362,0.0010837602,0.00120211326
94104.430131,-0.0203139057,-0.0182739658,0.012467057,4.866716e-05,0.000990815896,0.000878272844
94104.440159,-0.0119512241,-0.024372487,-0.0165795893,-0.001483982,0.00241347644,-0.00140938229
94104.450187,-0.0075937595,-0.0412688229,-0.0300761997,-0.000252802656,0.00204303078,-0.000479140054
94104.460215,-0.00291093545,-0.0482078558,-0.0161710085,-0.00162592848,-0.000284039213,-0.000537197771
94104.470243,-0.0318704149,-0.0276166543,-0.00284566299,0.000281960089,-0.000758348296,-0.000422415058
94104.480271,-0.0364517513,-0.015295313,0.00824856248,-0.000339089052,-0.00252855141,-0.000759305167
94104.490299,-0.0429536075,-0.0302517155,0.00183811092,-7.09087214e-05,-0.00110615723,-0.000516158263
94104.500327,-0.0195581919,-0.0256006771,0.00664755702,0.00013841569,-0.000543697534,0.000597841372
94104.510355,-0.0215582066,-0.0275217083,-0.0093695118,0.000794884833,0.00217965103,5.26926341e-05
94104.520383,-0.013240314,-0.0229256446,-0.00565078354,-0.000190750961,0.00292826546,-0.000588330175
94104.530411,-0.0127648055,-0.0427894931,-0.0113650695,-0.000446947091,0.000812916754,0.000848711734
94104.540439,-0.0279973728,-0.0392217679,-0.00914856252,-0.00135029134,0.00226220893,-0.000595520916
94104.550468,-0.0116649545,-0.0218200443,-0.0227632464,0.000105126146,-0.000481645839,-0.000409631724
94104.560496,-0.0449579331,-0.0256758498,-0.0163054485,0.000946951416,-0.00336558317,-0.00131990082
94104.570524,-0.0322577337,-0.0169361014,0.00588534048,0.000808733367,-0.00334560956,-0.000577944065
