t,ax,ay,az,gx,gy,gz
89753.785940,-0.00419412722,-0.00518473656,0.0707359165,-0.000492814113,0.00075418927,-0.000944506377
89753.795967,-0.00657716817,-0.00248045517,0.0345236164,0.00029361737,0.000150450622,-0.00112240575
89753.805994,-0.00262406489,-0.0127738491,0.0590647679,0.000253137317,-0.000776329427,0.0002182303
89753.816021,0.00939640857,-0.00261851194,0.0385661698,-0.00111546111,0.000750993495,0.000331147574
89753.826049,0.00088209833,0.00800173021,0.0491904396,-0.000669647998,-0.00047672377,8.0011785e-05
89753.836076,0.0103851273,-0.0141474208,0.0652022478,-0.00281189475,0.00182025263,0.000833153725
89753.846103,-0.00285615662,-0.00826721275,0.0557739097,-0.00327075738,0.0010106517,0.000710115768
89753.856130,-0.00294611819,-0.00852951694,0.0557756632,-0.00227659941,0.00211719517,0.00142810401
89753.866157,0.00893319324,-0.0113843127,0.0562251606,-0.00254211668,-0.000674862997,0.000816375948
89753.876184,0.00381557623,-0.00608500987,0.0571235707,-0.000408658234,0.00214542449,0.000175619498
89753.886211,0.00296487769,0.00230180154,0.0542798717,-0.00215595821,0.0010748338,-0.000682983547
89753.896238,0.00324194106,-0.00391735611,0.0587707534,-0.00739732571,0.00310229836,0.0227674805
89753.906265,0.0296448314,0.0211778583,0.0701449648,0.00720531913,-0.00111854554,0.00304197939
89753.916292,-0.0274427365,-0.0604440752,0.0598211392,-0.0042990041,0.00243943743,0.00183077389
89753.926319,-0.0100744174,-0.0050207873,-0.00511865819,0.0102794068,-0.00319501199,0.00170986634
89753.936347,-0.00973769629,-0.00434583805,-0.00512099628,-0.000881102984,-0.00070176099,0.00334824296
89753.946374,-9.61538509e-05,-0.0123269547,0.118182143,-0.00733154546,0.00328792073,0.00288272277
89753.956401,0.00642970425,0.00110601588,0.0611731384,0.00684579229,-0.00399742275,0.000784683973
89753.966428,0.00269800691,0.0260868009,0.0104454062,0.0042974134,-0.0040834425,0.00217911555
89753.976455,0.00433777348,-0.0167845917,0.0798784234,-0.00385292433,0.00261094514,-0.00155783258
89753.986482,-0.00363961688,-0.00318963549,0.0788297911,0.00467451708,-0.00225305231,-0.000349822454
89753.996509,-0.00190901196,0.00112215416,0.0177747261,0.00358821359,-0.00115742779,0.00141878286
89754.006536,0.00112776192,-0.000506762212,0.0810726016,-0.00200042967,-2.71821627e-05,-0.00112347025
89754.016563,0.00622037235,-0.0030627577,0.0887041194,0.00548358541,-0.000887649483,-5.793944e-05
89754.026590,0.0118554739,0.000903780439,0.0339338338,0.00100468134,-0.000711348257,-0.000437973067
89754.036617,0.000500478602,0.0155845683,0.076877488,-0.000422240351,-0.00038697524,-0.00136102457
89754.046644,0.00307613778,-0.0119099714,0.0583230096,0.0017349202,-0.00105489616,-0.000751161017
89754.056671,-0.0175914968,0.0106410657,0.0527852492,0.00286303507,-0.00197182223,-0.000572196208
89754.066699,0.0128862417,-0.0216831683,0.0369219097,0.00142625975,-0.00110469724,-0.000130644068
89754.076726,-0.00858178599,-0.0137545033,0.0713403121,-0.00104621891,-0.00188100862,0.000482682139
89754.086753,0.00981267949,-0.00692691319,0.0563783053,0.00113757304,-0.000879393774,0.00117403828
89754.096780,0.0101167953,-0.000774235776,0.0518891772,0.000136490853,-1.79279596e-08,0.00122090988
89754.106807,0.00719698057,-0.0123888136,0.0632639732,-0.000530897349,-0.0014493101,7.33537599e-05
89754.116834,0.00487748811,-0.00695318014,0.0613198534,0.00135515339,-0.000706022023,0.00155460415
89754.126861,-0.0132651946,0.00539672621,0.0714946259,0.00120122265,-0.000818673638,-0.000505616888
89754.136888,0.0153905344,0.00655768715,0.0626677608,-0.00190934946,-0.00119524461,-5.50104305e-05
89754.146915,0.0109861985,-0.00280977846,0.0628203211,-0.000132222107,-0.00115822663,9.27951187e-05
89754.156942,-0.00577312178,0.00419395369,0.063419456,-0.000690154382,-0.000646899804,-0.000798032619
89754.166969,0.000523622015,-0.00444963635,0.0646183104,2.06433469e-05,-0.000156345544,-0.00161961745
89754.176996,-0.00594343684,-0.0127802423,0.0595294628,0.00030000892,0.0003666993,-0.00121801253
89754.187023,0.00296668605,0.00714802686,0.0921516295,6.27212576e-05,-0.00134225108,0.000213968568
89754.197051,0.00179641843,0.0111122269,0.0593827478,-0.000899212493,-5.70096308e-05,0.000764977187
89754.207078,-0.00265155569,-0.00721668991,0.0632750791,-3.39514809e-05,0.00113582029,0.000558315776
89754.217105,-0.0051944999,-0.0114829599,0.0629758039,-0.00229098042,0.0025994936,3.04765999e-05
89754.227132,-0.00656693903,0.000359316565,0.0520545969,-0.00434534298,0.000606117479,0.000604654662
89754.237159,0.00235881982,0.0118390251,0.0580418546,-0.000656598539,-5.72758727e-05,0.00142064691
89754.247186,0.00625692324,-0.0117826187,0.0478682511,-0.00242866576,-0.000329983654,0.00108402316
89754.257213,0.00486862895,-0.0134436655,0.0773480281,-0.000881901942,0.00185007998,-3.71672213e-05
89754.267240,-0.00334362961,-0.00314642653,0.0586444967,0.000649415655,-0.00121335417,-0.000267530791
89754.277267,0.00633210736,-0.000100802627,0.0412877037,8.13634251e-05,-0.00151615555,-0.000491769053
89754.287294,-0.00315970614,-0.00477532464,0.0764548786,-0.00102358218,-0.000628790236,0.000701593235
89754.297321,0.014904541,0.000658747037,0.0632885231,0.00065234513,-0.000450092135,0.000357513316
89754.307348,0.0133012705,0.00640619551,0.0546107111,0.00435467158,-0.00277929287,0.000509846024
89754.317375,0.00821456011,0.00749886786,0.0490723662,0.00224704621,-0.00174438849,0.000486942939
89754.327402,0.000721500941,-0.0165568291,0.0736123487,-0.00183584623,-1.89264538e-05,0.000147390179
89754.337430,0.0144241736,-0.0062436619,0.0691232206,0.00392989721,-0.00144504907,-0.000226784497
89754.347457,0.00856300822,0.000572237797,0.0514653988,3.50244227e-05,0.000601323787,0.000997204334
89754.357484,-0.00286348141,0.000108830669,0.0590957476,0.000509333448,-2.85137212e-05,0.000174554065
89754.367511,0.00346068011,-0.0178653179,0.0583463905,0.00160282722,-0.00079257472,0.000700795092
89754.377538,0.000721427876,-0.0041392187,0.0405383466,0.00281767058,-0.00145654008,-0.000220634043
89754.387565,0.00888328968,-0.000687224212,0.0278185658,0.00122510036,-0.000705795013,0.000141023658
89754.397592,0.00403027843,0.000422618459,0.0599894815,0.00163309649,-0.000837088795,0.000548487529
89754.407619,-0.00724255501,0.00993227815,0.0444283398,0.000643199601,-0.00136625906,0.000316525809
89754.417646,0.00427146677,0.00387343477,0.064328972,0.00125918863,-0.000100724865,-0.000402261503
89754.427673,-0.00389143621,-0.00858418801,0.0614876111,0.000137465307,-0.00110739982,-0.00131545961
89754.437700,-0.003697996,-0.00189086438,0.0498170471,-0.000112605543,0.000231105019,0.00100894738
89754.447727,-0.000615958208,-0.00318504151,0.059095163,-0.00131582166,0.00071526767,-0.00046031829
89754.457754,-0.00366159125,-0.00897916954,0.0577484246,-0.000446033315,-0.00123949256,-0.000108248554
89754.467780,-0.00364071286,0.00253298908,0.0610410364,-0.000154417183,3.6427984e-05,-0.000892283395
89754.477807,-0.0054775181,0.00125612841,0.0599941577,-0.00262876018,0.00102472701,0.000186829828
89754.487835,0.0064202971,-0.00357710957,0.0532616346,-0.00283036148,0.00142766326,-0.00129362103
89754.497862,0.0190460978,-0.00628926374,0.0727168612,-0.00201277086,0.000650286558,-0.00186753273
89754.507889,-0.00284072158,-0.00609624365,0.0231833072,0.00489786593,-0.000174228102,0.00167606957
89754.517916,0.0154479637,-0.000777715507,0.0528080456,0.00252126064,-0.00095240376,0.00113997515
89754.527943,-0.00492624089,-0.00417788847,0.0679243662,-0.00374276051,-3.51946801e-06,0.000689102337
89754.537970,0.00493446073,-0.0198219501,0.0983013843,0.00329544162,-0.000968382694,0.000950357877
89754.547997,-0.0101136535,0.00265787583,0.0165992526,0.00374072208,-0.00178863644,0.000559406355
89754.558024,-0.00273567204,-0.00262187294,0.0622404753,-0.00474251108,0.00156241923,0.000702683814
89754.568051,0.0069195884,-0.0143378379,0.0863321295,-0.00313662505,0.00271556806,0.000994034111
89754.578078,-0.00328329599,0.0113460083,0.040842298,0.00317826262,0.000309934549,0.00072105974
89754.588105,0.00225625449,-0.00249506822,0.0564040243,-0.00203327741,0.000986643834,0.00013489835
89754.598132,0.00964218176,-0.00715510505,0.0772036512,-0.000338441605,0.000826587784,0.000403078273
89754.608159,-0.00388650431,0.00448015936,0.0549082328,0.00232072477,-0.00191833219,0.00214824779
89754.618186,-0.00422662299,0.00856533718,0.0474281061,-0.00243301783,-0.000983296428,-0.000853400677
89754.628213,0.00289707315,-0.00210944817,0.0734662182,-0.000690245186,-0.000667711836,-0.000207584351
89754.638240,0.001246292,0.00827563351,0.0553606527,0.00347067765,-0.00113429758,-0.000545539893
89754.648267,0.00765909992,-0.00117728188,0.0516173745,-0.000333914242,0.00152380345,-0.000648870133
89754.658295,0.000218830382,-0.00255823312,0.0637380204,-0.00205218582,9.52999108e-06,0.0007639369
89754.668322,0.00073125515,-0.00447494432,0.0629910014,0.00158569217,-0.0022935716,-0.0018683318
89754.678349,0.00935395767,0.0100573567,0.0421931281,-0.00117201102,-8.95395642e-05,-0.000618509948
89754.688376,0.00484113815,0.00325147608,0.0770592743,1.01662008e-05,-0.00057050644,0.000950624235
89754.698403,-0.00237588055,0.00634998095,0.0601508096,0.00227358681,-0.000250394456,-2.38260254e-05
89754.708430,-0.00991447763,-5.42966037e-05,0.0644897156,0.000665303844,-0.00138277072,-0.000215041451
89754.718457,0.00148247538,0.00894311185,0.0664355889,0.0018887599,-0.00097370916,0.000505077653
89754.728484,0.00289679915,-0.00541646296,0.0567085602,0.00148875313,-0.000893814256,-0.000466709957
89754.738511,0.00851730592,-0.00148725202,0.0445867452,0.00106531056,-0.000541744288,0.00122892484
89754.748538,0.00285717953,-0.00033266602,0.0599988339,0.000868502946,-0.000771042425,-0.000603063963
89754.758565,0.00542239037,-0.0062792812,0.0580529605,-0.00058584928,0.00030301034,0.0013112165
89754.768592,0.00334664355,0.0151675302,0.0670312167,0.000445060374,-0.000817381544,-0.000399065204
89754.778619,0.00500787302,-0.000298855082,0.0592488923,0.00186399254,-0.000955599593,-0.000350330025
89754.788646,0.00162005722,-0.00195366395,0.0608943214,0.00185227464,0.000599952822,0.000237695873
89754.798673,0.00933901583,0.00184570093,0.0685264237,-0.00104284775,-0.000602464424,-0.000483754091
89754.808700,-0.000262304198,-0.0100400585,0.0655354252,0.00184535049,9.39521706e-05,0.000622256659
89754.818727,0.00503202108,-0.0099787659,0.0463800584,0.00197957363,-0.00201367354,0.000990039669
89754.828754,0.00591671323,0.00208462425,0.0375508552,0.00331914378,-0.000997943804,0.000249680132
89754.838782,0.00649949982,-0.00994016919,0.0462269136,0.00478681223,-0.00251221727,0.000224114396
89754.848809,0.000657459262,-0.00614188202,0.0493693033,0.000597393198,-0.00125866733,0.00208912557
89754.858836,0.00558877818,-0.00448094481,0.0755564685,0.00248477538,-0.00169436052,0.000894431956
89754.868863,-0.00290145706,0.0129542929,0.0625368279,0.00446190638,-0.00135347573,-0.000492542982
89754.878890,0.00162016681,-0.0068187401,0.0836304694,0.00375856529,-0.000681294012,-0.000180420466
89754.888917,-0.00395522217,0.0150472191,0.0679161829,0.0030861171,-0.00183710596,0.000141023658
89754.898944,-0.0036266478,0.00151460581,0.0436731375,0.00452635484,-0.00267973007,-0.000104785897
89754.908971,-0.00633409839,-0.0082629567,0.061776365,0.00276067876,-0.000770243583,-0.00130773615
89754.918998,-0.0039889783,-0.00254083446,0.0737467887,0.00311115081,-0.003247516,-0.00144009572
89754.929025,-0.0151458024,0.00343009318,0.0724018039,-0.00621603802,0.00158851827,-0.00183663983
89754.939052,0.0208779711,-0.0532490948,0.0990478187,-0.0241164751,0.00680405274,-0.00479967333
89754.949079,0.0143147401,-0.0612359745,0.127644968,-0.0319799893,0.0153445443,-0.00195621606
89754.959106,-0.104772224,0.0555475627,0.0529822331,-0.00303329434,0.002873227,-0.00458022859
89754.969133,-0.00467321598,0.0371737382,-0.0718219582,0.0324938074,-0.015310837,-0.0143476389
89754.979160,0.0864245023,-0.0362218169,-0.040707858,0.0136298379,-0.00538017508,-0.00595255569
89754.989187,7.03618225e-05,0.029211655,0.115657593,-0.00127507537,0.000965072191,-0.00854487717
89754.999214,-0.0177778497,-0.00992288013,0.112361474,0.0215426236,-0.0101323193,0.00170110306
89755.009241,0.0975653982,0.003922562,-0.0603314268,0.0167265628,-0.00855386443,-0.00215808395
89755.019268,-0.0755883249,0.00939032589,0.111592243,0.00581639027,-0.00185681321,-0.0016986886
89755.029295,0.0663520206,-0.0327173341,0.0961789853,0.00590906804,-0.00274417852,-0.00345584191
89755.039322,0.018027404,-0.00846491814,0.033179216,-0.00713908952,0.00406632293,-0.000129553489
89755.049349,0.00522781765,-0.0186746889,0.11548925,-0.0190836322,0.00660777744,-0.000136744231
89755.059376,0.0289627856,-0.0363216605,0.0897580123,0.0038776088,-0.00361077138,0.000329309143
89755.069404,0.0208391369,0.0223505279,-0.0320487507,0.0119469864,-0.00581320561,0.002753851
89755.079431,0.011550116,-0.000997514004,0.052792848,-0.00173846539,0.000426048413,0.00148964813
89755.089458,-0.00940486587,-0.012414149,0.12611995,-0.0153056737,0.00650418084,0.000245952047
89755.099485,-0.0169917591,-0.00753851488,0.0966489409,-0.00562774576,0.00282076281,7.12489709e-05
89755.109512,0.00111884796,0.0104371589,0.00821136351,0.00928835291,-0.00546326581,0.000859278254
89755.119539,-0.00587393353,0.0253912199,0.0179343006,0.00240807631,-0.00173191098,-0.000543675385
89755.129566,-0.015856033,-0.0116740712,0.0942512321,-0.00731086358,0.00243620249,-0.000493873842
89755.139593,-8.67832343e-05,-0.0113355143,0.0852747294,0.00226879306,-0.00114867883,-0.000909061171
89755.149620,0.00759750592,0.018761253,0.0144914667,0.0085109761,-0.00338546769,-0.00137697812
89755.159647,0.00898886895,-0.00663084372,0.0459118563,0.00187784107,-0.000657059252,-0.000443274155
89755.169674,0.00558686022,-0.00465975371,0.0867646757,-0.00537820766,0.00250038458,-0.000409452245
89755.179701,0.000386990024,0.00280296512,0.0768885939,0.00207118643,-0.000448800041,-0.00056950748
89755.189728,0.00718877899,0.0145714823,0.0297539178,0.00161658484,-0.00304591446,0.00132426573
89755.199755,0.0143218275,-0.00350190717,0.0635737698,-0.00306392065,0.00110914919,-0.000525033101
89755.209782,0.0165941381,-0.0112534803,0.071805007,-0.00284341094,0.000606078072,0.000825455412
89755.219809,0.00062638827,0.00529633458,0.0575911882,-0.000404754304,-0.000656792894,0.00267209159
89755.229836,0.00777222317,0.00167890213,0.0474164157,0.00134121417,-0.00067090767,-0.000609988347
89755.239863,-0.0131280328,0.00344193888,0.0683650957,0.000374220312,-0.00113562937,1.1860393e-05
89755.249890,-0.00474794345,0.00995991507,0.0752495945,-0.00140557019,-0.000263444032,0.000373517163
89755.259917,-0.00182496867,0.00837250888,0.0595405687,0.000972366252,-0.0015156623,-0.000738885254
89755.269944,-0.002904745,-0.00320975583,0.0444260017,0.00249196589,-0.000243736664,0.000398817472
89755.279971,0.00372667411,-0.000992527302,0.0565460631,0.000616301608,-0.00022829033,-0.00175514724
89755.289998,-0.0102051859,-0.00975274773,0.0794388629,-0.000393835362,0.000472653715,-0.0014629988
89755.300025,0.00938210605,0.00275691576,0.0718055915,0.000940408383,0.000328310358,0.000649420545
89755.310052,-0.00318409166,0.0115136199,0.0590858107,0.00159261632,-7.06311548e-05,-0.000239808112
89755.320079,-0.000819170896,-0.000254148291,0.0442734415,4.31893859e-05,-0.00203923974,-0.00130294263
89755.330106,0.017221531,-0.0196825691,0.074354107,-0.0010772025,0.000725654012,-0.000460051931
89755.340134,0.00517670852,0.00220205836,0.0716606301,-0.000728594721,0.00170676247,-0.000350330025
89755.350161,-0.0035259639,0.00755922887,0.0587917962,0.000855187245,-0.00022402918,2.62409449e-05
89755.360188,0.00517367631,0.0136745517,0.0602864187,0.000587006856,0.000528047443,-0.00158816669
89755.370215,0.00334202217,-0.00918997188,0.0519090509,0.000266095973,-0.000613649725,0.000163660385
89755.380242,0.0148870419,0.0080348653,0.0653764353,0.000255892752,9.80802579e-05,-0.00171101559
89755.390269,-0.00335082653,0.00296559921,0.0516097757,-0.000265820476,0.000790235878,-0.00020340085
89755.400296,0.000458502624,-0.00147607304,0.0321574718,0.000333923381,-0.00125666976,-0.000545616262
89755.410323,0.00747519472,0.00454092223,0.0557996286,6.20146748e-05,-0.00155281334,-0.0013927687
89755.420350,0.00912301672,-0.00184980172,0.0698854371,-0.0529522002,-0.00241088355,-0.00290810689
89755.430377,0.0450191636,-0.117742719,0.455581622,-0.0946647599,0.0435800441,-0.00686689559
89755.440404,-0.0612243936,-0.0474427009,-0.019185762,-0.0530004017,0.016777724,0.00300198002
89755.450431,0.0883452412,0.0933124808,-0.135440152,0.0217257645,-0.0109985126,-0.00262235012
89755.460458,-0.0357822747,0.0695714941,-0.136482354,-0.019848844,0.00439003063,0.00490747206
89755.470486,0.0295428323,-0.0541179044,0.227747264,-0.0235397182,0.00779807754,0.000282892957
89755.480513,0.0147786313,-0.0242765458,0.0441582907,-0.0286846794,0.00896161329,0.000653338619
89755.490540,-0.0215132916,0.0208029331,0.0636193625,-0.00781241991,0.00284646265,0.000404332764
89755.500567,0.0015712679,0.0150800163,-0.0337970557,0.0171011854,-0.00563783618,0.00111007039
89755.510594,0.0198237128,0.0189614334,-0.00267594121,0.0063611893,-0.00275150221,-0.000163719058
89755.520621,-0.005284772,-0.0229693904,0.126159698,-0.00196225406,0.00193938985,-0.00448150281
89755.530648,0.0107645186,-0.0189843942,0.0576192453,0.0224565361,-0.00749805383,-0.00214377977
89755.540675,0.0167739881,0.0449655245,-0.0236427414,0.0188162606,-0.00983151607,0.00265789963
89755.550702,-0.00306391762,-0.000192627362,0.0998041901,-0.000215220411,0.00165123586,-0.00136187579
89755.560729,0.0228174513,-0.0253604777,0.146795074,-0.00943295285,0.00112952257,0.00236202264
89755.570756,0.00927807942,0.0195072399,0.0794628283,0.000346972898,6.8519148e-05,-0.00716676842
89755.580783,-0.000740077778,-0.0565234951,0.020360651,-0.000404571183,-0.000296600163,0.00533038191
89755.590810,0.00164842479,0.0627873047,0.0513327124,0.000105424202,-0.00014187058,0.00171460817
89755.600837,0.0461598398,-0.0284403327,0.0439957936,0.00539685879,-0.000703531201,0.00294046104
89755.610864,0.0113771889,0.0273920931,0.0787111331,-0.00146797136,0.0013622829,0.00739672873
89755.620891,0.0331336598,0.000337314796,0.0799018042,0.0150220562,-0.0045541958,0.00515674381
89755.630918,-0.00918704014,0.0211342109,0.0315659356,0.00521975849,-0.00178663887,0.0173196662
89755.640945,0.0997123653,0.06843501,0.0719558137,0.0285336021,-0.00726742484,0.0796695873
89755.650972,0.394145814,0.278076407,-0.0799596719,0.0663382411,-0.0206308998,0.144633681
89755.660999,0.465590974,0.317420447,-0.100824765,0.085071981,-0.0288938899,0.243264914
89755.671026,0.524890464,0.481969789,0.0446831913,0.099969171,-0.011616366,0.361314058
89755.681053,0.458695881,0.636457536,-0.0973234792,0.141987726,-0.0275372751,0.458913594
89755.691080,0.463341296,0.652917088,-0.0975157869,0.172640443,-0.0480691828,0.57065767
89755.701107,0.511842548,0.380293522,-0.0869125598,0.271353722,-0.0691869855,0.694805205
89755.711134,0.947028337,0.619436332,-0.384441216,0.182413176,-0.0518665835,0.918725371
89755.721162,1.15727465,0.659300798,0.59384326,0.413511127,-0.0773754045,0.867410004
89755.731189,-0.527673775,0.0789632995,-1.59217684,0.463513583,-0.112022333,0.671817064
89755.741216,-0.68785177,-0.305734394,-0.0663344667,0.190556049,0.0577714965,0.228772789
89755.751243,-1.68408677,-1.69577472,1.49244805,-0.0135347536,0.233063161,0.111978792
89755.761270,0.161202059,-0.777577779,0.516164977,-0.109353691,0.281279683,0.0227277465
89755.771297,0.14634406,-0.407030539,0.453128968,-0.0267352462,0.262103051,-0.12022461
89755.781324,-0.510826027,-0.670331749,-0.904258286,0.150640592,0.194186866,-0.23958163
89755.791351,-0.814681768,-0.308799151,-0.64854165,0.285066873,0.153826922,-0.225304693
89755.801378,-0.712051999,0.00328026378,-0.399589101,0.350864261,0.235944688,-0.234699532
89755.811405,-0.736714512,-0.0169007563,-0.709282826,0.538884699,0.293774426,-0.26807186
89755.821432,-0.624529929,-0.00841916104,-1.45443951,0.888102353,0.310441822,-0.443271905
89755.831459,-0.540837829,-0.243745372,-1.93785315,1.34436178,0.231615201,-0.550397277
89755.841486,-0.414458899,-0.132875562,-2.55452082,1.70375299,0.21557124,-0.629234612
89755.851513,-0.101780605,0.0968073463,-1.60802381,1.93110228,0.321476638,-0.695051432
89755.861540,0.27734475,-0.743062785,-1.54625212,2.96009922,0.30016762,-1.37720513
89755.871567,-3.96106578,-1.25597417,-5.90764525,3.639853,-0.0995084047,-2.29766607
89755.881594,-5.41343316,-1.28741677,-2.8261347,2.99259233,-0.258241057,-2.23525071
89755.891621,-1.94073162,0.389412136,5.40983251,1.2854085,0.0920820683,-0.955214322
89755.901648,3.3633524,2.21944934,8.13937437,0.420337349,0.727371395,-0.161500409
89755.911675,5.89166501,0.244055571,5.33668485,-0.215381593,0.909306049,0.0391264297
89755.921702,5.18395922,0.328756884,3.34397199,-0.675014198,0.678041697,0.0713813007
89755.931729,0.969897245,2.1211652,0.706051005,-0.780811429,0.585159421,-0.0828719214
89755.941756,-0.674619217,1.66114136,0.481925439,-0.905500114,0.626789391,-0.131399512
89755.951783,0.36336248,0.787023799,0.530660536,-0.962899506,0.728532016,-0.0536708869
89755.961810,0.482889388,-0.0736839526,-0.121870476,-0.885818839,0.76741761,0.0346802808
89755.971837,-0.472920221,-0.826762666,-1.08997726,-0.661585212,0.738342822,0.112739392
89755.981864,-1.07822413,-1.11038891,-1.50276486,-0.432371408,0.628385186,0.142655477
89755.991891,-0.880743555,-1.28174384,-2.71480198,-0.0109477593,0.369765341,0.309576809
89756.001918,0.301616072,-1.69318543,-4.81520774,0.181872293,-0.114544876,0.459711194
89756.011945,-0.250086887,-1.64166947,-5.64563916,0.242055729,-0.711755037,0.594451964
89756.021972,-0.661121584,-1.50467406,-6.4680673,0.107921906,-1.35074222,0.763140023
89756.031999,-0.347894569,-1.43162387,-6.52274874,-0.149610311,-1.97293591,0.969322503
89756.042026,-0.0500211914,-1.4088281,-6.19985359,-0.389859378,-2.55379033,1.16310513
89756.052053,0.209271623,-1.26725515,-5.69886046,-0.607153118,-3.04834962,1.31273639
89756.062080,0.505890398,-1.06070922,-4.77952209,-0.78341949,-3.42455244,1.42225814
89756.072107,0.832294874,-1.04906452,-3.64032576,-0.875146747,-3.67886448,1.50177526
89756.082134,1.12813974,-1.09405123,-2.46974235,-0.883997738,-3.82045197,1.53249061
89756.092161,1.41105645,-0.952044996,-1.218862,-0.767197132,-3.84592032,1.47994697
89756.102188,1.98069392,-0.833565989,-0.0248603005,-0.492109597,-3.76298022,1.37423623
89756.112215,2.41619707,-0.717218588,1.24348615,-0.154202655,-3.55131197,1.25560522
89756.122242,2.22243815,-0.416601829,2.61545722,0.213466957,-3.19717097,1.12605572
89756.132269,2.08403038,-0.0699635439,3.77693963,0.525741756,-2.74370074,0.96940136
89756.142296,2.02574215,0.446991123,4.83360849,0.727004588,-2.20814562,0.759626031
89756.152323,1.92702459,1.11676078,5.79555266,0.806424797,-1.6055814,0.520184934
89756.162350,1.64282858,1.87183257,6.56869976,0.789997637,-0.992328107,0.261489719
89756.172377,1.33060855,2.55097452,7.25545687,0.610601544,-0.407540798,0.0142525043
89756.182404,1.41250971,3.17875454,8.28534001,0.334609389,0.222315431,-0.216193482
89756.192431,1.72261436,3.69555635,9.09108473,-0.00229035551,0.925970256,-0.474114507
89756.202458,1.71373869,4.20493006,9.7989308,-0.38974461,1.82056546,-0.753872931
89756.212485,2.06267867,4.8564443,10.2218733,-0.606015384,2.86895275,-1.08822691
89756.222512,1.408441,4.91128034,9.14195976,-0.484354198,3.86347103,-1.41866469
89756.232539,0.475470709,4.24333783,6.51893707,-0.103024155,4.62839365,-1.73361385
89756.242566,0.326048502,3.24304902,3.03518077,0.452853203,5.05563879,-2.00108504
89756.252593,0.393850119,2.20680643,-1.09490711,0.904789984,4.90854979,-2.18393946
89756.262620,0.705174953,0.969010452,-4.55819463,1.15632021,4.08784008,-2.26769066
89756.272647,1.2428065,-0.548941458,-7.85704563,1.32292497,2.71717119,-2.18430805
89756.282674,1.52831914,-2.01637124,-11.1708294,1.43144715,1.12241781,-1.88766527
89756.292701,1.54077574,-3.11142697,-13.0098697,1.25721121,-0.417678118,-1.39506483
89756.302728,1.06022531,-3.94929117,-12.8686293,0.735141337,-1.67588115,-0.777594745
89756.312755,0.0249171726,-4.22446478,-11.0357639,-0.0198059659,-2.55828333,-0.130972862
89756.322782,-0.444892689,-4.2404082,-8.68260739,-0.851941288,-3.18914151,0.503438711
89756.332809,0.137414886,-4.09719625,-6.5768743,-1.58759212,-3.66023922,1.05026293
89756.342836,0.837696879,-3.5847462,-4.72011597,-2.17815518,-3.99337363,1.44983995
89756.352863,1.26204954,-3.19719036,-2.83122471,-2.5150497,-4.20475388,1.70080554
89756.362890,1.53285327,-2.78884746,-1.14612468,-2.54228854,-4.2693224,1.80325866
89756.372917,1.6891911,-2.30425645,0.428005632,-2.2635746,-4.16430521,1.77114582
89756.382944,1.77646753,-1.86378019,1.85759595,-1.63290501,-3.92837071,1.61272359
89756.392971,1.89090727,-1.53426299,3.02115399,-0.751125753,-3.53787112,1.39620173
89756.402998,2.04558988,-1.11698458,4.34035034,0.111728601,-2.9679451,1.16318893
89756.413025,1.98854142,-0.490471697,6.04773586,0.724549651,-2.22870827,0.892502069
89756.423052,1.75530813,0.349741366,7.80393831,0.974930763,-1.37071478,0.589107871
89756.433079,1.68514855,1.11030444,9.37299964,1.05452001,-0.487964779,0.331110924
89756.443106,2.45047154,1.65481406,10.3040501,0.936489105,0.399851114,0.0756421536
89756.453133,2.8488761,2.10211271,11.3862573,0.790768623,1.36094785,-0.0767937228
89756.463160,3.94194197,2.49874398,11.9053875,0.261656314,2.36183643,-0.26382646
89756.473187,3.91602574,3.04728037,13.4163766,-0.224952221,3.4584527,-0.510745466
89756.483214,3.44014338,3.21394919,13.6387241,-0.603170633,4.67050791,-0.626754045
89756.493241,5.36424331,3.62074194,12.7847037,-0.586217761,6.04156113,-0.748845339
89756.503268,4.9370069,3.74813907,9.63473977,-0.275893688,7.2873745,-0.978206396
89756.513295,2.30839472,3.51702963,5.01890134,0.375128567,8.03584957,-1.30047631
89756.523322,1.04382122,3.10246187,-0.945170727,1.05282474,7.98841381,-1.66717386
89756.533349,0.916436361,1.99219878,-6.6003148,1.49191761,6.7510581,-1.93627167
89756.543376,2.11024969,0.450420439,-12.9744021,2.0331471,4.27297068,-1.99730945
89756.553403,3.61672189,-1.24851874,-20.838825,2.65404224,1.13919628,-1.81020319
89756.563430,3.46529331,-2.46764684,-25.3278572,2.67292428,-1.76501679,-1.42181182
89756.573457,0.821986245,-3.1695416,-23.030291,2.06870556,-3.7487905,-0.815415621
89756.583484,-0.62383464,-4.00113534,-17.2906029,1.09212947,-4.84308672,-0.00898085069
89756.593511,0.653533978,-4.77399953,-11.9080962,-0.0523383655,-5.41687918,0.817361534
89756.603538,1.74587453,-4.60253179,-7.75241329,-1.11190712,-5.75108862,1.47672057
89756.613565,2.16978617,-3.75717957,-4.52316482,-1.95910454,-5.91493273,1.88604569
89756.623592,2.36283359,-2.77431361,-1.78934367,-2.39259005,-5.92543221,2.03945947
89756.633619,2.40088552,-1.95433988,0.383054145,-2.41358399,-5.74193192,1.99153435
89756.643646,2.20458276,-1.40189392,2.45924141,-2.02158666,-5.34746122,1.78943563
89756.653673,2.01911601,-1.02972204,4.18305959,-1.2572087,-4.75523186,1.48183119
89756.663700,1.78415575,-0.62381199,5.86975771,-0.357545406,-3.94150591,1.12812364
89756.673727,1.36338357,-0.215775817,7.67049137,0.242701262,-2.93929625,0.768959403
89756.683754,0.736973674,0.628348245,10.4809124,0.760055721,-1.72779679,0.411299527
89756.693781,0.55072045,0.511990468,11.4442313,0.64002198,-0.542773902,0.203532755
89756.703808,1.48653532,0.992145536,13.8391636,0.352024287,0.744502246,-0.0141599001
89756.713835,2.09861362,1.15471971,14.4829514,0.062759459,2.03175378,-0.102868728
89756.723862,3.31841523,1.23774293,14.0851866,-0.382629454,3.20065761,-0.147264943
89756.733889,4.17854767,1.39542209,13.9434073,-0.846385956,4.32320642,-0.179497182
89756.743916,5.08262358,1.7595313,12.8279361,-0.955739558,5.54289246,-0.236278445
89756.753943,4.95084429,2.25234843,9.93189901,-0.736752927,6.73494148,-0.38465327
89756.763970,3.2526083,2.55799638,5.84062689,-0.234447733,7.59481239,-0.655817926
89756.773997,2.03759099,2.39978004,0.615375293,0.527890682,7.74386406,-1.01584828
89756.784024,1.85712673,1.86210671,-5.25796612,1.18900681,6.81021547,-1.3415153
89756.794051,2.60439222,0.759724947,-11.4935521,1.90725541,4.60882092,-1.57775021
89756.804078,3.65725176,-0.559546731,-19.2216201,2.68534017,1.56276882,-1.64712083
89756.814105,3.83962814,-1.5497895,-24.5268705,3.05795002,-1.34119523,-1.50736344
89756.824132,1.47175627,-2.07408226,-22.979772,2.69064307,-3.30827451,-1.1265285
89756.834159,-0.530355123,-2.69964299,-16.6900219,1.78265357,-4.33281898,-0.478639424
89756.844186,0.086216723,-3.43845937,-10.6615109,0.648250103,-4.72092247,0.261743575
89756.854213,0.849127789,-3.64764222,-6.06295096,-0.505654156,-4.7384491,0.927404165
89756.864240,0.836047358,-3.48871831,-2.62384804,-1.44393432,-4.58035517,1.47228587
89756.874267,0.388645682,-3.2310409,-0.36071255,-2.07926941,-4.33917379,1.81410658
89756.884294,0.0033626083,-2.64436592,1.19998603,-2.2783525,-4.00991726,1.92188919
89756.894321,-0.0799053114,-2.0085648,2.1387995,-2.06076145,-3.60796928,1.82827806
89756.904348,-0.239854758,-1.507063,2.87870601,-1.45279837,-3.16779304,1.57752252
89756.914375,-0.317756328,-1.09273204,3.50763987,-0.70028919,-2.66954732,1.25138593
89756.924402,-0.320737682,-0.717047615,4.54380721,-0.0557828993,-2.06735516,0.920615196
89756.934428,-0.335961847,-0.362922043,5.81799654,0.341551155,-1.36938858,0.633042276
89756.944455,-0.0237236977,-0.206466283,6.99219639,0.50633502,-0.65804857,0.458358645
89756.954482,0.973470354,-0.295333119,7.84657216,0.453325897,-0.000707756146,0.387602985
89756.964509,2.08595638,-0.376149334,8.56356892,0.258397937,0.639585972,0.375410229
89756.974536,2.82366801,-0.338959202,9.12860987,0.0190481953,1.31142879,0.416022092
89756.984563,3.45489203,-0.332545755,9.48083282,-0.228503019,2.07128072,0.470795602
89756.994590,3.95517789,-0.309416955,9.27958544,-0.278328359,2.90405464,0.528854907
89757.004617,3.66455536,-0.408590738,7.81295572,-0.0692563653,3.67895579,0.55550915
89757.014644,2.44935568,-0.791257126,5.40403756,0.323354036,4.20585537,0.537796199
89757.024671,1.84008938,-1.10496206,2.529121,0.801385045,4.35318661,0.512146235
89757.034698,1.92396315,-1.19755325,-0.409556368,1.14307845,4.05252743,0.491354674
89757.044725,2.13762636,-1.22599842,-2.94248261,1.42379153,3.32377052,0.481622934
89757.054752,2.16506981,-1.13878023,-5.74807603,1.64189696,2.32616544,0.520867527
89757.064779,1.96287317,-1.11973556,-7.93508105,1.69894004,1.24885273,0.599062204
89757.074806,1.12985656,-1.17401017,-9.04682649,1.57797587,0.216033086,0.738691211
89757.084833,0.154781908,-1.22997463,-9.17903248,1.40457845,-0.679948032,0.915996492
89757.094860,-0.333725613,-0.953236252,-8.70483267,1.22545397,-1.37269545,1.10122788
89757.104887,-0.331480902,-0.432423157,-7.97996357,1.00393939,-1.92990971,1.23789036
89757.114914,-0.216883632,0.54288698,-7.13854781,0.680572867,-2.41973853,1.24781406
89757.124941,-0.188311618,2.0280231,-6.08723142,0.330405563,-2.87059879,1.0665096
89757.134968,0.00725391665,3.62801046,-4.91967349,0.0854357406,-3.22919011,0.687676251
89757.144995,0.048451604,5.05873943,-3.58324486,-0.00114628742,-3.41839027,0.150110543
89757.155022,-0.284746039,6.17660131,-2.0684821,0.0830159932,-3.42525935,-0.51542753
89757.165049,-0.64480334,6.93669604,-0.52762979,0.184792951,-3.23639321,-1.24163806
89757.175076,-0.734525404,7.09750911,1.30064187,0.211945474,-2.87539601,-1.92461574
89757.185103,-0.400038598,6.78551705,2.96404153,0.204626843,-2.40867209,-2.50282884
89757.195130,0.235452724,6.04015227,4.33759023,0.0151224313,-1.88234317,-2.91935277
89757.205157,1.14061906,4.79029542,5.90809124,-0.28617695,-1.29632628,-3.14894032
89757.215184,2.13768394,3.45244932,7.052944,-0.657139301,-0.633327782,-3.20421481
89757.225211,2.91397168,2.04656077,7.95586197,-0.975203276,0.145299256,-3.10641193
89757.235238,3.07312822,0.390614059,8.32098533,-1.03458786,1.03231454,-2.86003566
89757.245265,2.39203455,-1.8194521,7.45751381,-0.73629564,1.89601922,-2.48964167
89757.255292,1.2854215,-4.27077704,5.57935964,-0.20388262,2.54383683,-2.01768684
89757.265319,0.452698175,-6.86766342,3.47731254,0.323848069,2.87664413,-1.36667979
89757.275346,0.811269037,-9.25529388,1.48340491,0.687941611,2.80228019,-0.498714089
89757.285373,2.16513922,-10.8120908,-0.826590524,0.842552722,2.32497263,0.543967545
89757.295400,3.58983388,-11.2861252,-3.37143984,0.649745464,1.54711854,1.58227968
89757.305427,3.33625513,-10.5628471,-4.75826596,0.119207025,0.69391048,2.45761704
89757.315454,1.91528125,-9.25813641,-4.72035971,-0.453996837,0.000325816683,3.20880127
89757.325481,1.76824754,-8.26860983,-4.12617334,-0.83268851,-0.480276763,3.87017655
89757.335508,2.37924374,-7.12086076,-3.32525268,-0.897236884,-0.807346225,4.37330866
89757.345535,2.67047681,-5.49544451,-2.58183903,-0.698347211,-1.02838147,4.65622854
89757.355562,2.68115573,-3.5250747,-1.78747729,-0.340800256,-1.13950741,4.73779249
89757.365589,2.45349644,-1.47537475,-0.868376825,0.0518269166,-1.10827255,4.65610695
89757.375615,1.99020556,0.437241517,0.234821732,0.357664615,-0.90540272,4.42284822
89757.385642,1.43188311,2.10955674,1.47697809,0.595617533,-0.573476732,4.07060385
89757.395669,0.916394422,3.58917658,2.28997965,0.68496263,-0.162185133,3.55890131
89757.405696,0.482491548,5.08006045,3.07495163,0.626890004,0.255613953,2.91014957
89757.415723,0.206937992,6.86641371,3.10412921,0.650730073,0.581103683,2.18309307
89757.425750,0.107167705,8.28856716,2.19138542,0.550535798,0.739694118,1.40512443
89757.435777,0.151409582,9.53451473,1.46875036,0.424244702,0.719359815,0.594963849
89757.445804,0.0319397374,10.7187508,0.472249263,0.300531298,0.576995492,-0.290937722
89757.455831,-0.233762579,11.6311568,-0.187661337,0.259356678,0.40284124,-1.21812177
89757.465858,-0.272196062,11.7961731,-0.663398443,0.322582245,0.249369398,-2.12003994
89757.475885,-0.0145844057,11.123033,-1.07852414,0.518068969,0.124929987,-2.86045957
89757.485912,0.746663586,9.75845149,-1.37154496,0.623215079,0.0392502435,-3.40894198
89757.495939,1.56526165,8.14316149,-1.11580377,0.577862263,-0.0065076584,-3.76679873
89757.505966,2.0936934,6.42826136,-0.84364512,0.358272612,-0.0419442095,-3.90175366
89757.515993,2.35286924,4.46390132,-0.53202481,-0.0491779782,-0.0589972287,-3.78485918
89757.526020,2.39298644,2.35591328,-0.181670572,-0.556203604,-0.0693657175,-3.4606154
89757.536047,2.49687556,0.338034854,-0.0944318494,-1.05911255,-0.0866392478,-2.97796464
89757.546074,2.60028713,-1.42812039,-0.224175251,-1.54771495,-0.102473602,-2.4058063
89757.556101,2.35505448,-3.05260419,-0.324241891,-1.90393627,-0.143497989,-1.80527711
89757.566128,1.78769035,-4.61071276,-0.757950703,-1.97614622,-0.237845272,-1.19620204
89757.576155,1.29655314,-6.02854717,-1.47453538,-1.76960349,-0.394837826,-0.617754221
89757.586182,0.966353508,-7.09840343,-1.84354697,-1.39682138,-0.576302111,-0.12296471
89757.596209,0.491028782,-7.68144882,-1.66144268,-0.956895888,-0.711274862,0.284998029
89757.606236,-0.127049632,-7.94319129,-1.15949971,-0.503622413,-0.780621707,0.653800547
89757.616263,-0.520345478,-8.24231511,-0.505939351,-0.0957353562,-0.774927855,1.04721475
89757.626290,-0.744608991,-8.30953746,0.0745078362,0.202840418,-0.717123687,1.43131387
89757.636317,-0.75094404,-7.86392954,0.631135172,0.349570215,-0.618442416,1.76983094
89757.646344,-0.69588763,-7.24449299,1.02742348,0.433274955,-0.51912272,2.04834795
89757.656371,-0.517959459,-6.60714201,1.00523737,0.612703323,-0.438860953,2.28823042
89757.666398,-0.228145908,-5.88470569,0.618061756,0.914193153,-0.344764531,2.48943686
89757.676425,-0.0208583714,-5.08394226,0.351275444,1.18274546,-0.227877587,2.64129233
89757.686451,0.132908295,-4.2961447,0.474719453,1.3926729,-0.106182054,2.73935223
89757.696478,0.485798188,-3.24594504,0.533615294,1.50169051,0.0254915543,2.77099681
89757.706505,1.08856534,-2.00184865,0.54704936,1.56159425,0.130797476,2.74102044
89757.716532,1.77718415,-0.608030922,0.315447759,1.6010586,0.202315331,2.6760478
89757.726559,2.0186519,0.83216058,0.101617377,1.66544449,0.272394001,2.55426598
89757.736586,2.05962513,2.32227434,-0.09076339,1.74436545,0.360367268,2.33704162
89757.746613,1.98398654,3.96995051,-0.247915023,1.72778296,0.448246777,1.98883474
89757.756640,1.82610425,5.70868394,-0.365490432,1.60397816,0.471708179,1.50456738
89757.766667,1.44015,7.57732969,-0.680004709,1.37378335,0.389080673,0.901641488
89757.776694,0.868687499,9.5020422,-1.00580669,1.01069725,0.220953465,0.21955429
89757.786721,0.531911705,11.1136971,-1.08919984,0.484953046,0.0442255624,-0.520209849
89757.796748,0.157838154,12.5657207,-0.898638108,-0.148294717,-0.10189224,-1.32307398
89757.806775,-0.290493935,13.4733698,-0.662004358,-0.61775434,-0.203647882,-2.15035915
89757.816802,-0.316330972,13.1917706,-0.718853203,-0.819031239,-0.223543569,-2.95558167
89757.826829,0.0483361609,12.0829559,-0.80254154,-0.84964186,-0.145484179,-3.70140791
89757.836856,0.529294508,10.5978319,-0.776131672,-0.80389595,-0.0191363674,-4.31516266
89757.846883,0.90099227,8.67352041,-1.02143096,-0.756424606,0.0836283565,-4.73993874
89757.856910,1.12562549,6.40356356,-1.57010821,-0.730847836,0.116417997,-4.98065662
89757.866937,1.34122873,3.94189141,-2.30808054,-0.734544575,0.0460828505,-5.0451231
89757.876964,1.56584939,1.4098329,-3.17007965,-0.708488464,-0.155489415,-4.90385246
89757.886991,1.97975401,-1.22205728,-4.24229095,-0.61050117,-0.515439332,-4.56686354
89757.897018,2.51447814,-3.94576972,-5.36571864,-0.358874857,-1.0225271,-4.06117153
89757.907045,2.59834505,-6.51905281,-6.2121116,-0.0825710818,-1.6310128,-3.45124555
89757.917072,2.12532393,-8.60237007,-5.66828354,0.0571119748,-2.13438702,-2.76871467
89757.927099,1.58774616,-10.6554798,-3.95224008,0.169332787,-2.4640398,-1.91011429
89757.937126,1.43944536,-12.3257874,-2.23248842,0.370310366,-2.59890676,-0.994587481
89757.947153,1.0566487,-13.0409885,-0.807121854,0.545090199,-2.56958413,-0.126062766
89757.957179,0.853385885,-13.218288,0.434483304,0.753345668,-2.43961883,0.721024334
89757.967206,0.496224598,-12.834305,1.38466864,0.863936603,-2.21091104,1.49904525
89757.977233,0.68896543,-11.8925666,2.20293265,0.791693032,-1.9302671,2.19827771
89757.987260,1.15404729,-10.718081,2.75303146,0.627414644,-1.66124046,2.79042459
89757.997287,1.64176124,-9.11782836,2.67071149,0.524837673,-1.44821823,3.24743485
89758.007314,2.02351424,-7.43855952,2.11547474,0.460212022,-1.32604837,3.54778266
89758.017341,2.37903945,-5.78442453,1.69110015,0.481478155,-1.25810254,3.70398498
89758.027368,2.70933553,-4.05096203,1.18260936,0.618960142,-1.19213712,3.73677874
89758.037395,2.93747442,-2.18863876,0.634877281,0.795069695,-1.12133324,3.63457537
89758.047422,3.05462606,-0.220134305,0.392231139,0.856714904,-1.05927682,3.37795687
89758.057449,3.04332608,1.76391565,0.49318333,0.824331701,-1.01945508,2.97758722
89758.067476,2.90049114,3.61938088,0.623328882,0.733587384,-0.986682475,2.45262837
89758.077503,2.70389948,5.26252948,0.957276175,0.56067127,-0.910435617,1.82858944
89758.087530,2.63704829,6.57652768,1.69898068,0.289609939,-0.787076414,1.17601526
89758.097557,2.86638721,7.52783296,2.82936301,0.0305666532,-0.560756207,0.542511046
89758.107584,3.31409357,8.14682294,4.26679469,-0.234366745,-0.112788029,-0.0580703951
89758.117611,3.6036359,8.24588946,6.13531127,-0.485053837,0.582100213,-0.589008033
89758.127638,3.6490778,7.86756877,8.11250273,-0.646327615,1.46041977,-0.998561442
89758.137665,4.09061219,6.99999099,9.70435633,-0.792589247,2.50878119,-1.32594705
89758.147692,4.39632299,6.50606882,11.0453653,-1.04230344,3.78167152,-1.64442909
89758.157719,4.30660881,5.91359101,12.0793436,-1.11297131,5.20266008,-1.87691832
89758.167746,4.67138408,4.84051842,11.1380833,-0.825108588,6.60027695,-2.03678203
89758.177773,4.66634872,3.75058412,8.24455675,-0.419815689,7.71308851,-2.19696355
89758.187800,4.18344245,2.57365076,4.73328408,0.120484829,8.35566807,-2.36746573
89758.197826,4.08935138,1.41392952,0.589540595,0.553172648,8.3456707,-2.53799415
89758.207853,4.2609144,0.0163917474,-3.34089916,0.865658104,7.48011017,-2.58786583
89758.217880,5.18446834,-1.48147774,-7.98002903,1.19312227,5.78188276,-2.38401723
89758.227907,6.21944384,-3.29404505,-12.9040689,1.36259437,3.71498394,-1.96121693
89758.237934,5.34888499,-4.46423976,-15.1555584,1.19617951,1.8265897,-1.42313397
89758.247961,2.10550513,-4.72204752,-13.6392034,0.654015601,0.574599683,-0.882056952
89758.257988,-1.16473096,-4.44096555,-9.86626656,0.0281527638,-0.000523534953,-0.326186001
89758.268015,-2.69162423,-4.95897733,-7.17639444,-0.38411817,-0.303123087,0.309880197
89758.278042,-3.16444778,-5.85180529,-6.18927257,-0.572371662,-0.62515837,0.925287426
89758.288069,-2.80577901,-6.06933862,-5.63771421,-0.511268914,-0.989636958,1.47084963
89758.298096,-1.66387868,-5.80156446,-5.27846413,-0.360600859,-1.33372462,1.88147128
89758.308123,-1.11361247,-4.98413515,-4.28928417,-0.160501048,-1.59248674,2.1161561
89758.318150,-1.19150038,-4.07084513,-3.17447935,0.0784798488,-1.74484265,2.2556026
89758.328177,-1.25806968,-3.08805282,-2.21867207,0.310896844,-1.79800582,2.35166264
89758.338204,-1.28964146,-2.18357913,-1.30982003,0.48979336,-1.77200723,2.41368318
89758.348231,-1.09241026,-1.38510704,-0.484909423,0.601610482,-1.69529724,2.45449042
89758.358258,-0.534663926,-0.651292117,0.214914086,0.638292015,-1.60294437,2.44990325
89758.368285,-0.144183576,0.308351079,0.831978063,0.556716204,-1.48243499,2.36935353
89758.378312,0.100648094,1.22834586,1.54171682,0.41173023,-1.32147336,2.21218729
89758.388339,0.579252571,2.17690068,1.93331316,0.353048295,-1.15613306,1.99110055
89758.398366,1.09098366,3.28676834,1.81236916,0.363141537,-1.01116192,1.69016397
89758.408393,1.29722928,4.73887707,1.62125271,0.326036781,-0.887938797,1.28195226
89758.418419,1.15823845,6.47022945,1.39984751,0.195028678,-0.79256326,0.762695491
89758.428446,0.973475761,8.11013659,1.20896955,-0.125023097,-0.729608297,0.167419359
89758.438473,0.578010316,9.44355202,1.07859194,-0.506500125,-0.690770626,-0.474996328
89758.448500,0.344295376,10.0814676,0.55473933,-0.76954776,-0.679688394,-1.13522673
89758.458527,0.58588821,9.91904888,-0.313062325,-0.696065247,-0.705209196,-1.79028404
89758.468554,0.568953149,9.13518282,-1.59511581,-0.452259541,-0.78008157,-2.38935351
89758.478580,0.518313972,8.07412887,-2.52936066,-0.20120202,-0.901413083,-2.91049147
89758.488607,0.673736004,7.12095312,-3.29937648,-0.0463378616,-1.08705139,-3.34535551
89758.498634,0.804238992,6.08540479,-4.02914738,-0.0208897628,-1.37019205,-3.6733408
89758.508661,0.964254782,4.7789063,-4.70229272,-0.0158910099,-1.76883388,-3.87475228
89758.518688,1.4396026,3.45375397,-5.41277265,-0.00994257256,-2.2209518,-3.98171687
89758.528715,1.92365628,2.17954067,-5.61828587,-0.135989189,-2.65830731,-4.01393127
89758.538742,2.30340817,0.795222742,-5.01445547,-0.350339293,-3.02543283,-3.94632554
89758.548769,2.58257611,-0.784258572,-4.1021869,-0.59376657,-3.28940535,-3.75161672
89758.558796,2.67544934,-2.63407775,-2.92235752,-0.888130844,-3.42260051,-3.43274665
89758.568823,2.61880507,-4.55720796,-1.0947756,-1.00385988,-3.44187713,-2.97980094
89758.578850,2.75516234,-6.73175857,0.386041637,-0.751013219,-3.36981058,-2.368613
89758.588877,3.1706028,-8.96657514,1.50563779,-0.390159398,-3.18819189,-1.67005527
89758.598904,3.26231983,-10.4861707,3.4478918,-0.00113203668,-2.85436893,-0.935905337
89758.608931,3.08339301,-11.4716337,5.25756572,0.313036829,-2.33762407,-0.164165229
89758.618958,2.77821384,-11.755681,7.04526513,0.451753706,-1.68173945,0.59515363
89758.628984,2.85591258,-11.2399982,8.48569892,0.250890881,-0.896071017,1.32683504
89758.639011,2.56216753,-10.6064396,9.73701649,-0.02096886,-0.116347283,2.00537634
89758.649038,2.82383256,-9.53669909,10.2739788,-0.351156622,0.664605021,2.57085943
89758.659065,3.44556248,-8.18904354,10.3494277,-0.635425329,1.41154468,3.02397442
89758.669092,3.94499347,-6.84946842,9.96302363,-0.782864869,2.09654117,3.3706336
89758.679119,4.35235028,-5.61293516,9.16643136,-0.807434678,2.72629857,3.61576104
89758.689146,4.81130723,-4.3842909,8.22194101,-0.697748125,3.31427073,3.77998161
89758.699173,5.1594432,-3.03463599,6.8147034,-0.449515671,3.85880566,3.84193945
89758.709200,5.06174563,-1.56551387,4.96350328,-0.0571777262,4.30339289,3.77444196
89758.719227,4.50053097,-0.237813315,2.5514889,0.541479588,4.51531982,3.56427884
89758.729254,4.11042836,1.07452688,-0.428663804,1.29934204,4.45786428,3.23999739
89758.739281,4.07768199,2.37094646,-2.8384231,1.85074496,4.11302567,2.74437571
89758.749308,3.98222401,3.68903163,-4.13177481,2.0848341,3.56850195,2.11024499
89758.759335,3.35820247,5.21267795,-5.36598927,2.26231217,2.92570186,1.45939088
89758.769362,2.01734038,6.29542526,-6.8910139,2.32651711,2.25580692,0.89451772
89758.779389,0.427367919,6.74661829,-7.85311998,2.11365414,1.55839252,0.44621104
89758.789416,-0.816893014,7.08364309,-8.66383781,1.79587507,0.749446094,0.0864382312
89758.799443,-1.48502316,7.50254187,-9.9740068,1.42447913,-0.157987684,-0.261760235
89758.809470,-1.43404496,7.7057965,-10.8387146,1.05623031,-1.10872281,-0.609161079
89758.819497,-0.914318638,7.6597011,-10.7598673,0.692408383,-1.9751128,-0.972973883
89758.829524,-0.657342503,7.3962337,-9.41402489,0.425658166,-2.61635208,-1.34431982
89758.839550,-0.661086658,6.8998279,-7.48818543,0.269249141,-3.00990486,-1.69910192
89758.849577,-0.672104896,6.15598288,-5.52412232,0.145006523,-3.1929903,-2.03322387
89758.859604,-0.556217002,5.17253006,-3.70488795,-0.0401015393,-3.23518395,-2.30356002
89758.869631,-0.188201143,3.9589767,-2.08408299,-0.225227728,-3.17797112,-2.48515844
89758.879658,0.399594654,2.49070301,-0.946928384,-0.365658849,-3.07750344,-2.56530333
89758.889685,0.957226783,0.929023309,0.0248304899,-0.409020185,-2.89894271,-2.55627203
89758.899712,1.35174282,-0.665399845,0.881300604,-0.332071334,-2.68464756,-2.44937968
89758.909739,1.46447634,-2.20688694,1.64196349,-0.253491849,-2.43799567,-2.2320354
89758.919766,1.39226421,-3.57767056,2.65004923,-0.201708555,-2.13197446,-1.86337495
89758.929793,1.61521255,-4.91579285,3.64048124,-0.170538649,-1.76597953,-1.3579185
89758.939820,1.8803698,-5.95580226,4.44428944,-0.166462675,-1.33801568,-0.792269111
89758.949847,1.88485922,-6.31569706,5.16699698,-0.276489556,-0.868031919,-0.226484269
89758.959874,1.76077253,-6.10544512,5.88516688,-0.486287266,-0.394641489,0.288966835
89758.969901,1.72855427,-5.48867574,6.30132776,-0.693616748,0.0787463114,0.710610986
89758.979928,1.76643012,-4.54733393,6.26462095,-0.796699703,0.557377338,1.01089382
89758.989955,1.68643479,-3.44967225,5.65371959,-0.772892952,1.00036621,1.17506301
89758.999982,1.34383628,-2.4826822,4.70562333,-0.609469116,1.35456932,1.2144227
89759.010009,0.913211408,-1.63417503,3.35442441,-0.305991799,1.58258069,1.15417266
89759.020036,0.80810122,-0.844891905,1.82407421,-0.0258677434,1.66698027,1.02796733
89759.030063,1.00570148,-0.226919581,0.692030663,0.152612507,1.60218179,0.888367951
89759.040090,1.17688543,0.339952086,-0.305016966,0.21858114,1.43606341,0.750794411
89759.050116,1.1069433,0.760455964,-1.22145493,0.184147537,1.1768142,0.644083142
89759.060143,0.956796282,0.951683469,-1.84382871,0.096710369,0.874559045,0.572057128
89759.070170,0.623259324,0.998726083,-2.20374046,0.0615862049,0.595628619,0.506834447
89759.080197,0.246616507,1.11836018,-2.51022458,0.0761845931,0.372479409,0.437021822
89759.090224,-0.00362198989,1.26171534,-2.54174141,0.114812143,0.19331789,0.356854528
89759.100251,-0.213975051,1.37899966,-2.379778,0.153871119,0.0442114994,0.268354774
89759.110278,-0.375989906,1.47979081,-2.03549402,0.159617156,-0.0612177216,0.180023044
89759.120305,-0.496541993,1.5352447,-1.52251995,0.136880949,-0.116235964,0.0969292149
89759.130332,-0.53236091,1.52608729,-1.00937344,0.122098021,-0.130356848,0.0217971802
89759.140359,-0.551503417,1.4447911,-0.599455255,0.10633903,-0.103870638,-0.0454007611
89759.150386,-0.66955112,1.32127958,-0.223086871,0.0660065189,-0.0479085743,-0.105056904
89759.160413,-0.724007225,1.17297849,0.105859252,0.0332757384,0.0195583515,-0.148420095
89759.170440,-0.65484981,0.902919439,0.177924956,0.0446349196,0.060503386,-0.172954723
89759.180467,-0.551824904,0.570487811,-0.00521568882,0.0778426751,0.0631297976,-0.175815225
89759.190494,-0.473938531,0.249423381,-0.16888591,0.106541432,0.036130935,-0.168743476
89759.200521,-0.374996219,0.0554644053,-0.255052619,0.101989821,-0.00895877741,-0.153884366
89759.210548,-0.256550457,-0.137169752,-0.171690446,0.0806254148,-0.0577803813,-0.12042734
89759.220575,-0.153665836,-0.325147608,-0.0578407791,0.0527104214,-0.0918126479,-0.0611269921
89759.230602,-0.0529796028,-0.482995114,0.110937578,0.029344378,-0.0998788252,0.00833463576
89759.240629,0.0514504935,-0.540628387,0.344836351,-0.000516580127,-0.0889556035,0.074043341
89759.250655,0.106566524,-0.538715247,0.580514992,-0.0230679624,-0.063414827,0.129983574
89759.260682,0.215436356,-0.44884676,0.830591577,-0.0418467075,-0.0128334109,0.182777017
89759.270709,0.284415784,-0.372007851,1.09619599,-0.0399563983,0.0663223937,0.231210589
89759.280736,0.347732072,-0.270581612,1.30349141,-0.0507243574,0.175073102,0.274338633
89759.290763,0.282896904,-0.0624678544,1.51397891,-0.0521310382,0.304343492,0.305198282
89759.300790,0.212020995,0.219132873,1.53800978,-0.0111316741,0.435919881,0.313527584
89759.310817,0.1651929,0.652201633,1.28383862,0.139057294,0.557122469,0.255871713
89759.320844,0.0466197124,1.46992993,0.563979452,0.522538126,0.654440224,0.0701095834
89759.330871,-0.393864586,2.99356778,-0.908828663,1.06256294,0.691518664,-0.281395435
89759.340898,-0.914971111,5.05456419,-2.52879425,1.46824121,0.598266482,-0.832837284
89759.350925,-1.49366999,7.09337187,-3.9209366,1.70838702,0.308024257,-1.48101807
89759.360952,-1.76667708,8.64677912,-5.56119503,1.74385583,-0.248443544,-2.14443135
89759.370979,-1.56933021,9.41948959,-6.82546152,1.56130624,-0.999808311,-2.78290081
89759.381006,-1.00376203,9.45449134,-7.34556968,1.20876122,-1.7998054,-3.3544817
89759.391033,-0.154758016,8.58721634,-6.92272012,0.853056908,-2.46235299,-3.79296637
89759.401060,0.806048379,6.94608287,-5.5982736,0.469377369,-2.87196541,-4.06021786
89759.411087,1.39288381,5.00558009,-3.47002706,0.0488378778,-3.0362215,-4.16036272
89759.421114,1.85451844,2.861856,-1.34219787,-0.320448011,-2.99484062,-4.0592804
89759.431141,2.52489871,0.351971609,0.303382058,-0.588651001,-2.83057594,-3.77758908
89759.441168,3.07257877,-2.5168402,1.7167519,-0.827932298,-2.61274314,-3.30278683
89759.451195,3.54688584,-5.77745118,3.40205768,-1.00131428,-2.3232491,-2.55881262
89759.461222,3.8418277,-9.2987601,5.0917959,-1.09918618,-1.91531181,-1.53759015
89759.471248,3.89200393,-12.4161393,6.70931293,-1.06249261,-1.39158344,-0.335356176
89759.481276,3.94238884,-14.2310107,7.97405522,-1.02532613,-0.739234626,0.871326387
89759.491303,4.12723366,-14.4204636,9.24079306,-1.1052438,0.0279032774,1.94045126
89759.501330,4.14918041,-13.2707313,10.1158551,-1.35270715,0.872038245,2.83556151
89759.511357,3.65473685,-11.6221914,10.393683,-1.60996234,1.67736328,3.54521298
89759.521384,3.36109585,-9.66949077,9.82740637,-1.80664086,2.37336111,4.03889942
89759.531411,3.8365743,-7.44338299,8.53549142,-1.88421369,2.87450767,4.32498503
89759.541438,4.48509462,-5.18544391,7.20872609,-1.92602718,3.2107079,4.43310404
89759.551465,4.92794915,-3.17920053,6.43182402,-1.91938603,3.53234911,4.41696167
89759.561492,5.02195138,-1.32071143,5.6258151,-1.70067477,3.91377997,4.28753471
89759.571519,4.68658165,0.189919345,4.04778661,-1.34816694,4.25936031,4.0372858
89759.581546,4.17579662,1.53620784,2.66541631,-0.863347232,4.51243687,3.69395709
89759.591573,3.72109616,2.94103387,0.90502927,-0.270694047,4.68796682,3.24797487
89759.601600,3.04953487,4.0243806,-1.33796827,0.21269232,4.59928179,2.71432161
89759.611627,2.54999253,4.85547019,-3.17670813,0.552026689,4.16069603,2.14980316
89759.621654,2.32127525,5.46340394,-4.94916554,0.770485818,3.48318148,1.60460782
89759.631681,2.06086344,5.8774886,-6.36037499,0.78993541,2.71057606,1.14414692
89759.641708,1.61234503,6.02459347,-6.69732906,0.646345735,1.98694777,0.777120471
89759.651735,0.923597412,6.01275982,-6.33594548,0.372618884,1.43049622,0.481064081
89759.661762,0.149556428,6.00930354,-5.70654108,0.00817060564,0.9857952,0.242150038
89759.671789,-0.401695023,6.01800532,-5.11647909,-0.319106847,0.612256229,0.0224269964
89759.681816,-0.654839946,5.83302226,-4.79388906,-0.55595696,0.315092444,-0.174540922
89759.691842,-0.622462329,5.55123829,-4.56128033,-0.771441281,0.050903935,-0.374557912
89759.701869,-0.797622496,5.41305614,-4.30290704,-0.931462646,-0.190023452,-0.602284551
89759.711896,-0.971516151,5.35078644,-4.25166668,-1.02037823,-0.427639991,-0.862246096
89759.721923,-1.08220041,5.213401,-4.22840271,-1.06887043,-0.667725563,-1.1521101
89759.731950,-1.1944577,4.98662989,-4.14400944,-1.096187,-0.913557708,-1.46336472
89759.741977,-1.0388256,4.69729769,-4.0654421,-1.08650446,-1.15256369,-1.77551651
89759.752004,-0.814570343,4.29607368,-4.06656146,-1.01288855,-1.37933683,-2.06649256
89759.762031,-0.66864723,3.60957289,-4.21153165,-0.938291788,-1.61818647,-2.31629467
89759.772058,-0.542118188,2.74757904,-4.38438354,-0.843190849,-1.89586067,-2.52716327
89759.782085,-0.249762185,1.70474406,-4.45515804,-0.65698266,-2.19048071,-2.68388057
89759.792112,0.416037035,0.421538336,-4.35301693,-0.443739593,-2.48702812,-2.73102903
89759.802139,1.09919721,-0.883664849,-3.71118092,-0.288026422,-2.71173573,-2.66620755
89759.812166,1.31789739,-2.32036486,-2.5984681,-0.113256752,-2.79481888,-2.46008563
89759.822193,1.11152756,-3.78094477,-1.87360718,0.0366994552,-2.79085445,-2.12294984
89759.832220,0.723628747,-5.15032758,-1.1841788,0.220332131,-2.78869987,-1.70288455
89759.842247,0.869109816,-6.46597647,-0.552961215,0.434179187,-2.81258678,-1.19930851
89759.852274,1.42272599,-7.90001325,0.259002234,0.766226351,-2.81554508,-0.597215235
89759.862301,1.93392487,-8.94481865,1.25564128,1.04053056,-2.67535281,0.0597786307
89759.872328,2.16618493,-9.10535583,2.7485324,1.10306609,-2.33824015,0.696404099
89759.882355,2.0366692,-8.71328719,4.34245754,1.07847476,-1.86934543,1.2545917
89759.892382,1.84895029,-7.95408094,5.23162055,1.10509539,-1.34382176,1.71254814
89759.902409,1.66749277,-7.07517804,5.53475185,1.22733402,-0.794327736,2.1070509
89759.912436,1.53594232,-6.30122488,5.49117574,1.33242309,-0.228031024,2.45796013
89759.922463,1.53036657,-5.53277558,5.34276739,1.39321506,0.311960042,2.73313022
89759.932490,1.66639387,-4.57775566,4.42872362,1.61559546,0.771619499,2.95204854
89759.942516,1.92848121,-3.61695306,2.60345582,1.70665777,1.03932977,3.0980854
89759.952543,2.36677765,-2.53316122,1.54465813,1.43089485,1.10513806,3.13194919
89759.962570,2.79358004,-1.03705874,0.840468243,0.938167512,0.982931733,3.07973242
89759.972597,2.89354994,0.779545134,-0.369758611,0.450893968,0.716662765,2.96865463
89759.982624,2.58338451,2.23477156,-1.40829385,-0.0509797968,0.366966307,2.79078984
89759.992651,2.3907334,3.67086527,-1.63832367,-0.519377887,0.0141957216,2.50175929
89760.002678,2.35021873,5.57395865,-1.41864749,-0.863240719,-0.232934698,2.03946495
89760.012705,2.0286177,7.62745244,-0.71930913,-1.22769701,-0.32871449,1.40041101
89760.022732,1.28967448,9.37958486,0.667540365,-1.63013554,-0.295193821,0.644666612
89760.032759,0.905821297,10.3157943,2.22274035,-1.92034924,-0.108690254,-0.141081765
89760.042786,1.45289521,10.2823503,3.7180321,-2.01079655,0.272652566,-0.858644962
89760.052813,2.32721019,9.529565,5.3128726,-1.97838914,0.89193368,-1.4447186
89760.062840,2.90592339,8.28480576,7.17925333,-1.94417715,1.76233435,-1.87873232
89760.072867,3.0497526,7.01896574,8.82090176,-1.88758659,2.89330935,-2.15872622
89760.082894,3.31568405,6.02303922,9.53176514,-1.62172723,4.19219351,-2.3190906
89760.092921,3.58903045,4.84439789,8.41363497,-0.889240086,5.43649912,-2.47405624
89760.102948,2.48415899,3.79817239,5.1517848,-0.135293886,6.27054977,-2.68313241
89760.112975,1.45401822,2.85076352,1.9858196,0.422103882,6.45319128,-2.89817834
89760.123002,1.42521342,1.67731464,-1.45713007,0.54383111,5.83914566,-3.05459642
89760.133029,1.89464149,0.109190369,-5.10040649,0.615094125,4.55035591,-3.07584167
89760.143056,2.68686213,-1.5114095,-9.2719323,0.90519464,2.98059535,-2.82429123
89760.153083,3.07631591,-3.52863005,-12.0841834,1.18549788,1.53565884,-2.30144167
89760.163110,1.89079913,-5.19935786,-12.188254,1.22716725,0.446166575,-1.69336641
89760.173137,-0.927732758,-5.88101209,-10.7207885,1.03787243,-0.323364466,-1.08124161
89760.183164,-3.26965237,-6.50162529,-9.58724562,0.756376684,-0.98962611,-0.367868841
89760.193191,-3.48995049,-7.18159259,-9.66320774,0.496055067,-1.72978091,0.402469128
89760.203218,-2.52359523,-7.21576491,-10.2418803,0.0961305574,-2.53615665,1.0852083
89760.213245,-1.06347774,-6.63154989,-9.66905939,-0.446132183,-3.2426908,1.61672676
89760.223272,0.210264324,-5.8057812,-8.18905347,-0.926252723,-3.81330943,2.02245903
89760.233299,0.705350675,-5.00846587,-6.43718818,-1.21148109,-4.23551846,2.28058624
89760.243325,0.842005682,-3.94424061,-4.50087817,-1.33932984,-4.47937918,2.35158277
89760.253352,0.980148516,-2.6373011,-2.49552035,-1.34030509,-4.558496,2.222193
89760.263379,1.20675523,-1.30899439,-0.744150726,-1.20198524,-4.51262283,1.90916634
89760.273406,1.47699329,-0.117933246,0.742730922,-0.95048964,-4.34861755,1.48222733
89760.283433,2.039377,0.771825353,2.1396944,-0.61057359,-4.08225822,1.0348208
89760.293460,2.92267258,1.3856315,3.51606868,-0.209657058,-3.7126205,0.579822063
89760.303487,3.94759605,1.83120815,4.93695664,0.207858682,-3.20310068,0.131120458
89760.313514,4.62695837,2.36641919,6.51484133,0.526260912,-2.55212092,-0.307222277
89760.323541,4.4026671,3.03015037,8.31850052,0.523273349,-1.75569129,-0.695391595
89760.333568,4.14376482,3.37771059,10.4889332,0.292933911,-0.829809308,-0.974142015
89760.343595,4.63212906,3.36123175,12.1755793,0.0550845861,0.256134063,-1.11615133
89760.353622,4.93181693,2.97848448,13.1334821,-0.263015091,1.48198497,-1.16511726
89760.363649,5.06078935,2.4966964,13.8456355,-0.60552609,2.75219917,-1.15031838
89760.373676,5.36621841,2.22142313,13.7902017,-0.724141181,4.06315947,-1.10089493
89760.383703,5.27942743,2.21876472,12.099692,-0.559858203,5.35940838,-1.13044608
89760.393730,4.09213663,2.63230198,9.16741394,-0.252806664,6.3973546,-1.32507265
89760.403757,2.99900967,3.00194631,5.64345655,0.329277843,7.02609396,-1.64246511
89760.413784,2.34124778,2.74055864,1.27396663,1.06954849,7.12150383,-2.03470063
89760.423811,1.8756986,2.03512972,-3.28828576,1.63168061,6.34808493,-2.38509512
89760.433838,1.75707207,1.21503206,-8.04257404,2.02688217,4.72991943,-2.61551142
89760.443865,2.00474232,-0.102564887,-13.4775667,2.54193449,2.5909977,-2.58897042
89760.453892,1.94350474,-1.89630372,-18.0279551,2.81222773,0.404109091,-2.28786564
89760.463919,0.436413834,-3.39128378,-18.4785864,2.41735864,-1.33433235,-1.81420231
89760.473946,-1.70644502,-4.3212128,-14.9086774,1.4246707,-2.38281822,-1.19240952
89760.483973,-2.46752818,-5.38479334,-10.5077782,0.282132417,-2.90178704,-0.376143754
89760.494000,-1.90555568,-6.79715371,-7.32019091,-0.684007525,-3.12681484,0.513578653
89760.504026,-1.18835521,-7.66980514,-5.14337645,-1.27721226,-3.21275616,1.33234811
89760.514054,-1.09712706,-7.44693046,-3.94798184,-1.58559489,-3.23949194,1.92622638
89760.524081,-1.25567518,-6.36086891,-3.08810513,-1.65984774,-3.28768396,2.25891423
89760.534108,-0.889454977,-4.97654572,-2.54245278,-1.57783866,-3.34753346,2.36792493
89760.544134,-0.464248181,-3.67246511,-2.03330966,-1.37416005,-3.42106676,2.31600165
89760.554162,-0.0753404877,-2.54576936,-1.51641579,-1.09199822,-3.5066576,2.16113067
89760.564189,0.488204373,-1.54674911,-0.821758866,-0.740293205,-3.56486821,1.95977688
89760.574216,1.21626117,-0.71468432,-0.0155202252,-0.363464415,-3.56490684,1.73783326
89760.584243,2.04277278,-0.11297376,0.985410383,-0.0103886481,-3.4625473,1.53337359
89760.594270,3.00906462,0.214570095,2.20044551,0.250743866,-3.24066925,1.37945545
89760.604297,3.81084014,0.449951945,3.55407429,0.410520762,-2.90093732,1.23747349
89760.614324,4.11710156,0.826184793,4.86843547,0.468116939,-2.44045305,1.06440294
89760.624351,4.06742217,1.29977444,6.10362901,0.434625834,-1.8775177,0.859715044
89760.634377,4.00434056,1.76024281,7.38014182,0.234487414,-1.25660431,0.634435833
89760.644405,3.98008203,2.23769841,8.80782484,-0.0366764441,-0.565413058,0.418292105
89760.654432,4.24650068,2.56708453,9.90137528,-0.261254966,0.247512296,0.194075257
89760.664459,4.1917374,2.65423499,10.5670896,-0.497644067,1.20578551,0.0249320343
89760.674485,4.55161701,2.59858208,11.2195984,-0.544478416,2.28490996,-0.129485235
89760.684513,4.35281702,2.45063754,10.8259217,-0.359425992,3.40982842,-0.280779421
89760.694540,3.86308763,2.37093579,9.6690214,-0.0274137035,4.47257948,-0.480623811
89760.704567,3.04773016,2.35592468,7.83804808,0.364531964,5.35437918,-0.745714605
89760.714593,2.28062789,2.43012433,5.38911764,0.881703198,5.98603153,-1.04369283
89760.724621,1.73140089,2.4136943,2.23988963,1.44723105,6.32485819,-1.33095682
89760.734647,1.30882532,2.12379643,-0.932047041,1.61448348,6.13139153,-1.57699192
89760.744674,1.16497478,1.66829357,-3.33243528,1.53891551,5.26307487,-1.71740007
89760.754701,1.69002609,0.947234673,-7.04239162,1.53852713,3.90549517,-1.73881567
89760.764728,1.9483817,0.0164157127,-11.173683,1.48512757,2.36742949,-1.65630424
89760.774755,0.998182624,-0.598407353,-13.2118477,1.34222484,0.968065977,-1.49608314
89760.784781,-1.26109356,-1.15507604,-13.4236831,0.998968065,-0.135993019,-1.22080791
89760.794809,-3.16976109,-2.21609039,-12.5629864,0.551324487,-1.03012824,-0.767147779
89760.804836,-3.49337082,-3.49712432,-11.7396288,0.0817700401,-1.81519568,-0.18722789
89760.814863,-2.75210675,-4.32909946,-10.791539,-0.376953602,-2.49789548,0.391235471
89760.824889,-1.7373332,-4.53333258,-9.37777051,-0.799458265,-3.03210282,0.889934957
89760.834917,-1.34378426,-4.23733917,-7.82205205,-1.19438255,-3.42151594,1.28204203
89760.844944,-1.45075264,-3.77195366,-6.35039428,-1.43151104,-3.70655107,1.5578773
89760.854971,-1.116254,-3.1311312,-5.33945607,-1.50106525,-3.9155879,1.69926798
89760.864998,-0.587812163,-2.4058601,-4.49192213,-1.4570142,-4.10826683,1.70086491
89760.875025,0.00788081638,-1.82689628,-3.53409358,-1.31536341,-4.28505182,1.61895776
89760.885052,0.755809015,-1.31222154,-2.43189572,-1.11403,-4.42472363,1.49620521
89760.895079,1.51135441,-1.01525739,-1.14406248,-0.880227387,-4.49165678,1.3686105
89760.905106,2.28983908,-0.835922489,0.188485513,-0.651544392,-4.45690918,1.22643948
89760.915132,3.07952464,-0.623461277,1.59908355,-0.441929668,-4.3041296,1.09718931
89760.925160,3.81283424,-0.458769312,2.98001184,-0.281440645,-4.00200558,0.990056276
89760.935187,4.54229739,-0.27026787,4.37868036,-0.156722158,-3.56920552,0.901218534
89760.945214,5.08392882,-0.0791158415,5.6188248,-0.00547511503,-3.01757884,0.805098414
89760.955240,5.38425675,0.119459871,6.66145871,0.139932409,-2.36838889,0.669628203
89760.965268,5.43160069,0.399528749,7.85548788,0.243790627,-1.66935241,0.488610208
89760.975295,5.12632185,0.859317759,9.13890914,0.228387699,-0.942350268,0.273395658
89760.985322,5.24984828,1.20765751,10.6954038,0.132480085,-0.114592135,0.0620940514
89760.995349,5.57002073,1.30352619,11.9387123,0.0533804782,0.869711936,-0.119969226
89761.005376,5.5167626,1.3974007,12.7076602,-0.055227492,1.9945569,-0.270481229
89761.015403,5.36965773,1.43875329,13.4692899,-0.213720471,3.23608518,-0.401107162
89761.025430,5.47271829,1.51001688,13.6760528,-0.267085433,4.53998613,-0.500677168
89761.035457,5.90426847,1.54174195,12.7685206,-0.104093298,5.93687439,-0.636021972
89761.045483,5.77470861,1.71749175,10.8695399,0.290617794,7.30043745,-0.903833687
89761.055511,4.63721995,2.29293193,7.95712863,0.953157425,8.50888538,-1.35750902
89761.065538,3.40846843,2.87976078,3.99911231,2.19506526,9.46339989,-1.96945822
89761.075565,2.49654326,2.95838774,-1.14002344,3.43124199,9.82569408,-2.63278866
89761.085591,1.88673086,2.03686984,-4.89411469,3.72171903,8.98822212,-3.07848883
89761.095619,2.83415697,0.153984547,-8.22038326,3.74904251,6.83361435,-3.16910291
89761.105646,4.77211649,-2.03166073,-16.066489,4.26566458,3.94572544,-3.0242908
89761.115673,4.71127507,-3.1490921,-23.3686801,4.28913689,1.06883204,-2.71654582
89761.125700,1.17971298,-3.51391033,-22.9497533,3.26337409,-1.02503872,-2.26005173
89761.135727,-3.11918182,-4.33502768,-17.4983712,1.77274716,-2.20124674,-1.43933392
89761.145754,-3.45871481,-6.41742725,-12.8357056,0.424513549,-2.82726097,-0.213462159
89761.155781,-1.65309951,-7.9411554,-9.7553471,-0.826260269,-3.18623757,0.969833255
89761.165808,-0.691953652,-7.53938428,-6.84917499,-1.87190306,-3.44543076,1.86617184
89761.175835,-0.0461149412,-6.08588819,-4.70291056,-2.54194689,-3.63243628,2.415905
89761.185862,0.369046955,-4.49340681,-3.298322,-2.8042078,-3.74235415,2.68560314
89761.195889,0.46433849,-3.21674262,-2.18766377,-2.76034427,-3.78798318,2.74674869
89761.205916,0.573363951,-2.22396156,-1.18027186,-2.41745687,-3.77670217,2.64169598
89761.215942,1.01147538,-1.1249701,-0.455792049,-1.88558471,-3.71360445,2.38221097
89761.225970,1.46352357,0.0288610606,0.408870724,-1.3212204,-3.59836149,1.99887395
89761.235997,1.75192053,0.887493614,1.57592479,-0.813897908,-3.40666032,1.57619882
89761.246024,2.01917505,1.46023856,2.79493935,-0.395581603,-3.12327337,1.1717099
89761.256051,2.3407825,1.78777072,3.96678942,-0.0837563351,-2.74060416,0.818551898
89761.266078,2.72708921,1.91993667,5.08323733,0.139034122,-2.24521995,0.516540885
89761.276105,3.06638605,1.96473648,6.05143354,0.286870986,-1.65605664,0.241347969
89761.286132,3.15060046,1.99223268,6.97884123,0.30881092,-1.02974296,0.00152231613
89761.296159,3.25803237,2.01515529,7.99768802,0.16740185,-0.370149076,-0.1922317
89761.306186,3.62153221,2.0004287,8.89158157,-0.00632519647,0.33511591,-0.330127239
89761.316213,4.09088078,1.87644342,9.32401846,-0.188156784,1.0801965,-0.433845133
89761.326240,4.29595269,1.74769473,9.62748352,-0.364859372,1.85695434,-0.506289542
89761.336267,4.27377067,1.65573307,9.74628642,-0.460649818,2.6892333,-0.557419002
89761.346293,4.2843131,1.5598066,9.43148748,-0.46236518,3.53641295,-0.617416322
89761.356321,4.11518812,1.54848763,8.58427094,-0.301207185,4.38847303,-0.71170181
89761.366348,3.37971901,1.56082688,7.01639092,0.00867292751,5.15571451,-0.876508355
89761.376375,2.45448866,1.64080614,4.94674153,0.490385771,5.77756453,-1.08526611
89761.386401,1.7438176,1.51307656,2.29266436,0.991287768,6.14202452,-1.31435013
89761.396429,1.13416718,1.11217272,-0.426693381,1.3946805,6.06607485,-1.53208137
89761.406456,0.643145563,0.553267358,-3.46726461,1.59807134,5.39306641,-1.6841222
89761.416483,0.727676853,-0.236123755,-6.96060415,1.80654252,4.18909502,-1.72604752
89761.426510,1.12527062,-1.06298068,-11.1149924,2.03094077,2.66526747,-1.65808892
89761.436537,0.731131086,-1.38613199,-14.3678029,2.09005737,1.06461644,-1.52023947
89761.446564,-1.31411466,-1.72867965,-15.4955292,1.68732882,-0.400217175,-1.26072347
89761.456591,-3.18982305,-2.75608442,-14.6095693,0.981855333,-1.57384408,-0.7575984
89761.466618,-3.43521819,-4.03900651,-13.2632132,0.120769046,-2.47500706,-0.0480076149
89761.476645,-2.78555017,-4.94906501,-11.8400099,-0.763406813,-3.19052267,0.689557195
89761.486672,-1.9269448,-5.22506631,-10.281906,-1.59378922,-3.76999354,1.30872035
89761.496699,-1.22598542,-4.73176899,-8.71452463,-2.22852755,-4.24587059,1.73367679
89761.506726,-0.772649968,-3.96577878,-7.40630677,-2.6610477,-4.64094353,1.9778955
89761.516753,0.0233338946,-3.36835707,-5.89995528,-2.78624177,-4.93212605,2.0794611
89761.526781,1.01162721,-2.79748143,-4.43034684,-2.61356282,-5.09961557,2.04775977
89761.536808,1.73502434,-2.20128766,-2.8394577,-2.23323607,-5.14907694,1.8948909
89761.546835,2.1820018,-1.59747816,-1.13185825,-1.74648619,-5.08449078,1.6492002
89761.556862,2.57041251,-1.04688345,0.616150954,-1.25183082,-4.89331532,1.38200736
89761.566889,3.01437296,-0.712301297,2.3243776,-0.806006968,-4.58400917,1.14847934
89761.576916,3.5287037,-0.530264011,3.88930636,-0.468616724,-4.13177013,0.966234863
89761.586943,4.04707613,-0.337273551,5.426015,-0.258348167,-3.54252195,0.809812546
89761.596970,4.47044592,-0.152838866,6.80489629,-0.106094457,-2.83755565,0.674780667
89761.606997,4.86716706,0.0332959195,7.83641142,0.0124295251,-2.0638237,0.576498866
89761.617024,5.06642999,0.184459472,8.82297214,-0.0244680382,-1.26186407,0.504087508
89761.627051,5.29301113,0.393205829,10.0627442,-0.233886778,-0.470052987,0.424003065
89761.637078,5.62898671,0.68468841,11.1603992,-0.416936219,0.380452812,0.324288994
89761.647105,5.90560468,0.871651609,11.6096335,-0.542850435,1.29463625,0.223353326
89761.657132,6.00105594,0.97182339,11.9265589,-0.624122679,2.29031539,0.129970372
89761.667159,5.98547726,1.02129294,11.9055582,-0.478770286,3.38259315,0.0340054967
89761.677186,5.6666118,1.02767234,10.8910994,-0.191915885,4.48417854,-0.105032817
89761.687213,4.84174679,1.12803723,9.55947966,0.215066254,5.46286297,-0.330307484
89761.697240,4.00815398,1.355144,7.37198014,0.809550941,6.31510878,-0.608711183
89761.707267,3.3901726,1.46983129,4.64169417,1.42187345,6.88763046,-0.896883547
89761.717294,3.03652838,1.51894501,2.00059748,1.96149135,7.09349394,-1.19375563
89761.727321,2.7523543,1.40791216,-0.768031952,2.1677444,6.75883055,-1.44650912
89761.737348,2.57618641,1.1270982,-3.53441331,2.24411774,5.86024618,-1.65239227
89761.747375,2.37727844,0.765166188,-7.61296857,2.48303342,4.52556229,-1.75899327
89761.757402,1.83645847,0.280189691,-12.1654039,2.65899825,2.93763208,-1.75486183
89761.767429,0.0688380104,-0.407331093,-15.1099259,2.53206301,1.3128494,-1.61827421
89761.777456,-2.37741142,-1.39988653,-16.4517357,2.05451989,-0.192298084,-1.25859773
89761.787483,-3.70543828,-2.75117473,-16.3900674,1.40047812,-1.48810124,-0.680858612
89761.797510,-3.47638461,-3.83281495,-15.4785453,0.601843536,-2.53541493,-0.0114259012
89761.807537,-2.72115076,-4.02983945,-13.6174311,-0.329806656,-3.34702444,0.601774395
89761.817564,-1.9790919,-3.82625399,-11.105806,-1.21176255,-3.94309163,1.09063649
89761.827591,-1.35356565,-3.54343599,-8.65719647,-1.85600114,-4.32847881,1.43109477
89761.837618,-0.858267811,-3.29008988,-6.49027329,-2.14811707,-4.53535461,1.64223099
89761.847645,-0.426501365,-2.95747121,-4.61914624,-2.07693172,-4.60974407,1.71029818
89761.857672,-0.0121134855,-2.41117267,-3.11915084,-1.76947379,-4.59025717,1.63124442
89761.867699,0.395232659,-1.72337628,-1.56937815,-1.35699165,-4.49273014,1.44050717
89761.877726,0.857799609,-1.12471086,0.00957096142,-0.920003593,-4.33066225,1.20394337
89761.887753,1.35079443,-0.702597942,1.4982734,-0.53255415,-4.08759165,0.974202275
89761.897780,1.9226772,-0.410219873,2.93767842,-0.234896913,-3.76452613,0.786255538
89761.907807,2.57598446,-0.248168121,4.23232368,-0.0300446972,-3.31028008,0.65172863
89761.917834,3.2440167,-0.122957906,5.44138091,0.08073055,-2.78603077,0.562640548
89761.927861,3.78996044,-0.032320663,6.40044923,0.131228343,-2.20200539,0.515790462
89761.937888,4.39948671,0.0742901749,7.19552467,0.107932076,-1.5933491,0.500935137
89761.947915,4.89846645,0.228042922,7.94575559,0.0397005603,-0.987685502,0.483057857
89761.957942,5.20369385,0.421860846,8.53720114,-0.0755016655,-0.395564109,0.432553947
89761.967969,5.47165505,0.712877271,9.16325507,-0.208921507,0.182078972,0.338737965
89761.977996,5.70658667,0.99163218,9.77580653,-0.217385292,0.832425296,0.210146695
89761.988024,5.74568885,1.12435021,10.0272427,-0.0736177415,1.60441017,0.0574759357
89761.998051,5.44720976,1.21763991,10.1821071,0.0387769789,2.46206164,-0.116871633
89762.008078,5.1556479,1.46606142,10.6926823,0.0811228305,3.37051153,-0.281046987
89762.018105,5.231883,1.74277554,10.9663087,0.0458918773,4.33718967,-0.430084139
89762.028132,5.60835368,2.04596018,10.8730821,0.0706906989,5.36807442,-0.588727355
89762.038159,5.71726939,2.4719308,9.62024714,0.339598328,6.50966072,-0.79153955
89762.048186,5.05455017,2.92484349,6.92869393,0.819254458,7.5800972,-1.10396767
89762.058213,3.73115929,3.08655206,3.5974879,1.29305446,8.3030262,-1.50189352
89762.068240,2.57094413,3.12713775,0.0833224263,1.78301561,8.43487358,-1.92581522
89762.078267,1.74353308,2.68657045,-4.46302746,1.96316385,7.6623354,-2.29827142
89762.088294,1.67270773,1.67269254,-9.20798443,2.21993899,5.95713472,-2.54141021
89762.098321,2.15831697,0.300374109,-15.7554976,2.75827312,3.67202592,-2.549613
89762.108348,1.96520994,-1.41717756,-21.4864308,2.93538308,1.2051698,-2.32388616
89762.118375,0.223485369,-2.93719327,-22.8177215,2.61145186,-0.940363526,-1.87572062
89762.128402,-2.44679723,-3.96705479,-20.392947,1.6911664,-2.4062829,-1.21062624
89762.138429,-3.11170053,-5.02506337,-15.9775762,0.482767195,-3.3096025,-0.379260898
89762.148456,-1.99212863,-5.72381195,-12.3875176,-0.77897352,-3.83778286,0.464151293
89762.158483,-0.786492177,-5.60976004,-9.49913303,-1.93162429,-4.17408848,1.16712487
89762.168510,-0.230208101,-5.11356174,-7.18255588,-2.74927235,-4.39652252,1.65928245
89762.178537,0.0230938023,-4.37192563,-5.52428014,-3.15053749,-4.53203392,1.92111719
89762.188564,0.213742777,-3.58124784,-4.22846701,-3.17145181,-4.57479334,1.99008238
89762.198591,0.739948306,-3.06940657,-3.02986512,-2.87910438,-4.60426331,1.91442788
89762.208618,1.3852083,-2.58771815,-1.85245158,-2.33100581,-4.59345293,1.72476602
89762.218645,1.91073425,-2.11434135,-0.631027036,-1.67626917,-4.54102659,1.48831117
89762.228672,2.37890589,-1.68940285,0.813464501,-1.048715,-4.40002203,1.24741304
89762.238699,3.09061624,-1.42823438,2.49764742,-0.532630861,-4.15439463,1.06388831
89762.248726,3.7516272,-1.2801592,4.17037664,-0.164687201,-3.7697618,0.923037112
89762.258754,4.41058328,-1.13564449,5.78250321,0.0950279981,-3.24900246,0.829585969
89762.268781,4.94709283,-0.90256383,7.14514063,0.261509389,-2.59383678,0.739085376
89762.278808,5.03241257,-0.533994977,8.25980459,0.355970383,-1.81935132,0.617921889
89762.288835,4.84329256,0.00869009607,9.18058439,0.347412318,-0.98708415,0.464297235
89762.298862,4.66490437,0.478953437,10.0765051,0.196497098,-0.162329808,0.31070289
89762.308889,4.83330483,0.782648945,10.9671294,-0.00238324259,0.674159527,0.167708695
89762.318916,5.04211505,1.02559246,11.3919061,-0.208641335,1.57153153,0.0282014031
89762.328943,5.14540006,1.20826607,11.5443751,-0.288402498,2.52553225,-0.0860886872
89762.338970,5.16637154,1.22622507,10.8967833,0.0163872503,3.59250426,-0.183876753
89762.348997,4.45867715,0.982426691,9.04229761,0.43205449,4.62189817,-0.335128069
89762.359024,2.89389598,0.964005118,7.21134066,0.861166179,5.4787755,-0.562803566
89762.369051,1.71508162,1.12544656,4.78829928,1.36520243,6.04159689,-0.812448323
89762.379078,1.04315282,1.10962004,1.85112471,1.7820065,6.23234224,-1.04898202
89762.389105,0.762711634,0.874032001,-0.925759339,2.02548552,5.96536827,-1.23689115
89762.399132,1.11029012,0.513054225,-4.10182975,2.08422875,5.15278673,-1.34851193
89762.409159,1.37387267,0.0332885216,-8.06608468,1.96584761,3.82148504,-1.41202986
89762.419186,0.976391137,-0.260444103,-12.0251724,1.84137022,2.19287896,-1.40645051
89762.429213,-0.442500533,-0.246958014,-15.1147985,1.57020557,0.579741538,-1.29051006
89762.439240,-2.51085031,-0.49937444,-16.028654,1.04153717,-0.803742111,-1.04635549
89762.449267,-3.84511855,-1.26780957,-15.1885546,0.320838332,-1.91416466,-0.662635922
89762.459294,-3.86231928,-2.22197798,-13.7867507,-0.33324787,-2.82012415,-0.191689208
89762.469321,-2.91298851,-3.10831994,-12.2650719,-0.845008671,-3.56519222,0.283750832
89762.479348,-1.8305095,-3.5880619,-10.2836164,-1.21852338,-4.14252186,0.673638701
89762.489376,-1.14490259,-3.43711964,-7.99439658,-1.44207251,-4.53975534,0.922888696
89762.499403,-0.525256485,-2.9414217,-5.69797374,-1.49832118,-4.76324558,1.05240643
89762.509430,0.0579430704,-2.56864082,-3.65007734,-1.35452855,-4.84772205,1.09424305
89762.519457,0.628056788,-2.2193472,-1.95810624,-1.03335559,-4.8337245,1.05933809
89762.529484,1.21921914,-1.82378925,-0.44201253,-0.652980864,-4.70956135,0.96511364
89762.539511,1.84233029,-1.42915924,1.137472,-0.311650157,-4.48026228,0.839650571
89762.549538,2.4125612,-1.13963904,2.71558407,-0.0313966796,-4.12686396,0.733169913
89762.559565,2.89745981,-0.91530195,4.19416785,0.178245232,-3.6839788,0.672549725
89762.569592,3.44971668,-0.829190551,5.45686957,0.327390522,-3.12680912,0.67550528
89762.579619,4.00130602,-0.769375184,6.55799658,0.421864539,-2.48125744,0.749488175
89762.589646,4.41798771,-0.724126467,7.52818309,0.403307647,-1.78473985,0.855674505
89762.599673,4.82364239,-0.517690616,8.50504542,0.216076776,-1.06061435,0.960146308
89762.609700,5.30541995,-0.066441763,9.44023661,-0.0833501592,-0.336422056,1.05341971
89762.619727,5.7082812,0.417917734,10.1666921,-0.396826059,0.428450584,1.10680926
89762.629754,5.96750614,0.922072321,10.6025724,-0.69370544,1.25497842,1.10071862
89762.639781,6.07825842,1.47238799,10.9876905,-0.931523323,2.13868642,1.04473543
89762.649808,6.107028,1.97760867,11.2621469,-1.04058588,3.1106298,0.958551884
89762.659835,6.06799188,2.31434618,11.1841062,-0.88176322,4.24377251,0.784160674
89762.669862,5.39862488,2.96495075,10.174852,-0.460199147,5.47108984,0.421608835
89762.679889,3.92898692,3.99857542,8.1794112,0.200047478,6.63863707,-0.145582423
89762.689917,2.40284586,4.74929588,5.21542286,1.04956079,7.53515482,-0.872486115
89762.699944,1.34318849,5.09420647,1.73505211,1.87586951,7.96021414,-1.67362094
89762.709971,0.61165072,5.11997979,-1.64876499,2.53863192,7.63022804,-2.42492628
89762.719998,0.557516394,4.48041494,-5.61958936,2.89221358,6.39695597,-2.99927616
89762.730025,1.95012664,3.13300226,-10.3091635,3.30507326,4.49924898,-3.30761242
89762.740052,3.18217224,1.38400185,-15.787139,3.55434966,2.3853817,-3.32277274
89762.750079,1.7231451,-0.248270412,-18.2566937,3.33197474,0.521204233,-3.06661344
89762.760106,-1.61589323,-1.89410417,-17.2213055,2.40007472,-0.87888962,-2.49138951
89762.770133,-3.13767639,-3.68633961,-14.2445588,1.1189326,-1.82243681,-1.64730978
89762.780160,-2.69368087,-5.2529708,-11.6055863,-0.327703953,-2.49534273,-0.652152419
89762.790187,-1.53905534,-6.41339872,-8.96186389,-1.65446341,-2.96255803,0.344067961
89762.800214,-0.673151483,-7.08045394,-6.58706368,-2.58329558,-3.27502537,1.18500066
89762.810241,-0.51600153,-6.72593206,-4.88620143,-3.01606441,-3.44919467,1.75999951
89762.820268,-0.544538693,-5.69522064,-3.60795727,-3.04859567,-3.53687692,2.05776119
89762.830295,-0.215973532,-4.59764402,-2.52046833,-2.73884058,-3.57624626,2.14983392
89762.840322,0.363891618,-3.63324515,-1.6210452,-2.19226265,-3.57865596,2.09777379
89762.850350,0.962905705,-2.82527779,-0.596452566,-1.57527745,-3.52626109,1.95640397
89762.860377,1.4855843,-2.14923,0.664164751,-0.989594042,-3.39745331,1.7795794
89762.870404,2.00561472,-1.59497348,1.92980662,-0.506398082,-3.18648219,1.60909975
89762.880431,2.54151608,-1.15413562,3.2755011,-0.145581573,-2.88793135,1.44328284
89762.890458,3.00814078,-0.756266111,4.4956806,0.101651914,-2.50727606,1.28806186
89762.900485,3.39314606,-0.296818608,5.52275629,0.279514611,-2.04693747,1.1246295
89762.910512,3.56511649,0.257913306,6.33839989,0.37594685,-1.51896775,0.922312677
89762.920539,3.65113211,0.868829464,7.13491209,0.346125573,-0.948807418,0.696293116
89762.930566,3.85756127,1.33524045,8.11911835,0.205675796,-0.351320028,0.475885391
89762.940593,4.18649453,1.66200441,9.03646292,0.0873776376,0.32525897,0.267706603
89762.950620,4.3319984,1.81855121,9.63187971,-0.0700527281,1.10243201,0.0728700161
89762.960647,4.301681,1.91140645,10.3744382,-0.216887966,1.98665476,-0.0949269831
89762.970674,4.2810202,1.95752991,10.6741413,-0.0187131092,3.0115056,-0.245646447
89762.980701,4.00399453,1.91443515,9.43511152,0.393065125,4.11487722,-0.437423348
89762.990728,3.02580387,1.89097215,7.98714091,0.837626815,5.08777285,-0.694130242
89763.000755,2.11713259,2.04063007,6.11442922,1.42986786,5.88156271,-0.987222016
89763.010783,1.67648681,2.07834912,3.14766791,2.02637768,6.38896847,-1.26530051
89763.020810,1.34981317,1.96845491,0.16659926,2.27976775,6.35913849,-1.47271717
89763.030837,0.860189866,1.72973296,-2.88038593,2.18343544,5.65926886,-1.60826087
89763.040864,0.625995033,1.43139211,-7.17782944,1.91468859,4.26353931,-1.65692317
89763.050891,0.538136498,1.0404296,-12.2120149,1.5984484,2.43843961,-1.64856386
89763.060918,0.0270155788,0.545354685,-16.4143087,1.2367202,0.439289927,-1.53116524
89763.070945,-1.05020924,-0.143538702,-18.5769731,0.785031557,-1.42253292,-1.28972304
89763.080972,-2.24000727,-1.30244746,-17.6937208,0.236859813,-2.85268903,-0.893147171
89763.090999,-2.26205017,-2.67452842,-14.6607793,-0.363726407,-3.81317592,-0.347423136
89763.101026,-1.13518871,-4.03527726,-11.0957148,-1.01915908,-4.36731577,0.247428775
89763.111053,-0.189364634,-4.60509521,-7.49994951,-1.58650982,-4.61106634,0.777545094
89763.121080,0.238570856,-4.53438151,-4.66254407,-1.96227813,-4.67441607,1.19647515
89763.131107,0.480275626,-4.2533992,-2.5902012,-2.11673594,-4.63352013,1.48021019
89763.141134,0.743071553,-3.89339451,-1.05750005,-2.04111004,-4.51365614,1.63525677
89763.151162,1.11826607,-3.38805634,0.055848144,-1.79613841,-4.34602737,1.67181396
89763.161189,1.61027977,-2.82805222,1.0718413,-1.46735764,-4.15005398,1.61644506
89763.171216,2.14667096,-2.3160185,2.17854932,-1.13461053,-3.90687895,1.49785984
89763.181243,2.70460792,-1.8229246,3.30828225,-0.825028837,-3.60258555,1.35546672
89763.191270,3.33942704,-1.41637998,4.42420293,-0.545213938,-3.2412715,1.21496093
89763.201297,3.92205186,-1.03485114,5.38268088,-0.276626676,-2.7709415,1.07399583
89763.211324,4.32800787,-0.681093528,6.26483722,-0.0384466015,-2.25451469,0.924461842
89763.221351,4.60536555,-0.329775085,7.04816611,0.180072963,-1.68080199,0.742371917
89763.231378,4.81227169,0.119922484,7.86683345,0.249862432,-1.02421057,0.536161482
89763.241405,5.08098458,0.633039106,9.11729294,0.191817507,-0.259179443,0.329034686
89763.251432,5.18250376,1.00059838,10.2819364,0.141304001,0.641001463,0.133090213
89763.261459,5.08822915,1.17217287,11.0494745,0.131427392,1.65518308,-0.0494425856
89763.271486,5.05702269,1.25898416,11.5742699,0.29624483,2.80308008,-0.243685305
89763.281514,4.94658371,1.32567373,11.3487579,0.741009772,4.08568478,-0.471126437
89763.291541,4.24474916,1.50615509,10.0608983,1.20280623,5.34627056,-0.76944679
89763.301568,3.00238938,1.88926754,8.40908856,1.70983803,6.43084002,-1.12010157
89763.311595,2.0725229,2.22937613,5.67957299,2.2920928,7.29208136,-1.47495556
89763.321622,1.40405022,2.33378212,2.36703776,2.66462946,7.77713251,-1.80303562
89763.331649,0.934482525,2.09047883,-0.303618205,2.54227829,7.53836775,-2.01776552
89763.341676,0.967558792,1.62975297,-3.55487158,2.28977489,6.49364853,-2.1561532
89763.351703,2.14269285,1.2274853,-9.35528512,2.20814776,4.70100594,-2.22352433
89763.361730,2.79377644,1.02349666,-15.8233606,2.06392765,2.4794414,-2.28961635
89763.371757,1.08324276,0.691048958,-19.7027389,1.77970684,0.286027402,-2.2083497
89763.381784,-2.2273097,-0.411008759,-20.3840038,1.31702864,-1.51672888,-1.87289441
89763.391811,-4.14907549,-2.301226,-18.075624,0.6306566,-2.81185055,-1.29542756
89763.401838,-3.48029477,-4.03048126,-14.5132226,-0.180759266,-3.69724774,-0.56245023
89763.411866,-1.72263306,-5.62606294,-10.8594791,-0.926722944,-4.27562237,0.254110485
89763.421893,-0.226082326,-6.73733783,-7.54142309,-1.44984198,-4.56780148,1.06036997
89763.431920,0.343838353,-6.79444036,-4.8465574,-1.80570233,-4.63295698,1.72765267
89763.441947,0.476069114,-5.93318126,-2.56529005,-1.99642599,-4.55535603,2.16646099
89763.451974,0.802446702,-4.75227198,-0.812827372,-2.0071137,-4.40510273,2.39610028
89763.462001,1.34067607,-3.67724387,0.557699349,-1.87960804,-4.19726229,2.45587254
89763.472028,1.79635589,-2.69979,1.80671975,-1.64127803,-3.93122411,2.37702656
89763.482055,2.25204272,-1.90324039,2.8962253,-1.26256263,-3.61488509,2.19927263
89763.492082,2.85606046,-1.41850472,3.9269069,-0.839366436,-3.21993184,1.9782114
89763.502109,3.41492506,-0.965519979,5.11225709,-0.41668123,-2.72773647,1.72237086
89763.512136,3.66122212,-0.445289177,6.20218232,-0.0198665019,-2.10598159,1.44117141
89763.522163,3.78942063,0.102226659,7.25301473,0.296999604,-1.43174183,1.13208866
89763.532191,3.84738095,0.673135993,8.15990395,0.500894666,-0.700665534,0.8038311
89763.542218,4.03467725,1.33911203,9.07986893,0.547524214,0.0683238357,0.460579515
89763.552245,4.4741889,1.94365336,10.02656,0.474508852,0.913030326,0.113087319
89763.562272,4.8224903,2.39393877,10.6999351,0.360517591,1.83136868,-0.214130491
89763.572299,4.9385705,2.68887551,11.1124719,0.299466223,2.82487154,-0.502900004
89763.582326,5.01583611,2.82204713,10.9441834,0.346232921,3.86932063,-0.761592984
89763.592353,4.61084778,2.84913154,10.0039098,0.501499176,4.91102505,-1.02579093
89763.602380,3.44145884,3.05975027,7.9479569,0.790472388,5.78583622,-1.3335458
89763.612407,2.24971092,3.08394187,4.91672283,1.2108767,6.44016075,-1.65289903
89763.622434,1.43157945,2.80003345,1.54755444,1.51339769,6.73678923,-1.91038144
89763.632461,0.675770579,2.14735164,-1.68629889,1.64073241,6.47066355,-2.06736469
89763.642489,0.588710647,1.1630669,-5.61689705,1.69273198,5.50308514,-2.0644424
89763.652516,1.14270807,0.123885542,-10.534513,1.82134593,3.9293716,-1.94855034
89763.662543,1.04113811,-0.754333828,-15.3994092,1.87028944,2.03037167,-1.78184664
89763.672570,-0.422292004,-1.39615158,-18.0382976,1.63242733,0.110680349,-1.51685381
89763.682597,-2.36376707,-2.10876735,-18.1838143,1.11595869,-1.56442797,-1.03527999
89763.692624,-3.10150676,-3.46419236,-16.2655678,0.321700931,-2.84137416,-0.327051699
89763.702651,-2.20106701,-4.6950657,-12.9428367,-0.60048008,-3.70898819,0.482020348
89763.712678,-0.720416945,-5.17682864,-9.4637794,-1.46876061,-4.24835491,1.22405076
89763.722705,0.397529684,-4.84206711,-6.23856647,-2.12693882,-4.52366972,1.77825642
89763.732732,0.981648692,-4.05236225,-3.5678392,-2.47719812,-4.62849379,2.11118722
89763.742759,1.43216908,-3.22504867,-1.485335,-2.47223425,-4.6191287,2.23577905
89763.752787,1.938057,-2.43479904,0.0852396581,-2.14615059,-4.50909042,2.17228127
89763.762814,2.52104671,-1.71175438,1.39967215,-1.56759346,-4.31284904,1.94940746
89763.772841,2.97295286,-1.03599556,2.66874575,-0.894690394,-3.98977041,1.63549483
89763.782868,3.23017435,-0.310300861,4.21919707,-0.321602136,-3.47601795,1.25508142
89763.792895,3.19199045,0.507912624,5.98003712,0.10498888,-2.76629496,0.838921785
89763.802922,2.83125891,1.27503002,7.5489681,0.41492942,-1.9270736,0.42180869
89763.812949,2.51098387,1.80848954,8.92104264,0.490708351,-1.00038326,0.0380727351
89763.822976,2.70226515,2.18759202,10.3203933,0.411528826,-0.0826624855,-0.297068506
89763.833003,3.42861397,2.56825854,11.0613543,0.235501096,0.826596618,-0.596804857
89763.843030,4.32180492,2.85340849,11.2495259,-0.0172813702,1.70557082,-0.864663243
89763.853058,4.93271827,2.94439955,11.2404331,-0.286695272,2.51376319,-1.07874119
89763.863085,5.35270075,2.83537014,11.011698,-0.490114987,3.33733892,-1.24552214
89763.873112,5.71434795,2.69748201,10.4072568,-0.498434961,4.19277763,-1.41580653
89763.883139,5.47425442,2.65491537,8.94483093,-0.120171532,5.05801868,-1.68546069
89763.893166,4.23479679,2.64071792,6.46048196,0.477952063,5.72672796,-2.03616762
89763.903193,2.86914703,2.42922709,3.83573026,1.3155911,6.14039993,-2.41284561
89763.913220,2.10984009,1.81293278,0.392920875,2.20370507,6.23535061,-2.73295951
89763.923247,0.803853207,0.916238574,-3.17583894,2.97488499,5.8331809,-2.91616583
89763.933274,0.155861922,-0.777018611,-6.99044341,3.52646327,4.80832195,-2.81200337
89763.943301,0.356557987,-2.58903567,-11.182023,3.49207592,3.25080395,-2.47547197
89763.953329,0.497752684,-4.09312213,-14.0511253,2.9780004,1.47531998,-1.88080359
89763.963356,-0.0346845791,-5.0574453,-15.1328696,1.98309064,-0.0542510822,-1.08701277
89763.973383,-1.2650211,-5.71580634,-13.4696242,0.663415909,-1.09303248,-0.189255491
89763.983410,-2.37632903,-6.09855068,-10.565149,-0.581124783,-1.74293602,0.709241748
89763.993437,-2.33149064,-6.17812165,-8.28848532,-1.56762135,-2.19742441,1.47847319
89764.003464,-1.60681882,-5.74046848,-6.58927668,-2.09796214,-2.57783651,1.99873424
89764.013491,-0.842279823,-4.86408897,-5.26852902,-2.17975259,-2.86359715,2.23790479
89764.023518,-0.181696821,-3.94530356,-3.82495459,-1.87253141,-2.99591827,2.26284289
89764.033545,0.269382502,-3.02699629,-2.29958802,-1.32721996,-2.96190119,2.1281085
89764.043572,0.470789347,-2.10696088,-0.661484718,-0.68289721,-2.78069901,1.91780233
89764.053600,0.611545286,-1.27688763,0.89577512,-0.125029132,-2.47517514,1.68471825
89764.063627,0.73753613,-0.474446481,2.46674258,0.296423286,-2.06215715,1.45975304
89764.073654,0.832915782,0.234415855,3.80553444,0.53302145,-1.58303368,1.26927495
89764.083681,1.08184904,0.718999115,4.94210627,0.496236265,-1.06733143,1.11014521
89764.093708,1.56957659,1.08197143,5.92208119,0.347018272,-0.575353444,0.975369096
89764.103735,2.17695913,1.4208561,6.26271073,0.144845486,-0.116391681,0.828302622
89764.113762,2.70523891,1.74687085,6.59009151,-0.149839938,0.343654215,0.652202249
89764.123789,3.17687764,2.22474701,6.94973555,-0.373247474,0.798507988,0.453860074
89764.133816,3.25601109,2.67201673,6.9406059,-0.581922948,1.27753925,0.227912709
89764.143844,3.12919293,2.99089183,7.08256055,-0.684678316,1.81061149,-0.0125518292
89764.153871,2.82437178,3.15947438,6.61692106,-0.563806236,2.37061214,-0.263198435
89764.163898,2.0922245,3.04144333,5.36926961,-0.244972587,2.83826756,-0.507456422
89764.173925,1.13802634,2.74511528,3.69147434,0.0944723189,3.13035536,-0.762559533
89764.183952,0.701628439,2.43577256,1.90905551,0.494417042,3.22919655,-0.989854932
89764.193979,0.559450431,1.99616417,-0.373158774,0.827585161,3.08546424,-1.15736938
89764.204006,0.223078249,1.29983669,-2.50565888,1.0089047,2.65158844,-1.21506917
89764.214033,-0.177959041,0.401557186,-4.43145392,1.03222704,1.99031651,-1.11905801
89764.224060,-0.356842284,-0.616154022,-6.09806027,0.822778404,1.21481013,-0.861323953
89764.234088,-0.474543804,-1.4554937,-7.05515524,0.419552654,0.438234508,-0.487032056
89764.244115,-0.927250601,-1.95629803,-7.46237762,-0.13830553,-0.266224861,-0.064665094
89764.254142,-1.59895335,-2.17288428,-7.42370331,-0.676396728,-0.859912217,0.360729605
89764.264169,-2.30056783,-2.50236568,-7.55734021,-1.19765532,-1.44434345,0.785498977
89764.274196,-2.38423688,-2.9346772,-7.47865538,-1.62258446,-2.02552128,1.16975844
89764.284223,-1.76392442,-2.89486132,-7.19590344,-1.97626078,-2.53678632,1.45641899
89764.294250,-1.10858537,-2.46195856,-6.39905163,-2.19137335,-2.97020841,1.60826313
89764.304277,-0.607417685,-1.98427763,-5.29758618,-2.18509459,-3.27854109,1.63124442
89764.314304,-0.16103315,-1.5498709,-3.99636856,-1.93484461,-3.43294764,1.54702115
89764.324332,0.25461905,-1.19020259,-2.55709038,-1.53380215,-3.42806578,1.39045942
89764.334359,0.48475657,-0.79552567,-1.04704237,-1.08895326,-3.30395818,1.18504083
89764.344386,0.668308865,-0.318264424,0.262114813,-0.654822409,-3.12752676,0.938712239
89764.354413,1.20009387,0.0702209162,1.38916186,-0.231801391,-2.92685986,0.683728218
89764.364440,1.97389944,0.257480595,2.3065941,0.196621329,-2.69808531,0.445530266
89764.374467,2.64799493,0.466394984,3.0781478,0.545120716,-2.41201568,0.2345296
89764.384494,3.1469019,0.732274264,4.03365171,0.742635131,-2.07368326,0.0534386411
89764.394521,3.50021615,0.937748614,5.0614259,0.829094887,-1.67638361,-0.10359785
89764.404548,3.87319811,1.15825256,6.09275164,0.730394423,-1.20481682,-0.210903794
89764.414576,4.23524921,1.33678841,7.44642192,0.495475769,-0.631328285,-0.275155842
89764.424603,4.43623853,1.4045326,8.60145413,0.207635179,0.089394182,-0.306368619
89764.434630,4.4541851,1.36833681,9.65104384,-0.134597793,0.935693502,-0.311837971
89764.444657,4.29027172,1.34813749,10.5612058,-0.444100499,1.88028264,-0.298885673
89764.454684,4.23843632,1.46232471,10.8408317,-0.567102075,2.93952417,-0.306893021
89764.464711,3.81089655,1.54435316,10.0298427,-0.441350251,3.97364354,-0.365489483
89764.474738,2.70102071,1.66371662,7.95134947,-0.176935926,4.80015278,-0.503406048
89764.484764,1.69278504,1.88500258,5.24314791,0.291437417,5.35950661,-0.706794083
89764.494792,1.05878878,1.98161732,1.91359023,0.799699605,5.59757853,-0.972997546
89764.504819,0.491271067,1.95494413,-1.12192138,1.16929889,5.4049716,-1.27261567
89764.514846,0.0791398434,1.60023243,-3.91560283,1.4315201,4.71997261,-1.52653825
89764.524873,0.252542208,0.861198166,-7.20103379,1.68718326,3.61412382,-1.64504647
89764.534900,0.405229079,-0.0509245699,-10.6196884,1.87213421,2.26358914,-1.60529876
89764.544927,-0.0770190884,-0.998658571,-12.8021657,1.7945689,0.875595033,-1.4331212
89764.554954,-1.27960449,-1.81480953,-13.3021973,1.46751213,-0.369459689,-1.12418842
89764.564981,-2.44088625,-2.7065763,-12.6266408,1.00383639,-1.32891965,-0.684055984
89764.575009,-2.93251885,-3.56727192,-11.2700847,0.451866508,-2.03803134,-0.147849292
89764.585036,-2.610632,-4.29570865,-9.68692413,-0.0986712128,-2.56594324,0.41277647
89764.595063,-1.79308169,-4.63539975,-8.16248988,-0.593680382,-2.95525742,0.911307991
89764.605090,-1.21413972,-4.43628032,-6.70710636,-0.983595431,-3.2439971,1.29116321
89764.615117,-0.822951291,-3.93494846,-5.33864125,-1.2440809,-3.4444623,1.5346514
89764.625144,-0.312800971,-3.28406025,-4.0688107,-1.35810602,-3.57287645,1.66457057
89764.635171,0.269553,-2.72153333,-2.93692731,-1.30594242,-3.64238,1.70056558
89764.645198,0.817234082,-2.15600972,-1.87489663,-1.12909436,-3.66381669,1.64882708
89764.655226,1.34076667,-1.60223704,-0.768722273,-0.875353873,-3.63680053,1.53434646
89764.665253,1.90611346,-1.11899862,0.327825595,-0.568751872,-3.55848217,1.38101816
89764.675280,2.5381884,-0.713213078,1.35148651,-0.241077363,-3.43654656,1.21267426
89764.685307,3.15798268,-0.408054768,2.35727683,0.0514804721,-3.24219942,1.05828547
89764.695334,3.7733267,-0.0747073957,3.45259545,0.2918787,-2.98368573,0.927395582
89764.705361,4.28153166,0.211529759,4.4672062,0.470718235,-2.66165566,0.810478806
89764.715388,4.73365086,0.47786418,5.4467474,0.530362904,-2.27932858,0.711438
89764.725416,5.15720273,0.812889624,6.45677843,0.473037839,-1.84599733,0.637481213
89764.735443,5.56642417,1.13352151,7.45712861,0.29785192,-1.35437763,0.575884402
89764.745470,5.97205898,1.43118928,8.4829429,0.0881743059,-0.758612454,0.523988485
89764.755497,6.17232202,1.75529951,9.44986661,-0.138522491,-0.00223560538,0.463413268
89764.765524,5.84793809,2.09614752,10.4900438,-0.389466554,0.916928113,0.358618438
89764.775551,4.9977551,2.47469851,11.4357125,-0.63608247,1.99762261,0.235092223
89764.785578,4.63008411,2.75853065,11.9766384,-0.678055227,3.2232976,0.0458975397
89764.795605,3.8904982,3.0799642,11.242998,-0.424301237,4.56833506,-0.258481532
89764.805633,2.27203483,3.41695159,9.27174934,0.0169097111,5.79621649,-0.683985949
89764.815660,0.435414009,3.64930343,6.4630182,0.853845656,6.8680644,-1.21018374
89764.825687,-0.940322556,3.57008493,2.17815594,2.03285909,7.65925932,-1.75795436
89764.835714,-1.85014228,2.8863802,-2.19068692,2.59374189,7.61228657,-2.16882014
89764.845741,-1.83500009,1.79088228,-4.70444786,2.55395794,6.4544816,-2.3777492
89764.855768,0.292895809,0.210594469,-9.33527109,2.62232733,4.45299816,-2.35776496
89764.865795,2.93196531,-1.33900258,-15.9676627,2.73248911,2.10492945,-2.17722607
89764.875823,2.65638954,-1.99022105,-19.329068,2.46557879,-0.0328177474,-1.93225169
89764.885850,-0.950754226,-2.39335293,-18.0505749,1.67042184,-1.59703469,-1.49507427
89764.895877,-3.68288392,-3.50360083,-14.3336224,0.703234315,-2.54051256,-0.762657881
89764.905904,-3.62979384,-4.95388965,-11.084506,-0.21684739,-3.0754571,0.107171021
89764.915931,-2.48481775,-5.6172577,-8.59598768,-1.03397691,-3.4096632,0.905602396
89764.925958,-1.41947005,-5.25182396,-6.63395929,-1.69675696,-3.63901782,1.50402832
89764.935985,-0.89036252,-4.44076711,-5.13812452,-2.08251262,-3.80562305,1.87138796
89764.946012,-0.521712675,-3.56411258,-4.0165825,-2.19622183,-3.91501951,2.04228067
89764.956040,-0.0262935482,-2.82837663,-2.98573606,-2.00105023,-3.9649241,2.0492003
89764.966067,0.462297778,-2.20612867,-2.28957867,-1.57187283,-3.96851611,1.9511323
89764.976094,0.896094707,-1.67082382,-1.54519531,-1.0866369,-3.96467829,1.77154124
89764.986121,1.50259652,-0.990817868,-0.520790884,-0.651510417,-3.94659996,1.53184319
89764.996148,2.28068546,-0.283930266,0.605071926,-0.319229931,-3.87861562,1.25627971
89765.006175,2.99550868,0.28789979,1.78875973,-0.0654834285,-3.75177073,1.00552821
89765.016202,3.56052946,0.665834584,2.93015796,0.107497133,-3.52988315,0.786378026
89765.026230,3.94299265,0.911911285,4.05427247,0.223430127,-3.18330884,0.591694832
89765.036257,4.18141738,1.08813265,5.08482022,0.310535759,-2.71841359,0.413893938
89765.046284,4.19916522,1.232491,5.94957534,0.400707722,-2.16730738,0.240926415
89765.056311,4.12832116,1.32919372,6.69323975,0.451849461,-1.55061746,0.061590746
89765.066338,4.22696099,1.41466601,7.5718837,0.355556488,-0.87112546,-0.109949581
89765.076365,4.5325122,1.51655987,8.70378228,0.0908435881,-0.110051282,-0.288044751
89765.086392,4.7276715,1.59315387,9.66057915,-0.188416556,0.712865233,-0.444210917
89765.096420,4.72247422,1.66678784,10.0614852,-0.304062456,1.59143543,-0.568777084
89765.106447,4.64177747,1.62342129,10.0936362,-0.219268739,2.61196661,-0.703482151
89765.116474,4.23051371,1.52919387,9.66929379,0.0089354068,3.72738528,-0.855995536
89765.126501,3.25789559,1.49328625,8.91204568,0.181767896,4.76152182,-1.06420624
89765.136528,2.4511414,1.52492789,7.88160665,0.49213165,5.63096857,-1.30621672
89765.146555,2.15920048,1.38648168,5.70230797,0.912069023,6.29631853,-1.53007627
89765.156582,2.0985087,1.16095736,3.31700332,1.35704875,6.72231436,-1.7309494
89765.166610,2.13203117,0.885003112,0.989763902,1.71554887,6.86005354,-1.88927412
89765.176637,1.80133411,0.33030879,-1.48533383,1.87375748,6.539258,-1.94786119
89765.186664,1.78484534,-0.396210126,-4.15523577,1.90169477,5.68255997,-1.90335584
89765.196691,2.48437118,-1.11208008,-7.03207657,1.84116781,4.4465971,-1.82631242
89765.206718,2.73258021,-1.44670497,-9.5244703,1.82544768,3.10331249,-1.73264456
89765.216745,1.52014153,-1.44903736,-11.0599234,1.84225869,1.8958925,-1.6150806
89765.226772,-1.01440559,-1.95965187,-11.4915928,1.70127249,0.871013343,-1.35046518
89765.236800,-3.28058965,-3.41683089,-11.2878355,1.40231454,-0.0986143351,-0.840819001
89765.246827,-3.92247944,-5.16923102,-11.1398486,1.06360257,-1.0612222,-0.11090219
89765.256854,-2.92265007,-6.30642946,-10.9560293,0.545271575,-1.94714749,0.692664325
89765.266881,-1.23371061,-6.28368864,-9.66818495,-0.25045833,-2.65206575,1.39206851
89765.276908,-0.0175820166,-5.31818941,-7.50191058,-1.09925449,-3.17141223,1.92325854
89765.286935,0.711043187,-4.18296139,-5.2665545,-1.7462225,-3.51086116,2.28743291
89765.296963,1.13864557,-3.19859146,-3.39009895,-2.07879615,-3.68438506,2.49588323
89765.306990,1.2907047,-2.17837367,-1.8268729,-2.17696023,-3.710495,2.54678845
89765.317017,1.39520377,-1.20955305,-0.334232539,-2.14965701,-3.62444592,2.46464491
89765.327044,1.5627786,-0.387104736,0.980478771,-2.04564905,-3.45644045,2.28918815
89765.337071,1.80598515,0.244435291,2.08056533,-1.85387921,-3.23355174,2.05706215
89765.347098,2.17923672,0.66657583,2.9628,-1.54773152,-2.9663837,1.78321385
89765.357125,2.65691765,0.942488429,3.67301222,-1.13521409,-2.6434803,1.46916676
89765.367153,2.99853913,1.2057367,4.40350384,-0.712881386,-2.26188111,1.13426888
89765.377180,3.154904,1.61385237,5.28969455,-0.38688755,-1.81886292,0.77046299
89765.387207,3.26465325,2.06955762,6.38298839,-0.197570369,-1.30115938,0.400713146
89765.397234,3.44747562,2.50869605,7.47984254,-0.0915560424,-0.689107955,0.0571701676
89765.407261,3.51019716,2.76580298,8.30213917,-0.0531359501,0.0399976,-0.256982982
89765.417288,3.48355231,2.81385506,9.02125833,-0.101226486,0.847657084,-0.52279973
89765.427315,3.69148311,2.76702024,9.66621102,-0.214543998,1.69894695,-0.727476716
89765.437343,4.07752943,2.62878754,10.0636269,-0.350569993,2.58262324,-0.886134028
89765.447370,4.43646269,2.55102596,10.1481978,-0.391184807,3.50684452,-1.02725995
89765.457397,4.54072094,2.51217688,9.40232627,-0.142845839,4.49008036,-1.19553471
89765.467424,3.94642438,2.33379381,7.57533004,0.320670426,5.41907787,-1.40200245
89765.477451,2.49391057,2.00233585,5.31737108,1.00574625,6.1974721,-1.68980062
89765.487479,0.881426203,1.73434045,2.55336756,1.89371336,6.72680616,-2.02221036
89765.497507,-0.448868388,1.18486503,-0.503095652,2.55953336,6.76831341,-2.31358433
89765.507534,-0.701076577,0.314944194,-3.15111601,2.78864408,6.10599566,-2.43879485
89765.517561,0.747787037,-0.717840957,-6.57733899,3.02213836,4.78781414,-2.34995723
89765.527588,2.52261031,-1.68264402,-11.7400847,3.18008685,3.04410481,-2.14744663
89765.537615,2.18933244,-2.0909425,-15.3171974,2.87209916,1.21344602,-1.91339493
89765.547642,-0.424993007,-2.24528156,-15.5849482,1.98455274,-0.33606106,-1.5747931
89765.557670,-2.68593011,-2.96866217,-13.5200673,0.866948664,-1.38946509,-1.0157572
89765.567697,-2.99506269,-4.01382238,-10.9950438,-0.184933111,-2.02241039,-0.289241314
89765.577724,-2.43558859,-4.79830424,-8.8347789,-1.13163865,-2.4130559,0.413824439
89765.587751,-1.95417534,-4.85809236,-6.94067195,-1.83919454,-2.68394756,0.976283252
89765.597778,-1.36975515,-4.28215417,-5.69248683,-2.29813242,-2.87274146,1.34524798
89765.607805,-0.93787509,-3.48681686,-4.80116343,-2.5255177,-3.00501895,1.54306352
89765.617833,-0.663176032,-2.78575271,-3.99464831,-2.52473354,-3.13583088,1.59849322
89765.627860,-0.35134745,-2.2508519,-3.33431277,-2.30481362,-3.25960398,1.5535897
89765.637887,0.273877037,-1.80896344,-2.64071091,-1.92025471,-3.36202526,1.43608034
89765.647914,1.020776,-1.47218443,-1.76427645,-1.3993082,-3.42414856,1.27010131
89765.657941,1.67545455,-1.26787299,-0.706649555,-0.811450303,-3.42830324,1.07961226
89765.667968,2.13182878,-1.06077184,0.522554971,-0.228751689,-3.34658527,0.883318663
89765.677995,2.44468769,-0.744743285,1.79093065,0.259630769,-3.16984391,0.689086318
89765.688023,2.71461902,-0.329948432,3.1126305,0.609872639,-2.89745927,0.50036037
89765.698050,2.98411606,0.0912862448,4.35342493,0.829331219,-2.55239987,0.324830651
89765.708077,3.35614203,0.239923659,5.50571455,1.00386333,-2.15303469,0.165781856
89765.718104,3.94007413,0.0773806883,6.49264879,1.17556989,-1.69768357,0.059800569
89765.728131,4.409627,0.00582059591,7.40903707,1.30060923,-1.11703539,-0.00427641813
89765.738158,4.43022438,0.240997644,8.43444862,1.33076584,-0.420198023,-0.0830031857
89765.748186,3.9504833,0.667534666,9.35913478,1.22620559,0.403429806,-0.182329774
89765.758213,3.43398719,1.11075628,10.0215436,1.05683041,1.34246707,-0.281101882
89765.768240,3.00379983,1.43088884,9.98026002,0.952473402,2.30811405,-0.364214063
89765.778267,2.60682325,1.56128456,9.15134952,0.831915319,3.17971158,-0.447703362
89765.788294,2.273337,1.53441906,8.0472584,0.776326597,3.9458704,-0.533284605
89765.798321,2.06062861,1.54807758,6.15360446,0.834915102,4.58195925,-0.587765992
89765.808349,1.89808812,1.34915602,3.8505058,0.881294847,5.04959106,-0.624397218
89765.818376,1.5248443,0.964154098,1.78397425,0.827596962,5.21019888,-0.641842008
89765.828403,0.83921554,0.633098874,-0.510942859,0.746739149,4.99294138,-0.629718184
89765.838430,0.626269904,0.271614755,-3.51883639,0.694737732,4.37942028,-0.583206356
89765.848457,0.643549833,-0.151470957,-6.88158205,0.640241206,3.41625762,-0.516331732
89765.858484,0.341077875,-0.575592587,-10.1874122,0.524626195,2.15133333,-0.404545009
89765.868512,-0.532954638,-0.961354969,-12.80306,0.355031878,0.746553659,-0.241365388
89765.878539,-1.77225839,-1.39148008,-14.3975504,0.0693636239,-0.619421601,0.0204089545
89765.888566,-2.62885797,-1.91110396,-14.5753725,-0.409241021,-1.84454334,0.363446712
89765.898593,-2.78254631,-2.22472158,-13.4430682,-0.881044269,-2.83570552,0.726523221
89765.908620,-2.1476873,-2.0095997,-11.8461042,-1.40369129,-3.59316301,1.02723718
89765.918647,-1.11096934,-1.58893581,-9.65299322,-1.87586999,-4.15775824,1.21949589
89765.928675,-0.13790656,-1.01799982,-7.3973326,-2.21714234,-4.52028322,1.28344631
89765.938702,0.628093028,-0.544939382,-5.14066661,-2.37167215,-4.67840099,1.24788141
89765.948729,1.16284134,-0.306402575,-3.03518252,-2.32222056,-4.65220356,1.13947034
89765.958756,1.48940708,-0.318957229,-1.23153794,-2.05277252,-4.50428486,0.968839169
89765.968783,1.90812816,-0.487490745,0.316844182,-1.54807055,-4.28874636,0.746954143
89765.978811,2.35903288,-0.646324485,1.57214761,-0.87931776,-4.01743937,0.500529468
89765.988838,2.70382992,-0.597236264,2.72888077,-0.184145883,-3.67093492,0.231731579
89765.998865,2.85099616,-0.263033243,3.92398195,0.42212835,-3.24420285,-0.0450438224
89766.008892,2.94983034,0.148330905,5.16878503,0.863113165,-2.72619009,-0.28811878
89766.018919,3.17064488,0.555606322,6.39159489,1.11878192,-2.14237618,-0.486050248
89766.028946,3.5420875,0.87659323,7.45745886,1.17054534,-1.50187469,-0.642222822
89766.038974,3.97354444,1.12429804,8.55713918,1.03791106,-0.819037795,-0.756556869
89766.049001,4.35383058,1.37203786,9.49010568,0.852076232,-0.0866629258,-0.834824204
89766.059028,4.54269516,1.58026428,9.96576621,0.659491599,0.705004334,-0.886955082
89766.069055,4.55599303,1.75899442,10.2720475,0.37049526,1.52992272,-0.935158551
89766.079082,4.57581651,1.86172019,10.7007277,-0.0182588995,2.3633697,-0.947325468
89766.089109,4.89716589,1.85651897,10.8838069,-0.303138286,3.23790908,-0.929701447
89766.099137,5.04517794,1.83044286,10.0637695,-0.361965656,4.18991089,-0.924514711
89766.109164,4.17514166,1.76617571,8.46865192,-0.206838936,5.10211182,-0.984659791
89766.119191,2.40710352,1.81049898,6.22703736,0.128783539,5.91592169,-1.12149251
89766.129218,1.0304665,1.69499774,3.30706878,0.562413275,6.47513056,-1.27187324
89766.139245,0.551362072,1.10772013,0.180080088,0.865646362,6.56393337,-1.40500617
89766.149272,0.27128145,0.368383231,-2.96046192,1.04859066,5.95342731,-1.48130524
89766.159300,0.156545849,-0.285979526,-7.23500503,1.31150806,4.65562534,-1.52086937
89766.169327,0.698069358,-0.892493468,-12.6693495,1.66876709,2.8094244,-1.47778666
89766.179354,0.718407944,-1.47285765,-17.1984694,1.80354297,0.730235398,-1.37996769
89766.189381,-0.702704325,-1.99935771,-18.7707514,1.58752012,-1.17305791,-1.17915332
89766.199408,-2.58720582,-2.59080501,-17.3193824,1.02300274,-2.55759835,-0.80694145
89766.209436,-3.07269246,-3.40426338,-13.9683757,0.29028216,-3.41170931,-0.260764956
89766.219463,-2.03619296,-4.3013186,-10.5298111,-0.516077518,-3.88017583,0.368957877
89766.229490,-1.09310635,-4.7435927,-7.50159611,-1.25507784,-4.09397125,0.949465752
89766.239517,-0.567163672,-4.63754582,-5.15504877,-1.749843,-4.15990639,1.40406275
89766.249544,-0.257243042,-4.16954369,-3.5648482,-2.02358937,-4.13737059,1.69480407
89766.259571,0.0526823734,-3.67021821,-2.20277776,-2.07691598,-4.06624079,1.83977485
89766.269599,0.594086714,-3.14820216,-1.12103407,-1.89871168,-3.97053218,1.86068702
89766.279626,1.20132678,-2.61385271,-0.270077755,-1.53357995,-3.86638331,1.78171849
89766.289653,1.81758601,-2.19206975,0.605043869,-1.03859055,-3.75214839,1.62469101
89766.299680,2.42139917,-1.80092203,1.56594934,-0.459222168,-3.60177422,1.42684376
89766.309707,2.95237038,-1.34731682,2.4905221,0.0807529017,-3.35762954,1.208166
89766.319735,3.33470673,-0.783627435,3.60057885,0.536359549,-2.99763799,0.976722896
89766.329762,3.66924819,-0.266948663,4.72017091,0.893240452,-2.53586125,0.75196439
89766.339789,4.11564697,0.0888071414,5.81814034,1.14296615,-2.00295305,0.558591187
89766.349816,4.53159304,0.252792712,7.01024526,1.28026855,-1.42531919,0.417283058
89766.359843,4.92375404,0.397359734,8.14063928,1.30864775,-0.780509293,0.326393664
89766.369871,5.31260606,0.650103054,9.18851635,1.17676592,-0.0291674137,0.27416718
89766.379898,5.42012594,1.0163709,10.2248111,0.84381032,0.839427888,0.228101701
89766.389925,5.28958817,1.50354944,11.1669213,0.381754041,1.79843354,0.20612289
89766.399952,5.28907788,1.95277044,11.5936199,-0.0687798634,2.80728436,0.212407947
89766.409979,5.42489622,2.46029034,11.4205711,-0.430360973,3.85039425,0.194117904
89766.420006,5.40793281,2.79077112,10.6258621,-0.562383175,4.89938164,0.117079049
89766.430034,4.80989707,2.9730531,8.95460705,-0.430796921,5.88561678,-0.0422866382
89766.440061,3.46993441,3.07770766,6.40045682,-0.0105045764,6.77842855,-0.300195158
89766.450088,2.07827985,2.92217515,3.06168708,0.625238597,7.41454268,-0.621619225
89766.460115,1.06515152,2.49057178,-0.536204726,1.2646718,7.563694,-0.959756792
89766.470142,0.471363895,1.74561266,-4.12417778,1.69569421,7.0061717,-1.27364135
89766.480169,0.34478031,0.689922438,-7.9428283,1.89106619,5.52350378,-1.46907687
89766.490196,1.05098767,-0.330237478,-13.078717,2.22649074,3.43857336,-1.52682424
89766.500223,2.01859637,-1.26623223,-18.108328,2.49162626,1.20088267,-1.43363619
89766.510250,0.69428794,-1.70870186,-19.8382661,2.31507564,-0.723397076,-1.24487114
89766.520277,-2.42963289,-2.18103822,-17.6550383,1.62856364,-2.04540086,-0.861949563
89766.530305,-3.77128146,-3.11733853,-13.896725,0.733799398,-2.85770488,-0.233608931
89766.540332,-3.07873466,-3.99355233,-10.9354342,-0.201906219,-3.3428719,0.476189017
89766.550359,-1.94340347,-4.07470385,-8.50899328,-1.12112033,-3.63847518,1.11221981
89766.560386,-1.00971904,-3.52305459,-6.4230977,-1.94606638,-3.83419442,1.56560588
89766.570413,-0.56112673,-2.75232244,-4.78590683,-2.55806994,-3.97137642,1.8210969
89766.580440,-0.261129894,-1.99904952,-3.50340384,-2.90587902,-4.04359245,1.92653203
89766.590468,0.190262533,-1.4908241,-2.42519593,-3.01132393,-4.06088209,1.92517376
89766.600495,0.780412711,-1.14047688,-1.38571845,-2.8728714,-4.02981138,1.83000922
89766.610522,1.38775609,-0.803756688,-0.502287259,-2.47149897,-3.95695734,1.62931967
89766.620549,1.96831784,-0.441086648,0.337267377,-1.89056718,-3.84272647,1.3297646
89766.630576,2.61742385,-0.346052887,1.45724697,-1.11083806,-3.67618895,0.984583557
89766.640604,3.35810339,-0.393331355,2.52844705,-0.23974441,-3.41505504,0.650525928
89766.650631,3.77940251,-0.210066207,3.86809523,0.515687823,-2.99855351,0.332117319
89766.660658,3.77960505,0.24159561,5.50652646,1.07278705,-2.46127725,0.0272551551
89766.670685,3.92548184,0.71274758,7.09710989,1.3307941,-1.82027757,-0.231706098
89766.680712,4.44456767,1.17714014,8.84198371,1.38068914,-1.0548923,-0.438835055
89766.690740,5.0746057,1.50552147,10.1664092,1.38326633,-0.163392112,-0.571556628
89766.700767,5.57845187,1.90635867,11.0699175,1.18519294,0.830592036,-0.693299294
89766.710794,5.2882426,2.45438842,12.3878402,0.754082859,1.88793135,-0.822311342
89766.720821,4.79095184,2.82666603,13.376338,0.248278245,3.02104664,-0.938168168
89766.730848,4.55081242,3.071199,13.3351117,-0.0952990949,4.25250959,-0.999869049
89766.740876,4.45636508,2.80315422,11.810301,-0.238415495,5.38859129,-1.01169991
89766.750903,4.01592549,2.23017766,9.33177156,-0.181229711,6.31494331,-1.03024626
89766.760930,3.29390798,1.88548802,6.27757922,0.065252766,7.00463963,-1.08918691
89766.770957,2.42025745,1.51382957,2.72852597,0.439488947,7.35566902,-1.17525983
89766.780984,1.54851101,0.796310099,-1.07725222,0.793981791,7.16467047,-1.24679708
89766.791012,1.26638421,0.00357040583,-4.9795677,1.15819967,6.32423449,-1.27667069
89766.801039,1.559461,-0.79333722,-9.54357949,1.48090875,4.74137306,-1.31220722
89766.811066,1.49976349,-1.43103643,-14.367361,1.8593514,2.70184803,-1.33192968
89766.821093,0.96179526,-2.06520863,-18.0255141,2.1094749,0.555353284,-1.21613073
89766.831120,-0.608166385,-2.58050691,-18.8209362,1.93818891,-1.22516704,-0.960532844
89766.841148,-2.40230591,-3.02086787,-16.2251563,1.35123193,-2.39003253,-0.565460086
89766.851175,-2.98397899,-3.37279769,-12.5317951,0.586470664,-3.03582191,-0.0574789047
89766.861202,-2.42343667,-3.7341082,-9.48961994,-0.187945127,-3.34658194,0.484700471
89766.871229,-1.6462834,-3.8299619,-7.07647802,-0.85895735,-3.46742988,0.959174812
89766.881256,-1.16054827,-3.43159299,-5.24462032,-1.39339411,-3.4876101,1.29566407
89766.891284,-1.06052261,-2.755715,-3.88260774,-1.7852,-3.45725846,1.48220325
89766.901311,-1.04308377,-2.00001252,-2.84578164,-2.02292752,-3.41699862,1.54162073
89766.911338,-0.679828914,-1.38653152,-2.03552909,-2.09723663,-3.37833548,1.50176382
89766.921365,-0.00251468623,-0.976321506,-1.33302555,-2.00633073,-3.33357573,1.3909111
89766.931392,0.821248433,-0.695245387,-0.572574262,-1.70232403,-3.27324486,1.21157455
89766.941420,1.70603951,-0.588483925,0.199627085,-1.21298182,-3.18677425,1.00003672
89766.951447,2.50234318,-0.565099689,1.20305711,-0.666860878,-3.03141665,0.782334268
89766.961474,3.0395223,-0.406472723,2.4621196,-0.130910084,-2.76768351,0.566374004
89766.971501,3.31419644,0.0413808619,3.69954951,0.266831428,-2.42458224,0.359156132
89766.981528,3.46968102,0.716586939,5.12478515,0.420011133,-1.98355973,0.167520657
89766.991556,3.84131302,1.45902275,6.61952686,0.345702291,-1.44117308,0.0167101026
89767.001583,4.57545235,2.07571833,7.93161484,0.097284466,-0.802583754,-0.104141749
89767.011610,5.31679825,2.59725463,9.14990049,-0.263274789,-0.0832152516,-0.234804153
89767.021637,5.57778377,3.07142814,10.3125981,-0.650034487,0.690650344,-0.40728724
89767.031664,5.37939002,3.45844183,11.2622054,-0.972491622,1.52548897,-0.61482048
89767.041692,5.25063271,3.6111283,11.8403209,-1.15809667,2.48810458,-0.845039546
89767.051719,5.1219695,3.42833486,11.7858411,-0.991868496,3.59611058,-1.08581328
89767.061746,4.5523652,2.98640241,10.3977092,-0.547885716,4.70462608,-1.34517932
89767.071773,3.57921633,2.39865718,8.53896289,0.0877780467,5.66488171,-1.63308477
89767.081800,2.57763983,1.65099085,5.98164572,0.903417468,6.37322569,-1.89049459
89767.091828,1.90395497,0.780527642,2.69649885,1.69293225,6.6979332,-2.08678174
89767.101855,1.67614048,-0.227496796,-0.430136215,2.11859536,6.48642111,-2.16928887
89767.111882,1.91745012,-1.31273329,-3.31007966,2.31791115,5.62491274,-2.16029096
89767.121909,1.83686793,-2.24704389,-7.34003134,2.60577416,4.26618576,-2.08006787
89767.131937,1.29704881,-2.96873787,-11.883164,2.77101588,2.57488847,-1.87483764
89767.141964,0.536664891,-3.67560867,-14.6661744,2.61460805,0.828275323,-1.5205555
89767.151991,-0.836068255,-4.36038834,-15.397755,1.94934702,-0.667039514,-0.995996535
89767.162018,-2.1452627,-5.06572505,-13.9598019,0.925798655,-1.79418659,-0.295692533
89767.172045,-2.65177591,-5.63483544,-11.7340735,-0.129588082,-2.58713675,0.501608372
89767.182073,-1.93867849,-5.95870382,-9.65204688,-1.09167373,-3.12459445,1.26729226
89767.192100,-0.927888972,-5.82553162,-7.58854667,-1.8747139,-3.47675467,1.89578557
89767.202127,-0.398964247,-5.13556139,-5.82689355,-2.42288589,-3.70053077,2.31498098
89767.212154,-0.158423242,-4.07988388,-4.37183211,-2.75400519,-3.83384013,2.53860545
89767.222181,0.155755776,-3.03748203,-3.16149478,-2.86464381,-3.89818573,2.60339642
89767.232209,0.597530753,-2.19932177,-2.12165255,-2.77949262,-3.91529751,2.54603934
89767.242236,1.02451066,-1.5197933,-1.09929337,-2.52334547,-3.88845873,2.39432073
89767.252263,1.41776573,-0.968762761,-0.0393441684,-2.16403151,-3.79978871,2.18100619
89767.262290,1.81970476,-0.582959828,1.15346452,-1.74720681,-3.63556457,1.93640637
89767.272317,2.19119019,-0.225893087,2.35728969,-1.27922261,-3.37714362,1.67811084
89767.282345,2.65417829,0.0847985633,3.47155383,-0.767735302,-3.00775623,1.4038837
89767.292372,3.06419409,0.383019878,4.6152995,-0.252725184,-2.54793262,1.09767318
89767.302399,3.01911489,0.882034252,5.72177723,0.244756758,-1.996925,0.76657021
89767.312426,2.82638136,1.58423318,6.64708648,0.661518574,-1.3804307,0.401766986
89767.322454,2.98971198,2.28563636,7.65164989,0.940769374,-0.693374753,0.0139502678
89767.332481,3.28444633,2.86408887,8.61859289,1.1498512,0.0841287374,-0.379647374
89767.342508,3.30751098,3.37871802,9.19882556,1.28043103,0.950401485,-0.771623373
89767.352535,3.27204219,3.76678619,9.67304992,1.22131491,1.86563778,-1.13504314
89767.362562,3.51385012,4.02509314,10.1960912,1.00010502,2.82665133,-1.44265819
89767.372590,3.97538627,4.11305287,10.1888221,0.889522433,3.88131213,-1.6817553
89767.382617,3.9793543,3.8589121,8.69293063,1.0698005,4.93087053,-1.89868164
89767.392644,2.69632992,3.3807691,6.15391367,1.45707691,5.82241917,-2.1348424
89767.402671,0.979247038,2.80759775,3.0780233,1.94356132,6.39377928,-2.35527349
89767.412699,-0.157214268,1.72411146,-0.548580808,2.22058368,6.41348982,-2.4432497
89767.422726,-0.165111542,-0.0764784057,-4.14618211,2.27526331,5.57613373,-2.331604
89767.432753,0.410750546,-1.86670339,-9.10281959,2.43851066,3.91669703,-2.01861382
89767.442780,1.55193367,-3.57159241,-15.4714024,2.43811011,1.71583807,-1.55875516
89767.452807,1.99245538,-4.68048801,-19.2773437,2.06071234,-0.546605051,-1.06801283
89767.462835,-0.194373402,-4.79661351,-19.1073145,1.30872679,-2.3040731,-0.523583055
89767.472862,-2.29940507,-4.87480881,-15.7793929,0.366207957,-3.41184545,0.165090144
89767.482889,-1.94169082,-5.54388734,-11.9302087,-0.541215777,-4.02004528,0.935127199
89767.492916,-0.683364468,-5.81856587,-8.78760915,-1.27982152,-4.33059549,1.62338305
89767.502943,0.161062559,-5.16601148,-6.28524639,-1.81090093,-4.48486042,2.09783959
89767.512971,0.658748644,-4.12402814,-4.1823494,-2.13062191,-4.55468082,2.33180499
89767.522998,1.1786048,-3.12961261,-2.47949217,-2.15832615,-4.57672024,2.37222338
89767.533025,1.74580994,-2.32602215,-1.20211077,-1.92055202,-4.56293106,2.2516346
89767.543052,2.1840507,-1.65904088,-0.00333119025,-1.4524461,-4.48894548,2.0158577
89767.553080,2.61146377,-1.10418757,1.16664198,-0.848730981,-4.33786201,1.71824694
89767.563107,3.09964389,-0.509593928,2.42997206,-0.253692329,-4.09499788,1.38121724
89767.573134,3.42781786,0.141349814,3.84104414,0.206103504,-3.72682881,1.03977287
89767.583161,3.61516618,0.839083803,5.34174915,0.510559797,-3.27728415,0.74154228
89767.593189,3.98402317,1.39394764,6.4994082,0.712693691,-2.67077374,0.488336384
89767.603216,4.32909742,1.83784583,7.6716423,0.72450614,-2.00188828,0.274182558
89767.613243,4.6207791,2.17420399,8.84228124,0.602790892,-1.30158699,0.105298981
89767.623270,5.17192567,2.44792127,9.68404829,0.351151228,-0.612003505,-0.0374563038
89767.633297,5.70103138,2.77256736,10.5226601,0.0629372746,0.0807134658,-0.196643293
89767.643325,5.98903934,3.05566826,11.0615355,-0.173085362,0.799638569,-0.386032373
89767.653352,6.11955548,3.20857188,11.357279,-0.416266322,1.58304596,-0.596932352
89767.663379,6.23791122,3.25360666,11.8226075,-0.643923998,2.42662835,-0.79616636
89767.673406,6.45753363,3.21542072,12.0362971,-0.841645896,3.36293507,-0.960054934
89767.683434,6.80027272,3.06726576,12.0854226,-0.985625148,4.36620045,-1.08829784
89767.693461,7.19143594,2.90186477,11.6379711,-0.951819241,5.50191784,-1.22108042
89767.703488,6.86097473,2.68893835,10.272072,-0.597974122,6.70825624,-1.40497577
89767.713515,5.35897501,2.41548922,7.84700529,-0.0134501709,7.83974838,-1.70959949
89767.723542,3.48462345,2.29627569,4.70151356,1.00131762,8.80808926,-2.14051962
89767.733570,2.20793236,1.81499804,0.433776032,2.11366153,9.39595985,-2.58063602
89767.743597,1.95905755,0.768003603,-3.17371012,2.62056446,9.15132141,-2.86043072
89767.753624,2.42788736,-0.917185864,-6.17957185,2.70347357,7.74635124,-2.95140505
89767.763651,3.1046056,-2.93559986,-12.2515905,3.164114,5.44157124,-2.7871654
89767.773679,4.12704954,-4.52148578,-20.161135,3.70167303,2.73074389,-2.46878147
89767.783706,2.33661252,-4.95419945,-23.6941536,3.48154283,0.273387045,-2.19528294
89767.793733,-1.84349085,-4.8681964,-21.2016354,2.52700734,-1.43400896,-1.71631575
89767.803760,-4.04231578,-5.61405101,-16.6426019,1.26768374,-2.40197372,-0.920066774
89767.813788,-3.46732598,-6.96188893,-12.9218851,0.0674276352,-2.92981863,0.0363097936
89767.823815,-2.29131982,-7.43473791,-10.3750578,-1.04009926,-3.2523284,0.925759017
89767.833842,-1.25127739,-6.95865769,-8.21685392,-1.91726518,-3.49527335,1.60333693
89767.843869,-0.307152225,-6.1897437,-6.56624126,-2.43559408,-3.67217422,2.06133342
89767.853896,0.164671945,-5.11424622,-5.5107923,-2.61788344,-3.8122592,2.28811049
89767.863924,0.253758634,-3.95605993,-4.66246165,-2.56135297,-3.95488119,2.31791282
89767.873951,0.469566125,-2.9852135,-3.94632881,-2.27400541,-4.10264874,2.20328808
