t,ax,ay,az,gx,gy,gz
90558.895840,-0.00544894813,-0.0164218785,-0.00147812434,0.000259769833,-0.000348227981,-0.000390422423
90558.905866,0.000919710122,-0.0146133678,0.00959330477,-0.000243034985,0.00102170201,-0.000833306354
90558.915893,0.00676544048,-0.00423291664,-0.00207433667,-0.00122840465,-0.000855560132,-0.000568854515
90558.925919,0.00551607974,-0.00836208887,-0.00087431323,-0.00111175813,0.000431012877,-0.000393351433
90558.935945,-0.00679329367,0.00670820062,0.0064590984,-0.000397231998,0.00103341991,0.000357659641
90558.945972,-0.0174749198,0.00654785896,-0.0126956839,-0.000393503593,0.000789474396,-0.000840496165
90558.955998,0.00832191267,0.00539525486,-0.00207199858,0.00124247633,-0.00185184874,-0.00112438936
90558.966025,-0.00770067258,-0.0119044742,0.0106413525,0.00164834193,-0.000313340637,-0.000662864079
90558.976051,-0.00134880107,-0.0125942831,-0.0158526867,0.00188909184,-0.000416138626,-0.00100321591
90558.986078,0.00216886993,0.00411376368,0.0215473619,0.00198390037,-0.00125583326,0.000233023535
90558.996104,0.00463558884,-0.0126973781,-0.0104780079,-2.94494824e-05,-0.00164705161,-0.000498812539
90559.006131,0.00832554767,-0.00372478446,0.00613410423,-0.000449163621,-0.00046700502,0.0010921593
90559.016157,0.0368546546,-0.0484601078,-0.0095521252,0.0277174942,0.00135326553,0.0121514687
90559.026184,-0.0573175209,0.0830796388,-0.005234262,-0.000930130555,0.000273353819,-0.00170096372
90559.036210,0.0602315116,-0.100214151,0.0166175043,-0.000303222405,0.00326062162,0.00392629543
90559.046237,-0.0530191661,0.0728196356,-0.00702348351,-0.00294561098,0.000406511876,-0.00140615169
90559.056263,0.0386669282,-0.0443644726,0.00225404792,-0.00204492985,-0.000598831519,0.00181520788
90559.066289,0.00336854631,0.0172908598,-0.0128593501,0.000224882431,0.000149250429,0.000748345735
90559.076316,0.0158242146,-0.021389657,-0.0155557495,-0.000464077355,-0.000774600028,0.00114755297
90559.086342,-0.00856050428,0.0138053558,-0.0083743136,-0.000967681132,-0.000254484776,-0.000684968089
90559.096369,0.00453490494,-0.0113298161,-0.00133316291,-0.0025650451,-0.0016526442,3.3020149e-05
90559.106395,-0.00621741175,-0.00467846845,-0.0188360864,-0.00173200837,0.00151278898,-0.000188288172
90559.116422,0.00671009356,-0.00822980426,-0.00476781354,-0.00162042184,0.000902925027,-0.000471382295
90559.126448,0.00315360665,-0.0150538051,-0.00341932154,-5.50158005e-05,0.000238466359,-0.000165917804
90559.136475,-0.00664142758,-0.00677452742,-0.00685806381,-0.00183773584,-0.000529589315,-3.14283045e-05
90559.146501,0.00738192841,-0.00478667807,-0.000127294255,0.000667499771,0.000137798887,0.000149400081
90559.156528,0.00206632287,-0.0143932588,-0.00492271184,0.00222038924,-0.000550361999,0.000663124132
90559.166554,0.00508999981,0.00907788889,0.0178169432,0.000623291285,0.000980955598,-0.000843692464
90559.176580,-0.013921118,0.00101291159,-0.00941768517,0.000447256418,-0.00159645169,0.00063542753
90559.186607,-0.000378896587,-0.0103134787,-0.00627588001,0.000665635612,-0.00132614067,-0.000319049587
90559.196633,-0.0114812688,-0.0143558859,-0.00971111516,-0.00100736223,0.000130608378,-0.000628242162
90559.206660,-0.0100390524,-0.0107220229,-0.00447029189,-0.00138419955,0.000809980722,0.00105034804
90559.216686,0.0133599982,-0.0152816955,-0.00266704187,-0.00276105358,0.00105712207,0.00034008279
90559.226713,-0.00484999585,-0.000530043536,-0.00146292677,-0.000994845367,-0.000469135537,-0.00202027698
90559.236739,0.0141400244,-0.00837078363,-0.00565044159,-9.52295525e-05,0.0011015968,0.00032383773
90559.246766,-0.000890243643,0.000228519746,-0.00640330578,0.00222065514,0.00119720428,-0.000964066838
90559.256792,0.0120848271,-0.0121080705,-0.0023741964,0.00367287714,0.000665104764,0.000411721985
90559.266819,-0.00373381477,-0.00658159866,-0.00867125072,0.00321854166,-0.00140017662,0.000480431239
90559.276845,0.000219946089,-0.0105665036,0.00104759474,0.00164274934,-0.00140257338,-0.000401341249
90559.286871,-0.00172280374,-0.0131185261,-2.79109202e-06,0.000838741005,-0.00168406958,-0.000911869002
90559.296898,0.00406885834,0.00104685039,0.0142104432,-0.00113386237,-0.00100123505,-0.000671119322
90559.306924,-0.00412772773,-0.00850387196,0.00897955679,-0.00239380375,-0.000969543538,0.000103327553
90559.316951,-0.00412456766,-0.00851278592,0.00749370214,-0.00329821343,0.00238204473,-0.00121893164
90559.326977,0.0019458383,-0.00684408552,0.00914731457,-0.00212828671,0.00108881369,-0.0007496829
90559.337004,-0.00766624058,-0.00919835703,-0.00790377347,-0.00149525325,0.000833682881,-0.00108071406
90559.347030,-0.000618568828,-0.0170228401,-0.00266762639,-0.000974072682,0.00289710011,0.000540086175
90559.357057,-0.00847633312,-0.0175634863,-0.00835151724,-0.000659287049,-0.000130115144,0.00152066221
90559.367083,0.00381614395,0.00238635537,-0.00715616998,0.00238577118,4.64082957e-06,-0.00127698843
90559.377109,-0.00154695399,-0.00880055335,0.00660289078,0.00102356441,-0.000485380829,0.00135421438
90559.387136,0.00146198204,0.0034025832,-0.0176483379,0.00366808362,-0.000247826867,-0.00108177856
90559.397162,0.0271607426,0.000105660551,-0.00748408676,0.00221932381,-0.000336776438,-0.00066552673
90559.407189,0.011197048,-0.0194012962,-0.0315856778,0.000473621694,-0.00140017662,6.36466919e-05
90559.417215,-0.00923414749,-0.015958097,0.0171774763,0.00667745554,1.82228888e-05,0.00131453352
90559.427242,0.00145743373,-0.0217750031,-0.0335888344,0.0105443651,-0.000459281795,-0.00197154087
90559.437268,-0.00994485304,-0.0196018603,0.0271359757,0.00558875529,-0.000995908815,0.002647712
90559.447294,-0.0157215915,-0.0271892101,-0.00549203616,0.000307174094,-0.000284578486,-0.000206131381
90559.457321,-0.0104322895,-0.0253077072,0.0376211294,-0.0102288241,2.88755892e-05,0.000429831552
90559.467347,0.000834095932,-0.000177576837,0.0198791365,-0.0203168776,0.00111677689,-0.0011358409
90559.477374,0.00589455766,0.00636201753,0.0370459598,-0.0298177052,0.0047530572,-0.00028309681
90559.487400,-0.0350606992,0.0247808137,0.0358155413,-0.0317410391,0.00888308725,-0.00206927944
90559.497427,-0.00554269083,0.0344078527,-0.0425203288,-0.0153000152,0.00953289895,-0.00129403256
90559.507453,-0.00789206696,0.0403876943,-0.0668978142,0.00219615437,0.00572937196,-0.00108550758
90559.517479,-0.0115132714,0.0303556913,-0.0774425891,0.0243280891,0.00326142046,-1.73131796e-05
90559.527506,0.00573649929,0.0165639703,-0.0521374675,0.0383530918,-0.0062868108,0.000280427854
90559.537532,-0.0125245856,-0.0106037303,-0.0391254257,0.0415203895,-0.0125684093,0.00105993507
90559.547559,0.00833363964,-0.0453336829,0.00084535017,0.0320760224,-0.0166403825,0.00158218119
90559.557585,-0.00420433663,-0.0573752722,0.0333921135,0.0161066435,-0.0165642153,0.00263120012
90559.567612,0.00420790148,-0.0619710756,0.0453549385,0.00101051496,-0.00950683905,0.000859398968
90559.577638,0.0133861738,-0.0586150797,0.0950732014,-0.0150813695,0.00208670022,0.000370975691
90559.587664,-0.00571930777,-0.0601636608,0.0623879064,-0.0282429766,0.00904340977,-0.00161920477
90559.597691,0.00145602722,-0.0236642874,0.0387136008,-0.0369653638,0.0174811029,-0.00153558132
90559.607717,0.00101157139,-0.00882039056,0.0109996644,-0.0348351013,0.0181468924,0.000206658724
90559.617744,-0.00362626274,0.00962397847,-0.027064401,-0.0242237348,0.0158829403,-0.000441821185
90559.627770,-0.0350749652,0.0216286698,-0.0659240008,-0.00767671615,0.00663298257,0.000559527534
90559.637797,-0.0110713729,0.0422674071,-0.0663612231,-0.000986323241,0.000791338613,-0.000300673661
90559.647823,-0.00196066762,0.0511793932,-0.0332819604,-0.00156965871,-0.00607167715,0.000354997921
90559.657850,0.00148328056,0.0758461804,-0.0112600982,-0.00270602964,-0.0092584162,0.00182506267
90559.667876,0.0917214046,0.0722765783,-0.0366856313,0.0067777534,-0.0100429828,-0.00183438685
90559.677902,-0.0069432966,0.00772011761,-0.0480019751,0.0441602755,-0.00507112751,0.00172679184
90559.687929,-0.0843806104,-0.0407827416,-0.0709707628,0.0663984742,-0.00233899029,0.0025217455
90559.697955,-0.0313478527,-0.0404748082,0.0252900556,0.0537212927,-0.00542932255,0.00214144598
90559.707982,-0.0824032825,-0.0768722191,0.0459236783,0.0235591296,-0.00867944462,0.0025837972
90559.718008,-0.0166230339,-0.0620763261,0.0920143983,-0.0159011941,-0.0115982692,-0.00148098533
90559.728034,0.0808749616,-0.0735756983,0.0775112412,-0.046689735,-0.00571215031,-0.00127139491
90559.738061,0.0379866726,-0.0330499189,0.0825357914,-0.0613368537,0.00521639763,-0.00157606032
90559.748087,0.063598723,0.00287373703,0.0479075456,-0.0547633741,0.015829095,0.000378433722
90559.758114,0.00522107884,0.0355876736,-0.00969299498,-0.0371729296,0.0239610572,-0.00048656099
90559.768140,-0.0397023145,0.033476344,-0.107682245,-0.000855399019,0.022542923,-0.00086020295
90559.778167,-0.0133064019,0.0164545186,-0.143273782,0.0396941554,0.0110596384,0.000306528169
90559.788193,-0.0757361893,-0.0207188451,-0.128855381,0.0694129046,-0.0071081791,0.00108736718
90559.798219,-0.0136897204,-0.0511335283,-0.0968171517,0.0727264088,-0.0249103463,0.00329486105
90559.808246,-0.000276039001,-0.0789080723,-0.0132375357,0.0539559152,-0.0351864162,0.00372549437
90559.818272,-0.0164440971,-0.118249683,0.059693845,0.0199425582,-0.0347941357,0.00422483693
90559.828299,0.00112785471,-0.0894362248,0.197289129,-0.0297589518,-0.0195717744,0.00321603158
90559.838325,-0.069660413,-0.0508102877,0.224180643,-0.0797635291,0.0107693545,0.00222586851
90559.848351,-0.0470806429,0.0159116074,0.151833784,-0.111164329,0.0352776286,0.00240936001
90559.858378,-0.0203319897,0.0672000787,0.0512100943,-0.107560803,0.0502136995,0.000156859043
90559.868404,-0.063342188,0.145202589,-0.0282737768,-0.0720661927,0.0525900398,-0.00149004058
90559.878431,-0.130092067,0.15866442,-0.125596671,-0.0210983522,0.0372334545,-0.000860469309
90559.888457,-0.16110194,0.150270138,-0.227442596,0.0338658269,0.0130921633,-0.00227194455
90559.898484,-0.180720266,0.1110112,-0.262850594,0.0817095216,-0.0165632001,-0.000924917762
90559.908510,-0.248079436,0.0514409302,-0.217581712,0.120196725,-0.037963296,0.00213159259
90559.918536,-0.249036573,-0.0504274989,-0.117641913,0.141341689,-0.0532879221,0.00230017082
90559.928563,-0.186632011,-0.160157821,-0.0684958971,0.148096788,-0.0563156704,0.00578997667
90559.938589,-0.12110223,-0.300714219,-0.0135268741,0.134601223,-0.0509153145,0.00753115175
90559.948616,0.0453031513,-0.375442968,0.172181576,0.0845987823,-0.0360522109,0.0141184806
90559.958642,0.119364979,-0.403895594,0.285421586,0.00994451791,-0.0158287014,0.0192879412
90559.968668,0.120881138,-0.365598925,0.347567953,-0.0875428889,0.00964496779,0.0217748034
90559.978695,0.0861659989,-0.273219844,0.340077305,-0.178935391,0.0388718297,0.02081713
90559.988721,0.0400517884,-0.128776302,0.218960862,-0.225687457,0.063631234,0.0203593309
90559.998748,-0.0396148736,0.0264509389,0.0920132293,-0.222348643,0.0792602648,0.0206355016
90560.008774,-0.114419665,0.170727198,-0.110094566,-0.172155244,0.0816877385,0.0156980018
90560.018800,-0.160516614,0.256117846,-0.235440025,-0.0880728561,0.0630812918,0.0157683092
90560.028827,-0.214643853,0.328268524,-0.353312956,0.00812424794,0.0307156325,0.0119565261
90560.038853,-0.242490896,0.310461978,-0.38989935,0.0905056771,-0.00803815545,0.0120619872
90560.048880,-0.221054523,0.266017637,-0.320582068,0.145252543,-0.0476156573,0.00979510519
90560.058906,-0.181673859,0.16365463,-0.243902148,0.171740609,-0.0718653376,0.00879801727
90560.068932,-0.119937588,0.062248265,-0.094381449,0.167506712,-0.0819664399,0.00724725855
90560.078959,-0.0658472845,-0.0663390615,0.101565486,0.138677719,-0.0675640653,0.00618199409
90560.088985,-0.0555380719,-0.151898197,0.221912113,0.0884060364,-0.0402770515,0.00463842611
90560.099012,-0.0616836437,-0.224606656,0.283786678,0.0269506656,-0.00404261444,0.00789573799
90560.109038,-0.118351561,-0.255498528,0.251158082,-0.035377958,0.0273661737,0.0068690899
90560.119065,-0.138835967,-0.215184711,0.247348168,-0.0975912634,0.0478272413,0.00423655483
90560.129091,-0.167118022,-0.169280673,0.179674562,-0.129063976,0.0585858797,0.0088366327
90560.139117,-0.211629966,-0.0971617776,-0.043406464,-0.130941761,0.0536371929,0.010543719
90560.149144,-0.121878439,-0.0214681656,-0.121715446,-0.096154486,0.0385796812,0.0141685485
90560.159170,-0.177752977,0.000494331075,-0.16207376,-0.0253961619,0.0226550412,0.0207417618
90560.169197,-0.217752778,0.0158581602,-0.264056463,0.0464271594,-0.00142366213,0.0278004716
90560.179223,-0.0242031868,0.0148385348,-0.233802195,0.0940846976,-0.025868817,0.0351199034
90560.189249,-0.0939031479,-0.0185653203,-0.146641213,0.109844218,-0.0399377632,0.0380501795
90560.199276,-0.111998119,-0.08012965,-0.0235677911,0.100267495,-0.0455522376,0.0420563716
90560.209302,-0.0445993292,-0.109176296,0.150780476,0.0600881118,-0.0363289143,0.0413879204
90560.219328,-0.0693131705,-0.126675968,0.185425088,-0.00717774332,-0.0173094186,0.0416268046
90560.229355,0.0742924414,-0.0960851613,0.242783052,-0.0713026647,0.00702308612,0.0392150442
90560.239381,-0.0628912842,-0.0668337497,0.27490253,-0.119825994,0.0359695193,0.0381090353
90560.249408,-0.00757321027,0.0343460395,0.117820455,-0.138417793,0.0583358084,0.0317779008
90560.259434,-0.0842367632,0.10387817,0.0423756304,-0.120598045,0.0654259448,0.0365252542
90560.269460,-0.214400308,0.163496261,-0.151280563,-0.0814016361,0.0602130716,0.0378624248
90560.279487,-0.116172719,0.219605576,-0.285544072,-0.0316772286,0.038073947,0.0368435021
90560.289513,-0.190139745,0.252422973,-0.199975328,0.0153981399,0.00971048167,0.040125047
90560.299540,-0.189496314,0.243097255,-0.195176404,0.0545561936,-0.0169847782,0.0438257764
90560.309566,-0.183707922,0.221653631,-0.132835975,0.0714883085,-0.0341741505,0.0459728177
90560.319592,-0.246070252,0.203043514,-0.0932609205,0.0779203724,-0.0371070902,0.0430484015
90560.329619,-0.252996964,0.158504736,-0.0167534349,0.079965147,-0.0284994884,0.0429482657
90560.339645,-0.302713346,0.0688810906,0.0812282159,0.0905685227,-0.0129098759,0.0422310765
90560.349672,-0.304946055,-0.0393948674,0.0288772664,0.102037693,-0.00219251653,0.0410630117
90560.359698,-0.208168592,-0.127347584,-0.00388752357,0.0863772433,0.000339883196,0.0421977873
90560.369724,-0.28180297,-0.137529078,0.169133294,0.0244265225,0.000801941662,0.0383236866
90560.379751,-0.308184836,-0.152341521,0.187266332,-0.0358535994,0.00326057202,0.0402310426
90560.389777,-0.31089457,-0.158901902,0.100852369,-0.0638588641,0.0120953417,0.0413626182
90560.399804,-0.270932306,-0.168629917,-0.061738824,-0.039192402,0.0193633747,0.0478713858
90560.409830,-0.276710177,-0.17380911,-0.161668102,0.00469995504,0.02255837,0.0521225902
90560.419856,-0.294008609,-0.14379497,-0.0823438052,0.0255479783,0.0186725513,0.05865346
90560.429883,-0.235172828,-0.111690325,-0.00468013525,0.0201297782,0.00636342103,0.0612306009
90560.439909,-0.225598962,-0.10220379,0.0203999455,0.00635111499,-0.00710418466,0.0648642118
90560.449935,-0.144558637,-0.117974118,0.0677158234,-0.00616893797,-0.0155037946,0.0701037209
90560.459962,-0.227742879,-0.0798986907,0.140091324,-0.0234318145,-0.00980729302,0.0727389167
90560.469988,-0.306559737,-0.0470029678,0.0125965782,-0.0335496973,0.00169516593,0.0670016642
90560.480015,-0.202757691,-0.0257723291,0.0241151666,-0.0363803703,0.0121320936,0.0653329278
90560.490041,-0.188356588,-0.0369788193,0.0747645729,-0.0105999049,0.0198038624,0.0654594313
90560.500067,-0.120103702,-0.07347801,-0.129857251,0.0207968995,0.0136285241,0.0671848963
90560.510094,-0.156506008,-0.0687432366,-0.28071183,0.0417740855,0.00626541656,0.0652058954
90560.520120,-0.13573537,-0.0975626865,-0.0501705513,0.0403833825,-0.0055835193,0.0638519461
90560.530147,-0.115553199,-0.0709821746,0.0961007909,-0.00389433205,-0.0129037506,0.0605885099
90560.540173,-0.0116158915,0.00194672184,0.0789474115,-0.0713159788,-0.0131801867,0.051770785
90560.550199,0.0683439265,0.0930685333,0.157546316,-0.132803855,0.000247471549,0.0444944958
90560.560226,0.0455914485,0.201460519,0.202473838,-0.162662682,0.0264939883,0.0367787863
90560.570252,-0.0412216878,0.310412075,0.168044914,-0.149085623,0.0525530216,0.029876669
90560.580278,-0.104536861,0.382028427,-0.081779157,-0.0967273314,0.0665873488,0.0242813687
90560.590305,-0.15486869,0.429980192,-0.285945054,-0.0263327949,0.0597310414,0.0185374628
90560.600331,-0.130283717,0.425144004,-0.34355144,0.0421434667,0.0267046441,0.0129381671
90560.610358,-0.135273123,0.366204141,-0.31932593,0.103412422,-0.0149653039,0.00754926085
90560.620384,-0.0739820025,0.279994177,-0.235527119,0.153416994,-0.0560008871,0.00560541974
90560.630410,-0.0424768389,0.160380832,-0.236978487,0.181286442,-0.0813379313,0.00282720999
90560.640437,-0.0590244892,0.0421162717,-0.1624952,0.185260403,-0.0837044219,-0.000137420264
90560.650463,-0.0862333073,-0.0602768754,0.132271005,0.14896405,-0.0656504582,-0.00352556434
90560.660489,-0.0658247804,-0.109354795,0.392540483,0.0581476007,-0.0331670891,-0.00907825575
90560.670516,-0.0408177101,-0.0799198431,0.453640556,-0.0690817211,0.00308572506,-0.0183204886
90560.680542,-0.0661422123,0.00714863787,0.472475605,-0.191778076,0.0420786639,-0.0280769811
90560.690569,-0.115781145,0.120514174,0.454082454,-0.250147385,0.0751508673,-0.0368281294
90560.700595,-0.125058457,0.182290283,0.0166391316,-0.217624066,0.0917716523,-0.0447630127
90560.710621,-0.231177255,0.272327661,-0.377774028,-0.107151878,0.0805877124,-0.0507386167
90560.720648,-0.266915636,0.25255818,-0.489875974,0.0354231138,0.0485173886,-0.0510512729
90560.730674,-0.255671207,0.224521953,-0.334411271,0.154402765,-0.00447259256,-0.0495833372
90560.740700,-0.224015035,0.118055017,-0.320484453,0.229715633,-0.0608194905,-0.0453550358
90560.750727,-0.277577516,-0.0362792562,-0.493323484,0.262596893,-0.103799174,-0.043355002
90560.760753,-0.321542001,-0.198450507,-0.105345326,0.242684963,-0.118633779,-0.039164788
90560.770780,-0.350207101,-0.327018544,0.460708595,0.16707142,-0.0973045255,-0.0355455492
90560.780806,-0.363965431,-0.432286809,0.605720877,0.0672082107,-0.0537908736,-0.0344065119
90560.790832,-0.397664908,-0.504973128,0.298077069,-0.0517312299,0.00264071096,-0.0394281735
90560.800859,-0.435781398,-0.492864538,0.0274942876,-0.12868194,0.0498348524,-0.0458282818
90560.810885,-0.37107793,-0.457178527,0.274673982,-0.157912788,0.0829896157,-0.0407765274
90560.820911,-0.404190218,-0.355611748,0.309838234,-0.162769062,0.0850801964,-0.0334736098
90560.830938,-0.247838558,-0.274312315,-0.0464997539,-0.14692646,0.0625115012,-0.0241719865
90560.840964,-0.432994397,-0.116655802,-0.397626145,-0.139149753,0.0355651055,-0.0217101601
90560.850991,-0.353932259,0.0670684882,-0.257783374,-0.125843001,0.0081113766,-0.0228571826
90560.861017,-0.369373354,0.183316996,0.0629274201,-0.0985213716,-0.00424302807,-0.0253355213
90560.871043,-0.410251308,0.284346417,-0.00734730864,-0.0644555438,-0.00484064147,-0.0244161979
90560.881070,-0.282894345,0.375075613,-0.0701413262,-0.03254635,-0.000295424203,-0.0261030429
90560.891096,-0.352739834,0.412013231,-0.100316684,0.0024318756,0.0115460551,-0.0270402104
90560.901122,-0.361703185,0.376851244,-0.149078085,0.0461772259,0.0180412394,-0.0247413711
90560.911149,-0.333482834,0.279674553,-0.0583111877,0.113714459,0.00937717622,-0.0239610643
90560.921175,-0.349713691,0.125416888,-0.220839837,0.177824738,-0.0136594332,-0.0221775462
90560.931201,-0.343299879,-0.0264783219,-0.435618314,0.209027665,-0.0462687748,-0.0200574034
90560.941228,-0.200082207,-0.163589512,-0.132626716,0.181132379,-0.0735296856,-0.0167617415
90560.951254,-0.26911784,-0.231985295,0.192493127,0.098084363,-0.0790893014,-0.0189932034
90560.961281,-0.189365235,-0.265488592,0.268590278,-0.00228724578,-0.0597792591,-0.0251586893
90560.971307,-0.139360484,-0.251930424,0.372610624,-0.0906671781,-0.0169138151,-0.028219194
90560.981333,-0.154440399,-0.179185031,0.373466364,-0.148746458,0.0382554282,-0.034093595
90560.991360,-0.167246142,-0.0311318103,0.379821871,-0.195539263,0.0809733321,-0.0399762531
90561.001386,-0.241173602,0.148203451,0.31500307,-0.228838903,0.104773474,-0.0485782613
90561.011412,-0.175667604,0.283605463,0.0245225784,-0.2258708,0.0978796159,-0.0541983236
90561.021439,-0.157386755,0.447127945,-0.29120692,-0.180326221,0.0756411527,-0.0601219972
90561.031465,-0.173892155,0.520890334,-0.376721888,-0.0898224238,0.041603287,-0.0623348196
90561.041491,-0.236258942,0.528205917,-0.353775312,0.0306754976,0.00527803907,-0.0633148615
90561.051518,-0.226068954,0.480409708,-0.346015784,0.155364158,-0.0315907623,-0.0615750168
90561.061544,-0.212895054,0.333063832,-0.548440975,0.269255596,-0.0686691503,-0.0588479404
90561.071570,-0.202971206,0.107345225,-0.424428227,0.348557877,-0.103652703,-0.0540252243
90561.081597,-0.178368716,-0.185059914,-0.103615726,0.369006949,-0.124143864,-0.0472775687
90561.091623,-0.0998842316,-0.454005815,0.128708929,0.326770025,-0.130843575,-0.0379940559
90561.101650,0.116597049,-0.729059678,0.129958052,0.216777461,-0.119984801,-0.0308253624
90561.111676,0.279105898,-0.868080391,0.242819877,0.0697536569,-0.0814446012,-0.0256529719
90561.121702,0.375995442,-0.849168478,0.619796748,-0.0964843158,-0.0248223382,-0.0223972563
90561.131729,0.381442236,-0.695781897,0.941363283,-0.239120555,0.0476808895,-0.0209269252
90561.141755,0.270574033,-0.476062493,0.808947447,-0.352272672,0.114959796,-0.0267933355
90561.151781,0.208601251,-0.158274491,0.364615534,-0.432428491,0.154993494,-0.0343069126
90561.161808,0.171987402,0.151017741,-0.116721876,-0.437908483,0.169914921,-0.0406154086
90561.171834,0.052771003,0.392739206,-0.339578445,-0.336788786,0.150852283,-0.0435121273
90561.181860,-0.0126193329,0.51200414,-0.479236506,-0.147074265,0.103506607,-0.0387131114
90561.191887,0.0068865461,0.557379368,-0.760321393,0.0788936269,0.0304142864,-0.0383085747
90561.201913,0.00870486584,0.445881672,-0.813929064,0.283634263,-0.052587657,-0.0295568974
90561.211939,-0.0324458405,0.284170439,-0.65912078,0.412707018,-0.129357005,-0.0261528463
90561.221966,-0.0553351332,0.0791421897,-0.413461427,0.423754084,-0.179914723,-0.0232851551
90561.231992,-0.0462746603,-0.149023665,-0.0056533642,0.322836268,-0.186027209,-0.027217579
90561.242018,-0.0216963003,-0.298792055,0.478667445,0.154115679,-0.142586256,-0.0338853364
90561.252045,0.00528630783,-0.406854115,0.832451657,-0.0216923703,-0.0582375552,-0.0412753363
90561.262071,-0.0783715975,-0.422150578,0.929043899,-0.175072608,0.0401819584,-0.0464360108
90561.272097,-0.0990369488,-0.340118118,0.613358824,-0.279739601,0.125122686,-0.0486690764
90561.282124,-0.129733627,-0.182639519,0.232254059,-0.318795127,0.165941497,-0.0476733212
90561.292150,-0.174783624,-0.0316538614,-0.0370655706,-0.287015361,0.163054888,-0.0427299579
90561.302176,-0.175441997,0.14646669,-0.21881856,-0.209464935,0.116392312,-0.0365631421
90561.312203,-0.129167043,0.272748736,-0.499609432,-0.0995006163,0.0497951706,-0.0289837875
90561.322229,-0.166933897,0.363026315,-0.74462698,0.0280858397,-0.0174403216,-0.0252574914
90561.332255,-0.125538185,0.361961864,-0.511403915,0.144927773,-0.0730636368,-0.0233663813
90561.342282,-0.138514973,0.295687347,-0.20560895,0.228764879,-0.104021552,-0.0223344051
90561.352308,-0.0877831123,0.166213338,-0.15772784,0.25994386,-0.111977744,-0.020097616
90561.362335,-0.0357408087,0.0233965563,-0.0128114193,0.228933993,-0.095503966,-0.021063811
90561.372361,-0.0699148444,-0.124031591,0.184904279,0.152711662,-0.0621167111,-0.0226526529
90561.382387,-0.0755715185,-0.248725198,0.454900785,0.0552796412,-0.0202627393,-0.0244473562
90561.392414,-0.0494739861,-0.317574717,0.493783181,-0.0414492983,0.0187208776,-0.0287086823
90561.402440,0.0144175444,-0.332094021,0.293438303,-0.121085537,0.0481991407,-0.0323004861
90561.412466,0.0175413572,-0.294269536,0.0952514806,-0.157968191,0.0632308249,-0.0335138206
90561.422493,-0.0882614522,-0.226018569,-0.0514541614,-0.147973341,0.0659219448,-0.0300471865
90561.432519,-0.0637080805,-0.122122214,-0.0961946359,-0.122827244,0.0488393654,-0.029278864
90561.442545,0.0488977783,0.00292645359,-0.118578902,-0.0888615523,0.0223254667,-0.0272314259
90561.452572,0.178157579,0.0743038828,-0.150333638,-0.0499533016,-0.00352424076,-0.0205314447
90561.462598,0.0907401202,0.137824753,-0.289800561,-0.00870865975,-0.0143249572,-0.0194557951
90561.472624,-0.0662525043,0.192829505,-0.169814583,0.0347085882,-0.0100612358,-0.0197535352
90561.482651,-0.233357668,0.185921297,0.0953198696,0.0499237616,0.00149208941,-0.0241458871
90561.492677,-0.337022406,0.199297751,0.116070397,0.038735288,0.00893429322,-0.0297707514
90561.502703,-0.320105393,0.147970957,0.0201491856,0.0223539181,0.010455224,-0.0343633731
90561.512730,-0.290479083,0.0868274105,-0.0817335643,0.0300943952,0.00450838572,-0.0361346369
90561.522756,-0.231541102,0.0234220561,-0.0996924149,0.0434240501,-0.00593413524,-0.0334874605
90561.532782,-0.234382116,-0.00415422538,-0.100601931,0.0433843683,-0.0170099555,-0.0303513192
90561.542809,-0.159927471,-0.0272195687,-0.0898110723,0.0400564808,-0.0229706417,-0.026526221
90561.552835,-0.0608783735,-0.0556089567,-0.0067107643,0.031545284,-0.0236095346,-0.0234595918
90561.562861,-0.0404249479,-0.0568127064,0.0848019828,0.0206606805,-0.0161375037,-0.022562106
90561.572888,-0.131574689,-0.063043929,0.159109912,0.0159862999,0.00145906622,-0.020144754
90561.582914,-0.15979146,-0.0886581896,0.0882459857,0.0130027605,0.0169765067,-0.0207239919
90561.592940,-0.225330063,-0.101479896,-0.110255894,0.000569793323,0.0231358663,-0.0202773799
90561.602967,-0.133517037,-0.0754346971,-0.0273584155,-0.0239075881,0.0188660205,-0.0217277379
90561.612993,-0.136481512,-0.054287097,0.217552749,-0.0379834596,0.0142022914,-0.0213093542
90561.623019,-0.10812663,-0.0403315272,0.0815368435,-0.0395587172,0.00495819357,-0.021240645
90561.633046,-0.0914505671,-0.0173625204,-0.189456272,-0.0303540353,0.000311510105,-0.0234784976
90561.643072,-0.219974984,0.0379785508,-0.0591528992,-0.0309247498,0.00295975739,-0.0251158112
90561.653098,-0.249026033,0.103126621,0.123105118,-0.0444800232,0.00691155698,-0.0269473632
90561.663125,-0.288195155,0.123897314,0.0156828538,-0.0410671841,0.00885859439,-0.031677137
90561.673151,-0.171878934,0.0975555791,-0.100039621,-0.00553129353,0.000477892512,-0.0316409197
90561.683177,0.00819240454,0.0477720689,-0.199633383,0.0535589259,-0.0124341777,-0.0302896303
90561.693203,-0.0671464209,0.010329058,-0.156085333,0.102722469,-0.021896389,-0.0256464098
90561.703230,-0.117212146,-0.0499428937,0.0434377067,0.0991921823,-0.0279843758,-0.0246682306
90561.713256,-0.204364231,-0.0469317658,0.0585920212,0.0443997819,-0.0260495885,-0.0248618414
90561.723282,-0.232945142,-0.0613203931,-0.0925384514,-0.0155746063,-0.0197418916,-0.0297258411
90561.733309,-0.243965498,-0.0804782077,0.144360087,-0.0424472328,-0.00513578457,-0.0256879543
90561.743335,-0.186537318,-0.103893899,0.135257328,-0.0333203126,0.00723646237,-0.026424053
90561.753361,-0.218926096,-0.0748871462,-0.0109953097,-0.0241047118,0.0178100106,-0.0251553235
90561.763388,-0.24274308,-0.00392403336,0.104007618,-0.0430552337,0.0169559357,-0.0274616209
90561.773414,-0.0881274871,0.106097526,0.154793218,-0.0688487489,0.0134213877,-0.0352865186
90561.783440,-0.110414138,0.103409712,-0.211858658,-0.0601990644,0.00777735124,-0.0383076099
90561.793467,-0.168718132,0.10422596,-0.156039741,-0.0224476934,0.0105560928,-0.0331376147
90561.803493,-0.138784583,0.110560424,-0.0549075167,0.0203535676,0.00687081069,-0.0329985981
90561.813519,-0.0158280111,0.14217429,-0.315021511,0.0705416303,-0.00566175924,-0.0395214771
90561.823546,-0.0569603963,0.00576788756,-0.4481604,0.128343689,-0.0160052112,-0.0327123095
90561.833572,-0.0409886645,-0.0695983556,-0.433906249,0.148967477,-0.0354718517,-0.0298456837
90561.843598,-0.0299690203,-0.110835571,-0.185437684,0.122208821,-0.0429649229,-0.0199102265
90561.853625,-0.0825132091,-0.105684107,0.359970338,0.0563310076,-0.0464565928,-0.0200100959
90561.863651,-0.0327228308,-0.0439753636,0.823480415,-0.04878156,-0.0355498816,-0.0164728843
90561.873677,0.0782937129,-0.00410519861,0.0105256172,-0.121670154,-0.0139633647,-0.0262088691
90561.883704,0.121447923,0.0363392957,-0.240588494,-0.124111471,0.0175910995,-0.0322406617
90561.893730,-0.111061404,0.0804839597,0.212890603,-0.0772448976,0.0485625987,-0.0344361727
90561.903756,-0.0334308878,0.12671175,0.245287728,-0.0155421162,0.0510742229,-0.033255062
90561.913783,-0.000672764967,0.0783871336,-0.0622356676,0.0464341704,0.0277816852,-0.032813507
90561.923809,0.076088458,-0.00235510354,-0.48294296,0.115734677,-0.012838179,-0.0292749655
90561.933835,0.0977888514,-0.0791498086,-0.0632790392,0.143372434,-0.0539565857,-0.0258983438
90561.943862,-0.00365344301,-0.113670722,0.183595534,0.125687185,-0.0791061471,-0.025745212
90561.953888,0.0772258097,-0.194160737,-0.0546298688,0.082504819,-0.0789082746,-0.021217306
90561.963914,0.101590162,-0.282366479,-0.0303570128,0.0343130592,-0.055491368,-0.0154672758
90561.973941,0.0921468269,-0.268851346,0.193062451,-0.00403006953,-0.0133963774,-0.0170654383
90561.983967,-0.0739251578,-0.225341327,0.53312092,-0.0378112022,0.0311889325,-0.0171812855
90561.993993,0.153495961,-0.221662967,0.26218801,-0.0913676444,0.0530854438,-0.0190095463
90562.004019,0.153724619,-0.0999708071,-0.11745662,-0.149248508,0.065291514,-0.0239987102
90562.014046,-0.0434084572,0.0351900526,0.0969775737,-0.177652192,0.0643980254,-0.0226327767
90562.024072,-0.0238833072,0.168465793,0.203703087,-0.170734626,0.0556615193,-0.023298568
90562.034098,-0.0904723697,0.278567834,-0.10463747,-0.119896223,0.0408479509,-0.02764511
90562.044125,0.00517429883,0.315345951,-0.182206447,-0.0344803866,0.019023347,-0.0211110459
90562.054151,0.169401459,0.348956617,-0.425902976,0.0747379761,-0.00947434054,-0.0218173162
90562.064177,0.239305893,0.27191539,-0.483250418,0.182098794,-0.0380955997,-0.0184002154
90562.074204,0.0553951227,0.18685423,-0.128968778,0.235892254,-0.0572277482,-0.0169402704
90562.084230,-0.0303078056,0.0715391674,-0.112942942,0.209251853,-0.0720093499,-0.0152462338
90562.094256,0.122047186,-0.0446128213,-0.0863343361,0.129780459,-0.0791026826,-0.0198873234
90562.104283,0.172172641,-0.200338513,-0.0157159085,0.0745142724,-0.0661410789,-0.0245987204
90562.114309,0.224489012,-0.336563604,0.239512067,0.0601696882,-0.0419888745,-0.0238216099
90562.124335,0.256091426,-0.406285741,0.415896808,0.0334952015,-0.0112629195,-0.0211994638
90562.134361,0.204941596,-0.37819603,0.137256393,-0.0368175779,0.0152491157,-0.023112147
90562.144388,0.247241911,-0.278914,0.190167899,-0.141919759,0.0329527457,-0.0209456635
90562.154414,0.308596561,-0.162460179,0.301856003,-0.219626797,0.0464571019,-0.0170204312
90562.164440,0.267491265,-0.0275334935,0.257754996,-0.225006384,0.058695392,-0.015678997
90562.174467,0.175696249,0.0711083382,0.0337381505,-0.164302555,0.068032441,-0.0117239364
90562.184493,0.171912401,0.172931905,-0.253827915,-0.0608688492,0.0545192895,-0.00778565266
90562.194519,0.271751973,0.210353618,-0.317910218,0.0273414355,0.0241738998,-0.000835868423
90562.204546,0.262435023,0.258372529,-0.420988316,0.0864399027,-0.0113843593,-0.00572969288
90562.214572,0.184844053,0.216609536,-0.201098779,0.115632678,-0.0464374187,-0.00312272449
90562.224598,0.148373303,0.129856441,0.13788943,0.120268705,-0.0631972204,-0.00277358469
90562.234625,0.200295615,0.0355296598,-0.15654769,0.120969119,-0.0664859588,-0.00472568151
90562.244651,0.204001465,-0.0565386022,-0.138554353,0.111973497,-0.0496662359,-0.0052841463
90562.254677,0.205306173,-0.148404547,0.0856571383,0.0854420166,-0.0282893076,-0.010744159
90562.264703,0.201778857,-0.164491137,0.340088995,0.029432549,-0.00479969401,-0.0115407099
90562.274730,0.222734771,-0.193608985,0.357613546,-0.0411460113,0.0128559985,-0.0120962457
90562.284756,0.135346374,-0.171820201,0.167129553,-0.100707081,0.0288043388,-0.0130102438
90562.294782,0.174493832,-0.131687915,0.0232109112,-0.121914898,0.0312437949,-0.010006464
90562.304809,0.313725376,-0.0878397494,0.0173873196,-0.0995387558,0.0310128977,-0.00908154704
90562.314835,0.208746084,-0.0333497055,-0.0373946564,-0.0518066447,0.0264330593,-0.00514912408
90562.324861,0.164517578,-0.0083299767,-0.0479698264,0.00683482857,0.0147572293,0.00345155468
90562.334888,0.213190022,-0.0505714374,-0.203941309,0.0720561694,-0.00333681954,0.012298043
90562.344914,0.175979577,-0.0984552149,-0.218144607,0.128384965,-0.0230862896,0.0178568597
90562.354940,0.177220316,-0.164788184,-0.0135537621,0.136731583,-0.0391970823,0.0251928019
90562.364967,0.0191722098,-0.210081981,-0.0316984906,0.0963175695,-0.0415305446,0.0228641342
90562.374993,0.109107661,-0.217960533,0.101883466,0.0163372539,-0.0366289976,0.0214095163
90562.385019,0.194897884,-0.196179859,0.142039535,-0.0703355942,-0.0151282313,0.0171633708
90562.395045,0.149743933,-0.146530752,0.167520013,-0.127173034,0.0189192177,0.00957735732
90562.405072,0.182140018,-0.0983598648,0.325342093,-0.127354396,0.045924471,0.0107683233
90562.415098,0.303829091,-0.0776721373,0.0852508956,-0.0818942461,0.0544481848,0.0136115142
90562.425124,0.281909904,-0.0777947042,-0.309551555,-0.00960300044,0.0489375715,0.0166608329
90562.435151,0.196177877,-0.101099665,-0.270989477,0.0512648772,0.0229877283,0.0226870339
90562.445177,0.167043078,-0.100296422,-0.0531440142,0.0754652869,-0.0104298831,0.0285387981
90562.455203,0.0968276051,-0.133070309,0.0166087365,0.0641140964,-0.035817797,0.0325628343
90562.465230,0.0877211011,-0.171485891,-0.0454908691,0.0381882254,-0.047569527,0.0383544128
90562.475256,0.0576386821,-0.180817089,0.0288796045,0.00704175634,-0.0362047541,0.0421874981
90562.485282,0.00849361598,-0.21053462,0.164068412,-0.00918461774,-0.0127638771,0.0477260734
90562.495308,0.0225602996,-0.203220608,0.112947881,-0.0149836505,0.0121542563,0.0493561971
90562.505335,0.00804225548,-0.173563026,0.0669144439,-0.0292794995,0.0298594826,0.0503173295
90562.515361,-0.0402831283,-0.160509483,0.033938057,-0.0448416818,0.0344568987,0.0493253033
90562.525387,0.0196849634,-0.0854813862,0.0597552198,-0.0874631826,0.027707116,0.0489703055
90562.535414,-0.0795316908,0.0632892254,-0.00352219739,-0.137694118,0.0194656991,0.0405091728
90562.545440,0.00132582497,0.165268787,-0.00439722666,-0.153747124,0.0175452934,0.0368712965
90562.555466,-0.0196005884,0.253324635,0.13819455,-0.131680963,0.0193290778,0.0317060958
90562.565493,-0.123674327,0.36879635,-0.0771842305,-0.0791477237,0.0278298886,0.0253789584
90562.575519,-0.228674424,0.399383175,-0.240321952,-0.00872921683,0.0292634678,0.023392507
90562.585545,-0.267868461,0.38638107,-0.212059149,0.0597672861,0.0170102634,0.017403056
90562.595571,-0.279047826,0.319622825,-0.129553885,0.116195406,-0.00250564674,0.0160962428
90562.605598,-0.352620592,0.208000223,-0.191589193,0.147458258,-0.0302805516,0.0138418778
90562.615624,-0.313487436,0.0664212398,-0.165553419,0.168587508,-0.0570453207,0.0133760908
90562.625650,-0.361336726,-0.0847722151,-0.0840319044,0.168545428,-0.0682345877,0.018280835
90562.635677,-0.342152608,-0.205842554,0.0137007401,0.131044137,-0.0649248089,0.0222971487
90562.645703,-0.347500472,-0.24737488,0.234839399,0.0528942,-0.048305093,0.0193809859
90562.655729,-0.283882608,-0.269145069,0.34890417,-0.0388629187,-0.0168390858,0.018170192
90562.665755,-0.205718715,-0.247564265,0.303635288,-0.109993552,0.0205485013,0.016413306
90562.675782,-0.332953038,-0.205029739,0.108579164,-0.138749835,0.0566862647,0.0129088509
90562.685808,-0.398164345,-0.13129844,0.208881951,-0.141147223,0.0772285585,0.0145171342
90562.695834,-0.426360805,0.00593619334,0.268745176,-0.142925677,0.0775079255,0.0119690216
90562.705861,-0.356706327,0.120051087,-0.190939789,-0.135229406,0.0597438377,0.00952716928
90562.715887,-0.399387384,0.182246006,-0.444648008,-0.0901295666,0.0342709695,0.0121581062
90562.725913,-0.448926857,0.196225322,-0.245469836,-0.0106315475,0.00972940894,0.0152564283
90562.735939,-0.464906808,0.169530463,-0.110036114,0.0781878035,-0.0168212417,0.0189161423
90562.745966,-0.37040204,0.124927716,-0.21338426,0.140368077,-0.0468087035,0.0219042107
90562.755992,-0.241479928,0.0431620179,-0.508116564,0.166309926,-0.0638060595,0.0222477588
90562.766018,-0.236856269,-0.0781967457,-0.270206218,0.170531842,-0.0694498296,0.0245726976
90562.776045,-0.240469126,-0.197699944,0.354364189,0.148438784,-0.0542130905,0.0290004696
90562.786071,-0.395395246,-0.276615733,0.324112259,0.083970594,-0.0308736774,0.0234935853
90562.796097,-0.363275695,-0.313923391,0.189303975,-0.0148401411,-0.0067116159,0.0207968681
90562.806123,-0.150131268,-0.299310526,0.232083379,-0.102117521,0.0146434738,0.0145227268
90562.816150,-0.222955991,-0.24873572,0.315685791,-0.147751329,0.037800723,0.0127714324
90562.826176,-0.321609075,-0.104854232,0.333430122,-0.192861018,0.0570907977,0.00632285384
90562.836202,-0.240856865,0.0693598871,0.138333082,-0.217332539,0.0660275643,0.0050072522
90562.846229,-0.164434573,0.177810435,-0.26884662,-0.187293408,0.0644555067,0.00412388157
90562.856255,-0.319477031,0.213083335,-0.272315173,-0.0842056323,0.0567696218,0.0133701108
90562.866281,-0.316429517,0.214821045,-0.430502578,0.0392438684,0.023397283,0.016159772
90562.876307,-0.228887171,0.213217738,-0.499567347,0.141209113,-0.0221619445,0.0200815435
90562.886334,-0.0972064089,0.0748928252,-0.52800609,0.201085227,-0.0727561439,0.0250866871
90562.896360,0.102049614,-0.0456877936,-0.103758934,0.226785528,-0.108289371,0.0327017318
90562.906386,-0.0552418837,-0.21202716,0.0832886556,0.199795457,-0.106346863,0.0375723849
90562.916413,-0.12544415,-0.274589561,0.25780468,0.115080843,-0.078885677,0.0352892588
90562.926439,0.0249169458,-0.321021532,0.700874026,-0.000224180564,-0.0367731142,0.0383124809
90562.936465,0.0515453519,-0.3054879,0.484796157,-0.119056029,0.0204792594,0.0293922211
90562.946491,0.0327278205,-0.135744972,0.455634945,-0.242287156,0.0761579697,0.0208743672
90562.956518,-0.0184523865,0.0290706199,0.45101313,-0.305123371,0.122453024,0.015848714
90562.966544,-0.191656926,0.126950016,0.114661699,-0.266314459,0.137209063,0.0174812312
90562.976570,-0.125620347,0.218559721,-0.375005732,-0.152252329,0.113340487,0.015721948
90562.986596,-0.0630303639,0.338245911,-0.794331214,-0.021742522,0.0635830511,0.01067366
90562.996623,-0.0773931444,0.31513987,-0.328747254,0.0936184254,-0.000445996828,0.02011137
90563.006649,-0.0780863874,0.279592318,-0.375752166,0.181721377,-0.0628878052,0.0226256597
90563.016675,0.0280031848,0.205640179,-0.4888969,0.221022445,-0.110461178,0.0237188871
90563.026702,0.0657043718,0.112636682,-0.08132323,0.202316674,-0.124057944,0.0232672162
90563.036728,0.143579657,-0.00246656456,0.209496284,0.148995924,-0.102246131,0.0185488938
90563.046754,0.160631001,-0.156646671,0.342704146,0.106394942,-0.0568253833,0.0206376101
90563.056780,0.096819367,-0.312485979,0.162466822,0.0792195152,-0.00558776194,0.0174964118
90563.066807,0.277796039,-0.391907708,0.170118798,0.0251759838,0.0273728495,0.0178399599
90563.076833,0.159245282,-0.421636454,0.352487289,-0.0442694027,0.046289285,0.0244675028
90563.086859,0.27772754,-0.377980122,0.270040477,-0.123199907,0.0419592497,0.0284396085
90563.096886,0.409328095,-0.256620445,0.295089578,-0.186994863,0.0334238199,0.0346580903
90563.106912,0.373243002,-0.114582831,0.076998031,-0.203611133,0.0347047982,0.0355699557
90563.116938,0.24028926,0.0692909866,-0.24124082,-0.202933622,0.0458687705,0.032743008
90563.126964,0.147736831,0.284102233,-0.0658240475,-0.164605943,0.0580561955,0.0261684629
90563.136991,0.120858341,0.383397341,0.0562381516,-0.105379892,0.0587507461,0.0252898867
90563.147017,0.106171023,0.435904029,-0.498661922,-0.00738089318,0.0404236701,0.0200615685
90563.157043,0.186371756,0.344067092,-0.602052154,0.122885237,0.00774615286,0.0229060921
90563.167069,-0.00382154785,0.174040999,-0.332381811,0.244393009,-0.0317626397,0.0265721987
90563.177096,-0.138694786,0.0337321454,-0.0567201191,0.283071446,-0.0753346185,0.0313999775
90563.187122,0.0405335988,-0.0535786564,0.112079281,0.205701011,-0.110934156,0.0326490003
90563.197148,0.168981827,-0.163735935,-0.0794363933,0.0877493497,-0.111708606,0.0282944656
90563.207175,0.0519351002,-0.258895368,0.258305615,0.000140672477,-0.0667355384,0.0263032197
90563.217201,-0.0795137533,-0.27643044,0.751442184,-0.0600707356,0.00192528176,0.029652943
90563.227227,0.0462628449,-0.241332421,0.456083857,-0.107910966,0.0602309306,0.0265857811
90563.237253,0.183943378,-0.125815662,-0.072446096,-0.15510751,0.0911957745,0.0184860426
90563.247280,0.148882659,-0.0357122334,-0.142971,-0.179661063,0.0964025159,0.0169411424
90563.257306,0.180082629,0.0515623281,0.272356352,-0.159323034,0.0757510339,0.0219564076
90563.267332,0.119305997,0.125885894,0.162636333,-0.104647261,0.0445917857,0.0230717409
90563.277359,0.0425550034,0.199657123,-0.675587346,-0.0221182939,0.00958053796,0.0194815333
90563.287385,-0.0557035647,0.196827124,-0.556105811,0.0685919028,-0.0213858995,0.0223566826
90563.297411,-0.0477007111,0.132310155,-0.0503926696,0.147103744,-0.0491557482,0.0253127898
90563.307437,0.0665456449,0.0342774678,-0.198529221,0.197564783,-0.0694458361,0.0278103027
90563.317464,0.144865514,-0.136198962,-0.273197216,0.21336745,-0.0821698855,0.0311797346
90563.327490,0.270396668,-0.285621352,-0.043487128,0.174157741,-0.0785988594,0.0377715911
90563.337516,0.294751576,-0.361644598,0.299445435,0.0885914441,-0.0581303338,0.0389481756
90563.347542,0.270886917,-0.381670245,0.584281198,-0.0208176069,-0.0194484505,0.0417687307
90563.357569,0.184696169,-0.341516697,0.364402768,-0.139234272,0.0273446229,0.0377705257
90563.367595,0.074768297,-0.167821852,0.293077069,-0.24233563,0.0709219252,0.0307336553
90563.377621,0.0394985202,0.0535125488,0.476840814,-0.302807224,0.103307297,0.0245047874
90563.387648,-0.0415499881,0.234211536,0.0509523201,-0.297258002,0.114261409,0.0165320831
90563.397674,-0.0365405808,0.389061285,-0.301603227,-0.201800985,0.101157327,0.0108427714
90563.407700,0.0559185438,0.402135177,-0.33306804,-0.0441847157,0.0624637281,0.0160894646
90563.417726,0.0784576896,0.419624437,-0.511992529,0.128220874,0.00873125652,0.0218876983
90563.427753,0.034909658,0.36022777,-0.615329569,0.248019981,-0.0537315893,0.0264086808
90563.437779,0.029272949,0.246220575,-0.408418757,0.302877354,-0.103387291,0.0283189668
90563.447805,-0.0616693412,0.0657525468,-0.0606264789,0.287465113,-0.126261721,0.0306905109
90563.457831,-0.00613212635,-0.11089132,0.184933505,0.217647957,-0.119926857,0.0272710129
90563.467858,-0.0611271789,-0.245363248,0.155045732,0.0981641736,-0.077283519,0.0207856829
90563.477884,-0.149647137,-0.292570076,0.28335647,-0.0202042807,-0.0198263514,0.0128230975
90563.487910,-0.103941252,-0.370709437,0.641419382,-0.0921288032,0.0337804158,0.0143197934
90563.497936,-0.151465567,-0.408110947,0.403459936,-0.122571667,0.066157793,0.0183954957
90563.507963,0.0676356321,-0.343026517,-0.0485935113,-0.13140778,0.0664890905,0.0196969818
90563.517989,0.0549989082,-0.220191251,-0.0636507951,-0.152532769,0.052342647,0.0207981999
90563.528015,-0.132929318,-0.0449304724,0.106526908,-0.177247164,0.0353657951,0.0205127086
90563.538042,-0.100973543,0.120244015,0.0366087375,-0.176558745,0.0222973985,0.0177329007
90563.548068,-0.0839353691,0.209654018,-0.152710888,-0.115861562,0.0137755492,0.0190429102
90563.558094,-0.00651369128,0.267122785,-0.314533435,-0.0135847267,0.00956402654,0.0162457909
90563.568120,-0.0414544188,0.280860803,-0.278937806,0.0839839082,0.00444409931,0.0174585964
90563.578147,-0.0274405613,0.244346927,-0.161330248,0.134960535,-0.0056604661,0.020016295
90563.588173,-0.0103761754,0.200431505,-0.349537529,0.145042199,-0.0224317226,0.0204906046
90563.598199,-0.06637403,0.0730359087,-0.165594335,0.1463317,-0.0370657953,0.0204578462
90563.608225,-0.120174393,-0.0499365736,0.192871897,0.117892342,-0.0404775689,0.0169624473
90563.618252,-0.128518991,-0.0902670131,0.337102089,0.0510107789,-0.0330931569,0.0124776858
90563.628278,-0.16889663,-0.0966275976,0.161166845,-0.0417889331,-0.0180100749,0.00678491231
90563.638304,-0.274765235,-0.0627993796,0.0398908279,-0.114678321,0.0113720468,-0.000378192295
90563.648331,-0.274476719,0.0261628792,0.480973968,-0.148370248,0.0359255907,-0.00215505332
90563.658357,-0.27136308,0.104375707,0.29042217,-0.141298753,0.05564917,-0.00851369732
90563.668383,-0.266858828,0.177628356,-0.280361117,-0.104172421,0.0604316753,-0.0130447996
90563.678409,-0.168803947,0.229021603,-0.239787699,-0.0429687176,0.0431168688,-0.0148261868
90563.688436,-0.173176719,0.264007832,0.123071215,0.014214943,0.0186605242,-0.0101006747
90563.698462,-0.232139104,0.215790402,-0.0252839473,0.0807513621,-0.00775377052,-0.00673603628
90563.708488,-0.443611141,0.100080093,-0.331745851,0.159855756,-0.0320567141,0.00106249807
90563.718514,-0.333815098,-0.0878843557,-0.87163365,0.231480676,-0.062218609,0.00236877856
90563.728541,-0.177571958,-0.220994384,-0.470477446,0.242464888,-0.0853468354,0.00719602417
90563.738567,-0.113463972,-0.339036022,0.296957125,0.174027773,-0.0939837272,0.0113103419
90563.748593,0.100536725,-0.404311043,0.484363026,0.0597784322,-0.0820828627,0.0180023323
90563.758620,0.0955224225,-0.427989477,0.367771368,-0.0532597054,-0.0376339058,0.0184151243
90563.768646,0.0446133607,-0.425063543,0.356405339,-0.11696731,0.0187034023,0.0179085891
90563.778672,-0.0966101053,-0.418880288,0.102963078,-0.12570968,0.0714180146,0.0158608846
90563.788698,-0.0664611968,-0.268765604,0.167566191,-0.125010056,0.0932338287,0.0138105174
90563.798725,0.00396388186,-0.178211327,0.139403926,-0.142987994,0.0791867201,0.0138536609
90563.808751,0.0453855324,-0.0220347865,-0.135833988,-0.166053367,0.0495539953,0.0128155603
90563.818777,0.0639868455,0.110846401,0.114715475,-0.17138235,0.0197289859,0.019438577
90563.828803,-0.0879189041,0.297396635,-0.0399525242,-0.153810811,0.00478625559,0.013727693
90563.838830,-0.0586247493,0.444796105,-0.378681206,-0.0944441531,0.00120403774,0.00974253855
90563.848856,0.000531295326,0.465128443,-0.385091073,0.00739298928,0.000290307149,0.0114110095
90563.858882,0.0163905615,0.399890247,-0.430393273,0.131270188,-0.00580966305,0.00913800124
90563.868909,0.0258713239,0.29870622,-0.104612336,0.237752962,-0.0234746772,0.00979793269
90563.878935,0.0443227985,0.11172439,0.176854244,0.287552493,-0.0550110291,0.013832356
90563.888961,0.160235298,-0.0574901673,-0.424429396,0.252122062,-0.0836738373,0.0101412145
90563.898987,-0.05536235,-0.188356691,-0.303844284,0.148777279,-0.0880459423,0.00755475193
90563.909014,-0.0934054823,-0.298514334,0.542677268,0.036164983,-0.0669406603,0.00838725652
90563.919040,-0.021838193,-0.310082571,0.944295244,-0.0517683376,-0.0244467321,0.0078863158
90563.929066,0.0237007019,-0.309818769,0.374642422,-0.141272125,0.0246672866,0.000182855981
90563.939092,0.0392698808,-0.141360254,-0.0497280682,-0.212793973,0.0715208103,-0.00748092205
90563.949119,-0.122212949,0.020737895,0.463220285,-0.250765574,0.104256121,-0.00785882481
90563.959145,-0.135521746,0.116636054,0.39577172,-0.218219635,0.107497451,-0.0045511796
90563.969171,-0.0661040357,0.184537734,-0.349531099,-0.118206208,0.0815707793,-0.00157270011
90563.979198,-0.179903433,0.173705447,-1.07690488,0.0392052446,0.036052299,0.000668616141
90563.989224,-0.190500706,0.131633278,-0.752969276,0.17942627,-0.0196810055,0.00762159761
90563.999250,-0.0885761441,0.054655691,0.0221178553,0.235556918,-0.074220414,0.0178705054
90564.009276,0.037280972,0.0409405424,0.0538813593,0.178630519,-0.114647726,0.0171205598
90564.019303,0.0976590327,0.0258050787,-0.0703231125,0.0681772482,-0.114123883,0.01351251
90564.029329,-0.0452275989,-0.0206535978,0.17072144,-0.0316806447,-0.0653837795,0.00754330039
90564.039355,-0.104645966,-0.00610156006,0.421125357,-0.0892185021,0.00539984815,-0.00287418709
90564.049381,0.0295340842,0.0100709551,0.491967072,-0.097715852,0.0645667662,0.000774610429
90564.059408,0.00957359323,-0.00405989816,0.102365696,-0.0671957556,0.0913464476,-0.0011388705
90564.069434,0.012284551,-0.0305487132,-0.267691605,-0.0213704828,0.0814259102,0.00471688771
90564.079460,-0.0860138376,-0.0269543785,-0.238039394,0.00862576607,0.0430220601,0.00265160633
90564.089487,-0.0637869179,0.028252618,-0.0702032855,-0.00416406449,-0.00988270221,0.00146010808
90564.099513,0.0465426117,0.0736016163,0.0245138105,-0.0287186775,-0.0493177238,0.00331446725
90564.109539,-0.0697091658,0.103861876,-0.11526817,-0.0373401281,-0.0554717581,0.0011202885
90564.119565,-0.115013832,0.117461509,0.00973066742,-0.000370657959,-0.0357105683,0.00291738949
90564.129592,-0.100912533,0.0720289237,0.0306103738,0.0541077618,-0.00548928482,0.00350168731
90564.139618,-0.158118814,0.0352043003,-0.296998363,0.0959425669,0.0130678874,0.00331340182
90564.149644,0.017269445,-0.0039166903,-0.0705832247,0.0766564857,0.0120201998,0.00462101364
90564.159671,-0.0581130917,0.0304219249,0.457570297,0.00694717588,0.00430235947,0.00179273692
90564.169697,-0.137373913,0.0015230896,0.475489984,-0.0563210111,0.00194812501,-0.0014387424
90564.179723,-0.224965176,0.00934326183,0.206634465,-0.0946018148,0.0082036241,-0.00737998903
90564.189749,-0.253231193,0.070348204,-0.0618469606,-0.10656101,0.0199870479,-0.0118498382
90564.199776,-0.223432194,0.122929601,-0.345524201,-0.0768744845,0.0319651452,-0.014941235
90564.209802,-0.212686855,0.126701558,-0.0118329296,-0.0272081319,0.0360757348,-0.0118969762
90564.219828,-0.215991632,0.140180742,0.171702268,0.0264409807,0.0243959104,-0.0125451897
90564.229855,-0.122702961,0.0843110072,-0.332101825,0.0865623753,-0.000211166052,-0.00925219141
90564.239881,0.0828117018,0.0341866477,-0.559633985,0.100094701,-0.0313333969,-0.0105984182
90564.249907,-0.14921576,0.0769961541,0.00662218001,0.0536254633,-0.0383958357,-0.014198481
90564.259933,-0.201533337,0.156651181,0.750778751,-0.0213451825,-0.0310274015,-0.0246569802
90564.269960,-0.135046913,0.155660745,1.04421517,-0.0916275952,-0.00226020226,-0.0230702673
90564.279986,-0.216814657,0.18469234,-0.077787457,-0.114326251,0.0397658137,-0.0358672914
90564.290012,-0.283351295,0.157678295,-0.818704608,-0.0533686291,0.0697567363,-0.0367464003
90564.300039,-0.480857607,0.0668082299,-0.783837877,0.0414257895,0.0728430723,-0.0362193611
90564.310065,-0.291434046,0.0683225434,-0.233920268,0.102215375,0.033113235,-0.0340020125
90564.320091,-0.188739066,-0.0144762974,0.485633777,0.116890724,-0.0219524155,-0.024660441
90564.330117,-0.195064105,-0.0719320227,0.0161703451,0.0873232435,-0.0722656499,-0.0225671966
90564.340144,-0.109609872,-0.0868195395,-0.388380177,0.0382707443,-0.0971433024,-0.0256399539
90564.350170,0.058830504,-0.0573404566,-0.169252273,-0.0286465056,-0.0840999435,-0.0295180482
90564.360196,0.16409506,-0.0254160265,0.146101378,-0.0721641529,-0.0358463923,-0.0315236737
90564.370223,0.164470634,-0.00970334741,0.343923459,-0.0502071913,0.0234414314,-0.028736676
90564.380249,0.345508863,-0.0795637232,0.303405571,-0.0132145511,0.0588015554,-0.0175881524
90564.390275,0.294994737,-0.0168945376,-0.215644022,0.00104720895,0.0663225849,-0.0180914895
90564.400301,0.216213406,-0.0852222969,-0.45317326,0.0262766637,0.0433208657,-0.0147404344
90564.410328,0.276052757,-0.110460893,0.429948715,0.024259853,0.0046696093,-0.000959640262
90564.420354,0.247957384,-0.0627998546,0.147137151,-0.0109340867,-0.0297932911,-0.00374317624
90564.430380,0.2013045,-0.0194473273,-0.28540028,-0.041935147,-0.0492602016,-0.00550246042
90564.440407,0.261816452,0.0273410561,0.170706242,-0.0452230845,-0.039880282,-0.00735362329
90564.450433,0.240754375,0.0582963856,0.539018161,-0.0192913536,-0.00902276737,-0.00961890899
90564.460459,0.249306241,0.0340092453,0.0971201971,0.0186493721,0.0248968502,-0.0126525153
90564.470485,0.271373221,0.0396169291,-0.425503163,0.0508824091,0.049797674,-0.0222657275
90564.480512,-0.0162642653,-0.0455014042,-0.213121226,0.068025979,0.059664951,-0.0223906291
90564.490538,-0.0981855744,-0.0834418798,0.0999919531,0.0392987233,0.0487148327,-0.0213791606
90564.500564,0.0157886684,-0.133058947,0.134692095,-0.00547620394,0.0202115526,-0.0127103058
90564.510591,0.0640664501,-0.131531409,-0.231669274,-0.045546924,-0.00396968536,-0.0132522591
90564.520617,-0.0882098499,-0.0641990173,0.0135680536,-0.0701718379,-0.0097580661,-0.0144469523
90564.530643,-0.0856527127,-0.0440303087,0.164557072,-0.0614220288,-0.00125539158,-0.0154347204
90564.540670,-0.022564498,0.034494435,-0.112356666,-0.0506953497,0.0128902544,-0.0186805808
90564.550696,-0.0865123618,0.116994147,0.015166721,-0.0563204784,0.0254060452,-0.0207224254
90564.560722,-0.0804701407,0.162408575,0.248337179,-0.0648923863,0.0325254736,-0.0207743578
90564.570749,-0.0855106008,0.187097355,0.112595414,-0.030154654,0.0282500361,-0.0232673426
90564.580775,-0.152709758,0.133558292,-0.478374921,0.0280492648,0.018150532,-0.0243323398
90564.590801,-0.193855386,0.0945813856,-0.498099028,0.08633628,0.00015688285,-0.0203897961
90564.600827,-0.244927767,0.0591873431,0.134946362,0.0976848032,-0.0225327152,-0.0173463364
90564.610854,-0.141490427,0.00959942855,0.284577536,0.0821002524,-0.0465051594,-0.0125097697
90564.620880,-0.0192144569,-0.0100955616,-0.154176869,0.0575403113,-0.0576792533,-0.0180259746
90564.630906,-0.0300915142,-0.0720920721,-0.205605443,0.046671151,-0.0482034597,-0.0218350951
90564.640933,-0.139632688,-0.147053717,-0.0110485012,0.0451920319,-0.0224948998,-0.0225948942
90564.650959,-0.162129767,-0.166608531,0.296172697,0.020880834,0.00169112992,-0.0203999177
90564.660985,0.0477044038,-0.17988938,0.410598702,-0.0109607877,0.0162397132,-0.0160430175
90564.671012,0.0181464287,-0.21369619,0.115688704,-0.0192354966,0.0219732312,-0.0160725777
90564.681038,-0.00231839502,-0.232787223,-0.0186467013,-0.024064339,0.0195976918,-0.00820506726
90564.691064,0.0430841418,-0.153757562,-0.212588726,-0.0601741385,0.0152010799,-0.0111665017
90564.701091,-0.00018162045,-0.0398617543,-0.0437530855,-0.115760704,0.0165174802,-0.0139303299
90564.711117,-0.0846418186,0.0750572585,0.260073794,-0.138961625,0.0218105123,-0.0158872221
90564.721143,0.102980995,0.13170269,0.0640964639,-0.115925555,0.0215420661,-0.0160888237
90564.731170,0.249388458,0.182920106,-0.320323125,-0.0522762697,0.0197830492,-0.0198324275
90564.741196,0.089428928,0.227995986,-0.207209956,0.0335699309,0.0182940749,-0.0188816813
90564.751222,-0.0930330322,0.126473923,-0.0505855619,0.117148439,0.00574499397,-0.00958511781
90564.761249,-0.043669775,0.0621305204,-0.233725622,0.16582756,-0.0247079867,-0.00812304195
90564.771275,0.137962018,-0.0548842591,-0.184551549,0.178610208,-0.0598534557,-0.00702528645
90564.781301,0.0812921823,-0.174940854,-0.0261958015,0.140787187,-0.073266993,-0.00494029735
90564.791328,-0.0265893148,-0.212802127,0.398613081,0.0626907971,-0.0637001197,-0.0044223125
90564.801354,-0.0923155864,-0.24025818,0.373984251,-0.0408073638,-0.031460433,-0.00867591415
90564.811380,0.11495235,-0.170440328,0.000616217589,-0.12802696,0.00779909017,-0.0167511505
90564.821407,0.150820604,-0.107871132,0.162103834,-0.167584759,0.0512448338,-0.0179261369
90564.831433,0.0111122192,-0.043130766,0.184324433,-0.136927513,0.0785544862,-0.0179559653
90564.841459,0.180501311,-0.035991781,0.140709748,-0.0594188657,0.0738108655,-0.0118298958
90564.851486,0.212308362,-0.00834718356,-0.206943414,0.010929331,0.0413922046,-0.00843356539
90564.861512,0.230100258,0.00631788613,-0.433091426,0.0564392943,-0.00582164731,-0.00475254458
90564.871538,0.383668717,-0.00532275771,-0.133127651,0.0699676152,-0.0475411291,0.00522711884
90564.881565,0.30708696,0.00441731321,-0.17635363,0.0589807469,-0.0650165255,0.0091669989
90564.891591,0.242758829,-0.0173700826,-0.192911966,0.0588619698,-0.0595959301,0.0127705225
90564.901617,0.329089351,-0.079468373,0.095717929,0.0721338268,-0.040587085,0.00885354459
90564.911643,0.411806578,-0.0963789201,0.263648145,0.0687116709,-0.0147943689,0.00542579043
90564.921670,0.382969957,-0.155282323,0.208328994,0.0425122928,0.00754875299,0.00622953252
90564.931696,0.351065036,-0.200048955,0.249483426,0.00686321668,0.0178408057,0.0122935503
90564.941723,0.488554558,-0.249480072,0.174501543,-0.0208400499,0.0204501704,0.0192971314
90564.951749,0.361711846,-0.217324207,-0.158604623,-0.0608830724,0.0194781174,0.0198641169
90564.961775,0.298156745,-0.0955132432,-0.0390020916,-0.107318749,0.0225183808,0.0205048743
90564.971802,0.282857377,0.00782916748,0.0741601772,-0.131737274,0.0241285277,0.0136666755
90564.981828,0.268667341,0.127119856,0.150821392,-0.121332308,0.0260856853,0.00651209393
90564.991854,0.408508815,0.134206892,-0.293430442,-0.0579131145,0.0232904323,0.0014425005
90565.001881,0.277442239,0.185367718,-0.287691606,0.00980707425,0.0154173284,0.000952478605
90565.011907,0.346098755,0.154851145,-0.14137584,0.0637251686,-0.00239602308,0.00542392592
90565.021933,0.316367597,0.120761829,-0.0551857491,0.0927831855,-0.0248043935,0.00970202788
90565.031960,0.304317477,0.0287541743,-0.140093399,0.118833157,-0.0442145753,0.0128072734
90565.041986,0.280467888,-0.0559435955,-0.0124279729,0.130093011,-0.0538461643,0.0139630857
90565.052012,0.241094567,-0.215698287,0.24866042,0.129158499,-0.0498676698,0.0208785172
90565.062039,0.213102216,-0.271756128,0.168185784,0.0929501604,-0.0350852597,0.0196286935
90565.072065,0.22787513,-0.37112726,0.236441574,0.0455584142,-0.015106226,0.0277489397
90565.082091,0.111440232,-0.385582304,0.225163809,-0.0217633687,0.012069735,0.0316158506
90565.092118,0.0156458989,-0.335940358,0.133362308,-0.0961372007,0.036501841,0.0331402431
90565.102144,0.0538917506,-0.25188516,0.155984474,-0.151364503,0.0562441212,0.0316198441
90565.112170,0.0382188191,-0.151040119,0.189931167,-0.163622243,0.0617643197,0.0316486071
90565.122197,0.00186869968,-0.0186284487,0.163102197,-0.156833572,0.0619358283,0.0327674012
90565.132223,-0.0487967809,0.103461004,-0.198994501,-0.134783399,0.0523998489,0.0290221955
90565.142249,-0.128736689,0.214283285,-0.377913144,-0.0924322132,0.039041431,0.0250932361
90565.152276,-0.215604405,0.257040879,-0.094503614,-0.0184645105,0.021419029,0.0247954923
90565.162302,-0.210938623,0.277026011,-0.079014953,0.0383798655,3.43776101e-05,0.0225043754
90565.172328,-0.193963596,0.306098047,-0.313691139,0.0675028589,-0.0212259038,0.018418287
90565.182355,-0.181403134,0.262954195,-0.288626256,0.0702456485,-0.0312087635,0.0143066338
90565.192381,-0.210831089,0.284205438,0.0687229546,0.032325967,-0.0342365119,0.00979390751
90565.202408,-0.179821527,0.3495917,0.27620426,-0.035522056,-0.0205060511,-0.00188565244
90565.212434,-0.20817652,0.36136251,0.261367925,-0.0810125817,0.00371193681,-0.00893717062
90565.222460,-0.215390324,0.336497716,-0.0237413941,-0.0607669588,0.0278210019,-0.0176331912
90565.232487,-0.433530039,0.309638533,0.00905320654,0.00626107612,0.0441799996,-0.0187674303
90565.242513,-0.571934155,0.218769893,-0.163929617,0.0898955192,0.0366160919,-0.0194918093
90565.252539,-0.580124548,0.0940522472,-0.447793905,0.171348038,0.00588747282,-0.0174238634
90565.262566,-0.63024204,-0.0339508863,-0.22397872,0.208855199,-0.0385159428,-0.0115763618
90565.272592,-0.513231425,-0.198029505,-0.288218844,0.204857516,-0.0815180044,-0.00729719539
90565.282618,-0.266337471,-0.258746242,-0.0658398296,0.139528322,-0.105118933,-0.0068324738
90565.292645,-0.199017043,-0.333326997,0.43209391,0.0419849854,-0.0853353764,0.000589223686
90565.302671,-0.340044128,-0.269779384,0.335054508,-0.0767922673,-0.0304724003,-0.000868324083
90565.312697,-0.307249254,-0.157817285,0.46541458,-0.187185881,0.037265369,-0.00245397062
90565.322724,-0.255754209,-0.0263183456,0.379765172,-0.23460747,0.095828553,-0.00742742409
90565.332750,-0.294300907,0.0898688971,-0.0830762111,-0.21684551,0.123961118,-0.0166092058
90565.342777,-0.372796753,0.269529408,-0.0144702924,-0.185344574,0.119107244,-0.0265329433
90565.352803,-0.387035049,0.42787858,0.0341344563,-0.157446367,0.0802011241,-0.0266141695
90565.362829,-0.277841245,0.521698691,-0.34379577,-0.0992309947,0.0274438982,-0.0304914665
90565.372856,-0.328198756,0.552433911,-0.564484348,0.00207405425,-0.0229146133,-0.0300235477
90565.382882,-0.182475293,0.561696026,-0.439171622,0.106913651,-0.062396242,-0.0364667986
90565.392908,-0.0947736653,0.54653488,0.0444004143,0.173569369,-0.0788844029,-0.0397715148
90565.402935,-0.198348076,0.467847237,0.0788848677,0.183245974,-0.0737242649,-0.0445108776
90565.412961,-0.258632595,0.404931237,-0.0861063726,0.14998548,-0.0548855948,-0.051634035
90565.422988,-0.312397887,0.206716978,0.0637814066,0.129949453,-0.0248003981,-0.0582506609
90565.433014,-0.282646015,-0.00209188603,0.167660883,0.140391442,-0.00696494216,-0.0573188168
90565.443040,-0.287608679,-0.163201572,-0.0288647284,0.138357597,0.00138619815,-0.056777927
90565.453067,-0.286903471,-0.213618119,-0.141596205,0.068617123,-0.00383120095,-0.0587270957
90565.463093,-0.236232018,-0.239012271,0.076798709,-0.0303768303,-0.0114126873,-0.0533911873
90565.473119,-0.22524613,-0.207006739,0.258807135,-0.0970328275,-0.00730209863,-0.0468342182
90565.483146,-0.237213193,-0.173865699,0.292857873,-0.122692113,0.00390474946,-0.0419132289
90565.493172,-0.0695035419,-0.0889739045,0.024699104,-0.0711721975,0.0165515685,-0.0449763973
90565.503199,-0.120267734,-0.0901689595,-0.167142149,-0.0106811563,0.0263983396,-0.0431081903
90565.513225,-0.249783409,-0.106282474,-0.336902504,0.0904747572,0.0226052006,-0.0458270115
90565.523251,0.0352587454,-0.313871515,0.0628204526,0.199971947,-0.00410310942,-0.0217344564
90565.533278,-0.0882629135,-0.464148841,-0.198277877,0.239918309,-0.039256836,-0.0133644081
90565.543304,-0.160706365,-0.48610078,-0.318421675,0.153714183,-0.0685984741,-0.00783861604
90565.553330,-0.215123142,-0.457916851,0.521557323,0.00593377351,-0.0696136753,-0.00644285314
90565.563357,-0.23222291,-0.434353934,0.575305865,-0.138170404,-0.0363510611,-0.00961307984
90565.573383,-0.170933689,-0.25180899,0.593970233,-0.253165675,0.0223162466,-0.0194713053
90565.583410,-0.217119832,-0.0445862621,0.490601044,-0.309888882,0.0890441512,-0.0277436142
90565.593436,-0.16374723,0.155706666,-0.00417452382,-0.31259678,0.135227879,-0.034552521
90565.603462,0.000674685852,0.325379708,-0.0789401342,-0.236300168,0.14035367,-0.0348689024
90565.613489,-0.00769099143,0.341561831,-0.580255333,-0.0662054021,0.105537375,-0.0278645222
90565.623515,-0.211235158,0.356933697,-1.25839892,0.0968197387,0.042195679,-0.0243363668
90565.633541,-0.140000206,0.29888523,-0.494071672,0.202148828,-0.0403143751,-0.0117225702
90565.643568,-0.0692207247,0.168528958,-0.0771778007,0.253841328,-0.115658398,-0.0038492008
90565.653594,-0.00100459074,0.0839179162,-0.101271793,0.252263414,-0.161467443,-0.00640423771
90565.663621,0.0999092776,-0.0390576349,0.110421577,0.199320751,-0.156666229,-0.011468768
90565.673647,0.164980647,-0.152130581,0.141570164,0.109732012,-0.103444817,-0.0166901638
90565.683673,0.103668922,-0.201009946,0.449198774,0.0241412099,-0.0196612391,-0.0229310122
90565.693700,0.0117910136,-0.280855672,0.793205688,-0.0378798183,0.0593225223,-0.0164408897
90565.703726,0.0943543469,-0.309325249,0.390173754,-0.0769276146,0.101366652,-0.0212207314
90565.713753,-0.0862818044,-0.320892426,0.14628784,-0.105118779,0.107119342,-0.0155881456
90565.723779,0.0335142947,-0.214657034,0.0350059784,-0.141000864,0.0738551294,-0.0176382464
90565.733805,0.118958736,-0.0815843057,-0.130228423,-0.160532755,0.0334802729,-0.017785522
90565.743832,0.0285361775,0.0310592729,-0.0763185535,-0.141147074,0.00466194265,-0.0159671147
90565.753858,-0.0559252811,0.130737097,-0.0684754388,-0.0871818561,-0.01071515,-0.0121012702
90565.763885,0.0674242178,0.203347758,-0.498613407,0.000639878781,-0.0170497435,-0.00947086502
90565.773911,0.137388748,0.207600702,-0.458205409,0.0882424291,-0.0181602824,-0.0100793968
90565.783937,0.0410383152,0.177708326,0.00731776105,0.132664504,-0.0198897391,-0.0151740256
90565.793964,0.127366317,0.15095728,0.149533106,0.128547775,-0.0278680368,-0.0228884023
90565.803990,0.145711152,0.0464556526,0.0432097432,0.0694487717,-0.0341102208,-0.0274469358
90565.814017,0.276592289,-0.0244453548,0.115166726,0.0462398518,-0.0361794966,-0.0361807708
90565.824043,0.237342649,-0.158884257,0.188801871,0.0487930242,-0.020984831,-0.0340467793
90565.834069,0.235683283,-0.28856632,0.0617607144,0.0876783755,-0.00616380684,-0.0278328274
90565.844096,0.215692817,-0.37335027,-0.0565780803,0.0800303098,0.00569365155,-0.018113355
90565.854122,0.157987427,-0.351763621,-0.260788986,0.0132624626,0.0088835855,-0.0155569873
90565.864149,0.150150633,-0.325841938,0.285919598,-0.0562076915,0.0117331681,-0.00516453375
90565.874175,-0.00326005978,-0.291334323,0.499527862,-0.115690728,0.0173875925,0.00429767753
90565.884201,0.1463287,-0.115549375,0.254648262,-0.188660008,0.0209311948,-0.00258020208
90565.894228,0.283910083,0.085474498,0.214411528,-0.236918074,0.0336864007,-0.00489688654
90565.904254,0.204178484,0.245659434,0.000420987278,-0.219773186,0.0582058591,-0.0110154989
90565.914281,-0.0439202975,0.365750698,-0.268662496,-0.130962086,0.0760767435,-0.0193581161
90565.924307,0.00152205993,0.356015669,-0.422740712,0.0127620546,0.0612674293,-0.0278064635
90565.934333,0.255469294,0.278593881,-0.351980246,0.163934263,0.0157161926,-0.0253821862
90565.944360,0.341293985,0.090109647,-0.53482863,0.269324588,-0.0451665993,-0.017018265
90565.954386,0.281637005,-0.0202980989,-0.326201661,0.265477377,-0.0972242082,-0.0109952594
90565.964413,0.321807487,-0.168245558,0.0053321402,0.210413354,-0.126468922,-0.00422017731
90565.974439,0.250281351,-0.312539353,0.376385467,0.118071968,-0.106766577,0.00293600291
90565.984465,0.0581545592,-0.380053677,0.562406636,0.0100674683,-0.0528607394,0.004615659
90565.994492,0.211795553,-0.334269685,0.484339645,-0.132979435,0.0158024778,-0.00201774285
90566.004518,0.137585732,-0.161077931,0.389308077,-0.278390181,0.0814539318,-0.0095835178
90566.014545,0.103966992,0.0363335601,0.347719929,-0.347860051,0.12888295,-0.0177085538
90566.024571,0.0644707201,0.206499025,0.331614597,-0.323860985,0.144478162,-0.0194867466
90566.034597,0.0633478535,0.385920174,-0.288673018,-0.213831407,0.123285529,-0.0245986831
90566.044624,0.129230065,0.456450741,-0.797370144,-0.0509498131,0.0701187153,-0.024260464
90566.054650,0.0275353481,0.45290631,-0.618028306,0.107826787,0.00521108629,-0.0173362446
90566.064677,0.0072511051,0.441434885,-0.432275433,0.213370266,-0.0614542278,-0.0188435939
90566.074703,0.00103285164,0.361743326,-0.232021741,0.25938915,-0.112983728,-0.0170086761
90566.084729,0.0739851655,0.220501283,-0.297688684,0.237178656,-0.131916414,-0.0185514455
90566.094756,-0.0153901494,0.0849923405,0.158704254,0.175428468,-0.113423685,-0.0173213323
90566.104782,-0.113920849,-0.0617749685,0.43897724,0.118141475,-0.0639642502,-0.0243805711
90566.114809,-0.159156669,-0.239328717,0.447150025,0.0703491818,-0.0115231524,-0.0270858099
90566.124835,-0.13843451,-0.32811635,0.217067011,0.0182995673,0.0287845892,-0.0323378322
90566.134862,-0.0675214282,-0.375332384,0.181552046,-0.0343378123,0.0453358677,-0.0289271203
90566.144888,-0.134249022,-0.396807535,0.3141409,-0.0843085695,0.045509239,-0.0162683193
90566.154914,-0.075602352,-0.296938208,-0.00745135353,-0.142726329,0.0307129857,-0.0145010444
90566.164941,0.129686448,-0.103147355,-0.260812367,-0.191348997,0.0160602716,-0.0185197544
90566.174967,0.174007072,0.0552574197,-0.0118668319,-0.20167434,0.0174754758,-0.0175218684
90566.184994,0.0351432658,0.176487588,0.135305259,-0.142947105,0.0319124733,-0.0166198564
90566.195020,0.117475055,0.225875012,-0.122258467,-0.0250558957,0.0358475571,-0.0145665574
90566.205047,0.26903095,0.203530676,-0.47010569,0.0982916009,0.0205381115,-0.0139628201
90566.215074,0.153558943,0.198923621,-0.216457677,0.160205039,-0.00223644329,-0.0159391527
90566.225100,-0.0861139736,0.151158538,0.0509417987,0.130248206,-0.0273737541,-0.0123486779
90566.235127,-0.136045057,0.128688749,0.133973133,0.0561018053,-0.0417494985,-0.0153210311
90566.245153,-0.107741631,0.0330523465,0.177485527,0.0113806732,-0.0396168406,-0.0161961456
90566.255180,-0.187141769,-0.0500575696,0.018290406,0.0206170499,-0.0196836094,-0.0147625672
90566.265206,-0.103675367,-0.108982454,-0.0479832704,0.0478899468,0.0041575402,-0.0106093659
90566.275233,-0.201666115,-0.12553078,-0.106307449,0.0479767684,0.0230151185,-0.00888630178
90566.285259,-0.124274248,-0.161257014,-0.130033193,0.0241787609,0.0164184676,-0.00827989903
90566.295285,0.0303199556,-0.113625896,0.0759944069,-0.0242031526,0.00133725237,-0.00992653136
90566.305312,0.0536330632,-0.0737276374,0.154806662,-0.0780139241,-0.00971992658,-0.0151644367
90566.315338,-0.0229788875,-0.0184356295,0.259548309,-0.105677505,-0.00648684818,-0.0188656998
90566.325365,-0.151066265,0.0165522799,0.214939352,-0.0821103949,0.0117462168,-0.0159950768
90566.335391,-0.2216431,0.0283984562,-0.218844279,-0.0164419014,0.0305377481,-0.0155625808
90566.345418,-0.307350467,0.0299772864,-0.12292073,0.0376772571,0.0330994402,-0.00859521877
90566.355444,-0.225021217,0.0248366721,-0.114249348,0.0659965154,0.0159034126,-0.00847404439
90566.365470,-0.157153823,0.00709478879,-0.0582918985,0.0654516321,-0.0131982814,-0.00388861344
90566.375497,-0.281823447,-0.061843248,-0.21454629,0.0397934046,-0.0343933168,-0.00593791612
90566.385523,-0.21744353,-0.0247311129,0.000205883223,-0.00095402317,-0.0481080624,-0.00835713175
90566.395550,0.026496671,-0.0343671389,0.288462853,-0.0316775825,-0.0425345997,-0.00642367628
90566.405576,-0.00593369944,0.0479088471,0.119046782,-0.051245426,-0.0115721549,-0.0126405599
90566.415603,-0.184973649,0.0625997088,0.298210925,-0.0421675082,0.0240636052,-0.0141846611
90566.425629,-0.144918063,0.0116772577,0.233576248,-0.00508458559,0.0483404447,-0.0109403971
90566.435656,-0.0842782643,-0.00487954398,-0.107784536,0.0270379305,0.051615869,-0.00395732269
90566.445682,-0.289950767,-0.0279831005,-0.234489008,0.0295178656,0.0366454397,-0.00674618491
90566.455708,-0.205571927,0.02082466,0.157283282,0.00115679837,0.00513172411,-0.0100770014
90566.465735,-0.0778195531,0.0284540954,0.247317188,-0.0344781626,-0.0185104876,-0.0131207275
90566.475761,-0.0886027216,-0.0301920087,-0.290292728,-0.0118692556,-0.0282331563,-0.0129952933
90566.485788,-0.0366776329,-0.120834841,-0.501903681,0.0547438588,-0.0202431406,-0.0101236067
90566.495814,-0.15495898,-0.136989419,-0.435466923,0.0963048812,-0.0101857136,-0.0105126946
90566.505841,0.0552788394,-0.13690817,-0.0511554707,0.0847856503,-0.00877157477,-0.00598026056
90566.515867,0.280919212,-0.144054169,0.562847365,0.0311493173,-0.0139234594,0.00394507462
90566.525894,0.168449091,-0.106476499,0.284184153,-0.0641433794,-0.0093489482,-0.00276529219
90566.535920,0.0737773315,-0.00316371651,0.0371763082,-0.14473809,0.00513571902,-0.0087150595
90566.545947,0.203814711,0.0766109542,0.0386376129,-0.186300171,0.0260492575,-0.0123918204
90566.555973,0.207744378,0.228326314,-0.198895716,-0.176922378,0.046553464,-0.0266551775
90566.565999,0.233117432,0.318180334,0.178079986,-0.118220997,0.0538747621,-0.0295204733
90566.576026,0.29314025,0.295379085,0.24795724,-0.0183926683,0.0437909675,-0.0216835876
90566.586052,0.378232408,0.249046775,-0.575469268,0.113023142,0.00968732713,-0.0175002952
90566.596079,0.364613632,0.113874188,-0.74809261,0.234761837,-0.0350702914,-0.00666921948
90566.606105,0.359358525,-0.0327299297,-0.200206799,0.286095309,-0.0765580784,0.00173598259
90566.616132,0.235739981,-0.163830846,0.155516272,0.251985806,-0.101250107,0.00764260778
90566.626158,0.227021746,-0.285383306,0.0755039931,0.147973942,-0.101701515,0.00461832212
90566.636185,0.340558291,-0.345225378,0.291701689,0.00902271066,-0.0696554284,0.00106087151
90566.646211,0.309274643,-0.312662833,0.584156695,-0.104899329,-0.0155682282,-0.00438795601
90566.656238,0.300908144,-0.266392263,0.510768803,-0.183728886,0.0500147765,-0.00538238034
90566.666264,0.10296156,-0.157679776,0.297814619,-0.204323408,0.0989972849,-0.0108060184
90566.676291,0.0219389529,-0.042942002,0.178128501,-0.194940833,0.115845775,-0.00742673304
90566.686317,0.127952683,0.12339879,-0.0833521054,-0.185872239,0.0938342114,-0.00996951934
90566.696342,0.26201119,0.286048399,-0.27857774,-0.146560249,0.0492563595,-0.00867628854
90566.706370,0.273671579,0.304464747,-0.534881821,-0.0454986107,0.00489315884,-0.00468953595
90566.716395,0.144263657,0.273575323,-0.494992878,0.0985174131,-0.0284690584,0.0054022466
90566.726423,0.120753091,0.216812694,-0.284110825,0.22717126,-0.0564719315,0.010442013
90566.736448,0.0947986566,0.132564714,-0.253453236,0.27779423,-0.0801330532,0.0136969286
90566.746476,0.1711477,0.00797478649,-0.172714981,0.239942985,-0.0926810677,0.00961030751
90566.756502,0.187585716,-0.104404223,0.138310286,0.136752146,-0.0852167631,0.0043915772
90566.766529,0.178809704,-0.171824439,0.438435388,0.0207938578,-0.0530348557,-0.00138561789
90566.776555,0.24104207,-0.2187161,0.519010561,-0.0752855364,-0.00642447611,-0.00424478751
90566.786582,0.230702352,-0.201440337,0.340957595,-0.131024164,0.0430229654,-0.0103133338
90566.796608,0.157575814,-0.180826441,0.123113301,-0.131382358,0.0791351621,-0.0100787076
90566.806635,0.244295281,-0.113402755,0.162967172,-0.110282672,0.0833738496,-0.00787441049
90566.816661,0.19404187,-0.0389013848,-0.0772631409,-0.087072951,0.0658020501,-0.00548928313
90566.826688,0.162473578,0.0624588755,-0.236280567,-0.0669421155,0.0324400974,-0.00438753319
90566.836714,0.184621898,0.102857156,-0.206911265,-0.035649975,-0.000570582177,-0.00171718177
90566.846741,0.104607811,0.129267682,-0.272212297,0.013262972,-0.021989322,-0.00134353981
90566.856767,0.103587619,0.116253046,-0.0466546522,0.063130128,-0.0322824406,0.00355268141
90566.866794,0.0647878415,0.111382116,-0.0365903543,0.0908451106,-0.0316110576,-0.000345653747
90566.876820,-0.00529215013,0.0918749762,-0.0252395237,0.0808492031,-0.0231635093,-0.00413133752
90566.886847,-0.0331092363,0.0447006621,0.120855293,0.0538796399,-0.0113321493,-0.00609195594
90566.896873,-0.0720839138,-0.0481502016,0.168846294,0.0387603406,0.00101825972,-0.00520246093
90566.906900,-0.113561423,-0.122496016,0.129022817,0.0233289216,0.00672621308,-0.00502988779
90566.916926,-0.107332557,-0.121587194,0.119979679,-0.0108253194,0.00908257747,-0.00240587526
90566.926953,-0.199140414,-0.108231124,-0.0814547474,-0.051539195,0.0111350765,-0.00385596592
90566.936979,-0.236345707,-0.0877760365,0.0401597079,-0.0712130342,0.0121356261,-0.000879883659
90566.947005,-0.221356118,-0.0845853873,0.0748464059,-0.0584990989,0.0138959757,0.000849839407
90566.957032,-0.146153943,-0.0552448726,-0.184777759,-0.0198121585,0.00996035552,0.00257636664
90566.967058,-0.127981687,-0.0376649384,-0.202303479,0.0211488575,0.00170775205,0.00417879048
90566.977085,-0.0899024608,-0.0262513813,-0.0734438749,0.0377771024,-0.0075802884,0.00890164088
90566.987111,-0.0856488768,-0.00972497472,-0.024779505,0.0251800835,-0.0139604236,0.0100627785
90566.997138,-0.0862674471,0.00788184751,0.0718600836,0.00561836809,-0.0151724282,0.0121866494
90567.007164,-0.210258715,-0.0345862251,-0.0861490427,0.00282950587,-0.00592486718,0.0141081206
90567.017191,-0.103953728,-0.0358380152,0.0223130856,0.016330133,-0.00451978361,0.01618006
90567.027217,0.0387715028,-0.0319823262,0.160190693,0.0192577474,0.00013036181,0.0157805859
90567.037244,-0.120721999,-0.0060842436,-0.00613208763,0.00400795489,0.0101411848,0.00966383714
90567.047270,-0.199358861,0.000559213005,0.0203485075,-0.0151497602,0.013429656,0.00923453561
90567.057297,-0.129031087,-0.0204362288,0.190247394,-0.0231973019,0.0112692996,0.00860842607
90567.067323,-0.0702678408,0.00141776606,-0.00238997849,-0.0276985757,0.00585456034,0.00748963246
90567.077350,0.0214926887,0.00516977554,-0.102558326,-0.0153111482,-0.000930907854,0.00500996328
90567.087376,0.0412960346,-0.0103115424,-0.0200787799,0.00739522911,-0.000731703543,0.0105655837
90567.097403,-0.17517171,-0.0080422458,-0.163089659,0.0378649857,0.00315864226,0.00690826458
90567.107429,-0.107612159,-0.0524317149,-0.00711992962,0.0689600583,0.000658466588,0.0120478991
90567.117456,-0.0227386855,-0.13910473,0.0523972582,0.0772808369,-0.00982426731,0.0179124448
90567.127483,-0.0387702212,-0.155370477,-0.144192651,0.0511991668,-0.0195304255,0.0163891177
90567.137509,0.0366071278,-0.193662652,0.0719372405,0.0160180114,-0.0258258718,0.0214925344
90567.147536,0.129681279,-0.200892055,0.218204491,-0.0155998349,-0.0227563108,0.0245551701
90567.157562,0.171799424,-0.175088994,0.100750663,-0.0380777132,-0.00476399595,0.0251005824
90567.167589,0.0950194963,-0.106416257,0.196608161,-0.0741196025,0.0178273332,0.0226664554
90567.177615,0.0828523443,-0.000703792668,0.0446529277,-0.120087897,0.0377190162,0.0189502808
90567.187642,0.0507696548,0.0999612155,0.0871967689,-0.147735772,0.0519677264,0.0144729736
90567.197668,0.122144764,0.158717977,0.141086765,-0.128042487,0.052543768,0.0114737219
90567.207694,-0.028488262,0.226766773,-0.181693822,-0.0635266129,0.0458403242,0.00659827247
90567.217720,-0.00772465624,0.177970849,-0.357838909,0.0266187236,0.0211368439,0.0101509291
90567.227747,0.11488429,0.138609036,-0.35575918,0.113081711,-0.0133308523,0.0191878352
90567.237773,0.0189473881,0.0823606768,-0.355241878,0.16285007,-0.0453228752,0.0208262104
90567.247800,-0.0397631778,0.0025240468,0.140807363,0.162737417,-0.0655647616,0.0240648809
90567.257826,-0.0207110156,-0.110555074,0.175918424,0.125310945,-0.0687190096,0.0242973763
90567.267853,0.070663145,-0.159570193,0.0659476447,0.0626622092,-0.0519331085,0.0230925615
90567.277879,-0.0499384253,-0.165782419,0.229945782,-0.0265909687,-0.0112248237,0.0160607501
90567.287906,-0.140802097,-0.08996898,0.501242849,-0.110917297,0.0325327751,0.0109509426
90567.297932,-0.0967585738,-0.0454971298,0.323697248,-0.16436508,0.066875567,0.00407093262
90567.307959,-0.0828822799,0.0216721071,-0.162527933,-0.154277829,0.0764621471,-0.00189987466
90567.317985,-0.0354250573,0.0398163972,-0.239231818,-0.0957844231,0.0624195685,-0.00177603763
90567.328012,-0.0013537147,0.0779229867,0.0252859639,-0.0195793968,0.0330600788,0.00319927988
90567.338038,-0.123607655,0.0937320753,-0.231735325,0.0424333725,-0.00294532296,0.00754928739
90567.348065,-0.0933680546,0.0881599377,-0.476913616,0.0867414501,-0.0392569925,0.00716472707
90567.358091,-0.130131175,0.021109103,-0.294375614,0.117805096,-0.0574088345,0.0102579883
90567.368118,-0.19706885,-0.033906901,-0.0590956161,0.1266135,-0.0582197669,0.0107133893
90567.378145,-0.188687756,-0.128748902,0.210615643,0.0969349619,-0.0470888155,0.0150434227
90567.388171,-0.230752198,-0.151339979,0.166397731,0.0350787889,-0.0262000455,0.0109163216
90567.398198,-0.143535577,-0.160811754,0.30170695,-0.036075284,0.000389221057,0.0135728243
90567.408224,-0.281567755,-0.162927358,0.365124068,-0.0935130093,0.0321921569,0.0118913046
90567.418251,-0.309204388,-0.152762267,0.134154919,-0.112151941,0.0502300126,0.012306492
90567.428277,-0.24389088,-0.0820981735,0.0350083165,-0.105937985,0.0547171732,0.0135754879
90567.438304,-0.317904156,-0.00149563717,-0.159960129,-0.100345885,0.0468059865,0.0128053018
90567.448330,-0.367607002,0.145617782,-0.00671660952,-0.0947724182,0.0343168278,0.0111829044
90567.458357,-0.323450575,0.205328812,0.0774001821,-0.0869786788,0.015706125,0.0120103481
90567.468383,-0.28703002,0.257876709,-0.294034253,-0.0482768204,0.00132239266,0.009817768
90567.478410,-0.248259323,0.288219824,-0.331212183,0.0239686117,-0.0124346984,0.00701212754
90567.488436,-0.109423227,0.185979384,-0.19678793,0.114940333,-0.0196670449,0.0106782355
90567.498463,-0.280715339,0.0996760053,-0.274453354,0.197746801,-0.0284067399,0.00853838503
90567.508490,-0.190549075,-0.0866838574,-0.152022906,0.232460039,-0.0473229091,0.0160972356
90567.518516,-0.0918658699,-0.241743559,-0.0997906145,0.207700896,-0.0635575379,0.0192328404
90567.528543,-0.142393696,-0.355903205,0.0203005767,0.135294067,-0.068105417,0.0190309744
90567.538569,-0.15478808,-0.417325021,0.503558725,0.0115060851,-0.0516284431,0.022680835
90567.548596,0.0248505843,-0.365973239,0.523660433,-0.113559951,-0.0205450884,0.0187087312
90567.558622,0.0724588875,-0.26178265,0.368381608,-0.205771101,0.0322962862,0.0177276219
90567.568649,-0.0691162231,-0.143176985,0.243444731,-0.23970936,0.0837799807,0.0153350393
90567.578675,-0.00839174185,0.0138932898,0.177035445,-0.218994496,0.112484602,0.017726292
90567.588702,0.0407327747,0.182619004,-0.114805813,-0.180854303,0.105616038,0.0172807436
90567.598728,0.0371099445,0.345692136,-0.302793898,-0.140967605,0.0728253399,0.0166418526
90567.608755,0.0955649648,0.448519984,-0.469667298,-0.0684838194,0.0260242776,0.00926675938
90567.618782,0.0284907857,0.401432435,-0.150138992,0.0460185211,-0.0206942267,0.0150103989
90567.628808,0.108181103,0.287380195,-0.301762801,0.188903498,-0.0602653387,0.0173513192
90567.638835,-0.0356335672,0.120158346,-0.615199805,0.318510222,-0.0871350343,0.0236009593
90567.648861,-0.160976542,-0.0669766653,-0.34652198,0.361700046,-0.101538474,0.0264928836
90567.658888,-0.0590831241,-0.249522048,0.284670475,0.296053129,-0.103636781,0.0269647959
90567.668914,0.0234128614,-0.376497628,0.616614611,0.133331421,-0.085411797,0.0258740272
90567.678941,-0.131365576,-0.472655059,0.365040481,-0.0590577398,-0.0358370493,0.0141776904
90567.688967,-0.10980797,-0.437992875,0.561175632,-0.201758695,0.0226233297,0.0111230445
90567.698994,0.0395811569,-0.301053571,0.823831713,-0.282553417,0.0813124751,0.0132389265
90567.709021,-0.135139761,-0.134818724,0.168919359,-0.300383014,0.125469541,0.00592615233
90567.719047,-0.052591972,0.0620608161,-0.200225504,-0.267991496,0.130281617,0.00811207491
90567.729074,0.0301786657,0.237026813,-0.350731122,-0.191280213,0.105067869,0.008210878
90567.739100,-0.17166056,0.38580674,-0.294006196,-0.0933731023,0.0659058218,0.00897147703
90567.749127,-0.149873603,0.425614946,-0.0798373753,0.0085932089,0.0106913022,0.0163870501
90567.759153,-0.0916476605,0.429016681,-0.696391065,0.120498168,-0.0453037905,0.0202270608
90567.769180,0.0634283166,0.362258947,-0.757166728,0.21644974,-0.0906981702,0.0242516297
90567.779207,-0.0181256205,0.187071563,-0.115693117,0.283396291,-0.109735506,0.0266229074
90567.789233,0.0457824045,-0.0114135489,-0.0293247472,0.302975851,-0.113096419,0.0268676515
90567.799260,0.331900536,-0.241520601,0.0658219725,0.257637131,-0.0976215924,0.0333702947
90567.809286,0.0715353978,-0.386688877,0.0845611597,0.160440001,-0.0562773447,0.0241672072
90567.819313,0.00327414603,-0.47677919,0.693020974,0.0318463322,-0.0103732363,0.0270186561
90567.829339,0.172400185,-0.484409539,0.900322247,-0.121873987,0.0289251667,0.0258074488
90567.839366,0.2714906,-0.361641931,0.237875406,-0.275279236,0.0621875164,0.0189045343
90567.849393,0.277123766,-0.12059084,0.0336452115,-0.367753518,0.0947941964,0.00954831775
90567.859419,0.0719607836,0.0952428817,0.411191407,-0.356769306,0.118187134,0.0144799595
90567.869446,0.147907238,0.271635623,0.0483646417,-0.24442893,0.11219236,0.0143151098
90567.879472,0.25541117,0.389750144,-0.506280581,-0.0783898953,0.0795638462,0.0198249231
90567.889499,0.120338464,0.432667093,-0.833265633,0.0908465337,0.0250286956,0.022879568
90567.899526,0.137916681,0.354696403,-0.42238883,0.232111784,-0.0375638443,0.0308184522
90567.909552,-0.0913975948,0.219461784,-0.312911387,0.313414651,-0.0925304244,0.0310416269
90567.919579,-0.0305902758,0.106029101,-0.555613059,0.290893602,-0.133982788,0.022123498
90567.929605,0.246886832,-0.00881388776,-0.0193089646,0.18903889,-0.142301972,0.0200241293
90567.939632,0.241052226,-0.144997442,0.517261087,0.0804876339,-0.107032935,0.0175942603
90567.949659,0.281760759,-0.270543683,0.727348776,-0.00197954122,-0.0384690526,0.0219682354
90567.959685,0.360297669,-0.318275924,0.361485419,-0.0474061456,0.0285677717,0.0216246891
90567.969712,0.465345678,-0.352738275,0.0363100468,-0.0611850742,0.0724113931,0.0209274712
90567.979738,0.425021047,-0.292587538,0.268672111,-0.0793915067,0.0870214899,0.023107269
90567.989765,0.275321538,-0.17045874,0.358600804,-0.140016494,0.0751400639,0.0243467066
90567.999791,0.181502341,0.0239130545,0.176096119,-0.211203856,0.0514294107,0.0185596562
90568.009818,0.115080397,0.185297612,0.0276702287,-0.245374081,0.0355622967,0.0132218815
90568.019845,0.104982654,0.332114642,-0.184260457,-0.193811027,0.0297635303,0.00910117302
90568.029871,0.0902259236,0.395319944,-0.2143382,-0.0658717055,0.0305941694,0.0104500643
90568.039898,0.0634468934,0.414771079,-0.375759181,0.0805763181,0.0239509151,0.0158493566
90568.049924,0.192419091,0.379139501,-0.613686478,0.195865634,-0.00273555675,0.0164714708
90568.059951,0.168815659,0.253934547,-0.384474987,0.264476645,-0.0383169862,0.018824109
90568.069978,0.15338408,0.063517262,-0.161212759,0.268021601,-0.0772643859,0.020587654
90568.080004,0.239341842,-0.109795962,-0.039735082,0.220941159,-0.104502934,0.0198584805
90568.090031,0.322816883,-0.242081267,0.113049003,0.12835184,-0.102285052,0.0177535164
90568.100058,0.20800997,-0.290741764,0.303843378,0.0157840092,-0.0637823964,0.0106351535
90568.110084,0.186408763,-0.32081505,0.618931656,-0.0712984253,-0.0112763147,0.00925909832
90568.120111,0.17838452,-0.312726948,0.489058491,-0.128690076,0.0477390674,0.00962075602
90568.130137,0.0376262783,-0.223077108,0.266329932,-0.154848171,0.0859700789,0.00895176932
90568.140164,0.0886218676,-0.130806163,0.168705424,-0.166657699,0.0920266409,0.009810106
90568.150191,0.0580117167,-0.0111501487,-0.0472976262,-0.153451351,0.0737741341,0.0125579565
90568.160217,0.0411578317,0.0467487903,-0.242753563,-0.102767137,0.040971977,0.01457317
90568.170244,0.0490095681,0.0959414219,-0.170103337,-0.027125641,0.00422248366,0.0178850769
90568.180270,0.0986377598,0.109050239,-0.293281973,0.0553212974,-0.0288204203,0.0227685153
90568.190297,0.207347762,0.100621068,-0.335599604,0.112751837,-0.0503108005,0.0277161348
90568.200324,0.216865477,0.0947655465,-0.221970303,0.123121383,-0.0554749357,0.0278876434
90568.210350,0.246664129,0.0341684545,0.0332132498,0.108931529,-0.0463799748,0.0274114694
90568.220377,0.139618023,-0.0730185758,0.124428475,0.0825531881,-0.0211625013,0.0249839994
90568.230404,0.155518115,-0.0980878794,0.209014053,0.0363209758,0.000754781931,0.0233813088
90568.240430,0.247150944,-0.134594523,0.190542577,-0.0178413291,0.0188933064,0.0198347765
90568.250457,0.187886526,-0.114539321,0.243527733,-0.0741445471,0.0320490574,0.020425466
90568.260483,0.238384577,-0.0788475012,0.201073908,-0.105434028,0.0356102337,0.0225006017
90568.270510,0.196633165,-0.0121916936,-0.0202751793,-0.113813666,0.038537049,0.0224209736
90568.280537,0.165369847,0.080270317,-0.105934524,-0.0968951333,0.0319571768,0.0208952475
90568.290563,0.166766581,0.156214798,-0.0371240227,-0.0626785729,0.0266867795,0.0225418816
90568.300590,0.125395327,0.225994364,-0.120183414,-0.0197904959,0.0135438138,0.0201546225
90568.310617,0.258752133,0.242816137,-0.137868709,0.0220773246,-0.0024663114,0.0225059289
90568.320643,0.258067475,0.223184238,-0.199398405,0.0594044577,-0.0132459884,0.0173372637
90568.330670,0.275394056,0.21120881,-0.0255247704,0.0995864969,-0.0240871838,0.0143611823
90568.340696,0.224460079,0.0718406711,0.00770822168,0.129538017,-0.028209225,0.0163737322
90568.350723,0.198340097,-0.0102523596,-0.295256488,0.135860625,-0.030762932,0.0115036109
90568.360750,0.200597082,-0.104114081,0.185011831,0.108125391,-0.028884337,0.0159308492
90568.370776,0.129529486,-0.17956592,0.233312628,0.056472848,-0.0207071013,0.0158104758
90568.380803,0.068700631,-0.19438534,0.232811109,-0.0132910509,-0.00484664477,0.0199801858
90568.390830,0.0136495922,-0.237508589,0.186732079,-0.0549711224,0.0128551203,0.0220183033
90568.400856,0.017875923,-0.214506593,-0.0259573166,-0.0734822203,0.0307462358,0.0225948776
90568.410883,-0.0665829418,-0.119669085,0.0753321436,-0.0922694925,0.0425195408,0.0199498247
90568.420910,-0.0699248726,0.034091188,0.163873181,-0.130670396,0.0465893832,0.0158277854
90568.430936,-0.00070126041,0.211818576,0.0457939144,-0.175261033,0.0421062161,0.00851048354
90568.440963,-0.00157619835,0.323781479,-0.0756393391,-0.170727533,0.0376486157,0.00369442358
90568.450990,-0.0264852881,0.389941831,-0.239444,-0.0914561648,0.0326115166,-0.000196188581
90568.461016,0.0519532934,0.401053592,-0.350400868,0.0262917772,0.0195138224,0.00133939005
90568.471043,0.0670286061,0.31602206,-0.329722821,0.158414396,-0.00681205718,0.00568194046
90568.481070,-0.00912623013,0.194489986,-0.434421798,0.253130781,-0.0402427192,0.00990651279
90568.491096,0.025353748,0.0339617529,-0.391092359,0.295206326,-0.07709794,0.0109158504
90568.501123,0.0371213975,-0.206529696,0.0603900106,0.279348808,-0.101723122,0.0167218085
90568.511149,-0.0244317349,-0.419504703,0.029012291,0.205932918,-0.101235765,0.0162560205
90568.521176,0.0318555677,-0.508177989,0.355878685,0.0792612534,-0.078795972,0.0154227178
90568.531203,0.126400248,-0.524617667,0.691024832,-0.0678581569,-0.0315733316,0.0145601203
90568.541229,0.084006154,-0.456727057,0.786487778,-0.201824201,0.0287224998,0.0171678878
90568.551256,-0.0387485574,-0.337285123,0.493271724,-0.280815703,0.0922652607,0.0181774917
90568.561283,-0.0772143903,-0.152644449,0.0902427125,-0.300447178,0.128706088,0.0156070097
90568.571309,-0.0856839298,0.0371103166,-0.0174659671,-0.257045371,0.131163393,0.0146879527
90568.581336,-0.142114075,0.217660397,-0.201156647,-0.195959387,0.105807697,0.0160158045
90568.591363,-0.0874813894,0.379061796,-0.532473591,-0.119932545,0.0524070573,0.0129869907
90568.601389,-0.023563318,0.479815578,-0.281288168,-0.0303491309,-0.00324661769,0.0134461197
90568.611416,-0.000435741341,0.476822096,-0.402975689,0.087893891,-0.0485022466,0.012660754
90568.621443,-0.0212526117,0.39552175,-0.485721192,0.216836694,-0.0787656109,0.0188906874
90568.631469,0.00270604555,0.212220252,-0.36528221,0.309361833,-0.0920862059,0.0217149678
90568.641496,0.0334383251,0.0087099689,-0.263124735,0.328224468,-0.0953523095,0.0225653174
90568.651523,0.100871949,-0.153878229,0.165124643,0.258186,-0.0870738725,0.0220444027
90568.661549,0.088611401,-0.331966522,0.479762839,0.120546642,-0.0615253697,0.0231418918
90568.671576,0.107478854,-0.409979773,0.401661362,-0.0305362839,-0.0220628667,0.0156843058
90568.681603,0.116103128,-0.349100832,0.666899276,-0.169816149,0.026210123,0.0102871434
90568.691629,0.115276121,-0.217084115,0.569477597,-0.280175668,0.0726205011,0.00364601856
90568.701656,0.152966604,0.0067997879,0.1890047,-0.325354886,0.10623013,-0.00410085068
90568.711683,0.133663572,0.148940058,0.0159306911,-0.286387515,0.11848626,-0.00148749061
90568.721710,0.127923932,0.316705549,-0.38351111,-0.175193069,0.10170195,0.000935719456
90568.731736,0.167554388,0.414130991,-0.55389398,-0.0363992315,0.057700408,0.000296827513
90568.741763,0.21292169,0.412872698,-0.419463882,0.113927158,-0.00342606492,0.00532993545
90568.751790,0.214353293,0.338198492,-0.576280584,0.219684738,-0.0684005345,0.00955264374
90568.761816,0.2712489,0.252034084,-0.472347331,0.26530202,-0.114736872,0.00901069037
90568.771843,0.325468128,0.116248041,0.110995578,0.240980181,-0.131487365,0.0105574542
90568.781870,0.302046391,-0.023040493,0.202039538,0.166117119,-0.109065409,0.00789162993
90568.791896,0.309436373,-0.0970308447,0.387076957,0.0629428055,-0.0578903693,0.000637712064
90568.801923,0.322484473,-0.161171272,0.599447788,-0.0474582735,0.00463905214,-0.00147151191
90568.811950,0.240412284,-0.138366991,0.470513365,-0.123094705,0.0632720043,-0.00881437853
90568.821976,0.164190995,-0.141372383,0.336885231,-0.137223584,0.0947806661,-0.0063898376
90568.832003,0.0668035652,-0.129216447,-0.0597502806,-0.112786946,0.0977005561,-0.00322467078
90568.842030,0.0464863698,-0.0885777448,-0.35134604,-0.0659733687,0.0670638134,-0.0013098576
90568.852057,-0.0189643546,-0.0381416525,-0.131163073,-0.0166859806,0.0232811787,0.00695073522
90568.862083,-0.044153266,-0.0238826429,-0.211828263,0.0192701545,-0.0208726997,0.00760107917
90568.872110,-0.0822679839,0.0325177281,-0.256308041,0.0397147115,-0.0489528018,0.0104171057
90568.882137,-0.086347417,0.0512140261,-0.101016357,0.0355772216,-0.0541020247,0.00696484988
90568.892163,-0.00391762864,0.0746183191,-0.000618292642,0.0213298432,-0.0381265196,0.00595870764
90568.902190,0.0468308906,0.0668182763,0.20365691,0.00107677052,-0.0124994541,0.00419542856
90568.912217,0.0604922814,0.0541039389,0.151893405,-0.0047592802,0.0141681091,-0.000304248077
90568.922243,-0.00848413284,0.0100756312,0.0934938233,-0.00900009852,0.0342163865,0.00356133013
90568.932270,-0.0736671279,0.000678674666,-0.00294176715,-0.00621842612,0.035591909,0.00266011629
90568.942297,-0.081192902,-0.0254985171,-0.0218586491,-0.00573532908,0.0236806528,0.00525563314
90568.952324,-0.0641875894,-0.047894108,-0.130838664,0.0107989058,0.00394556513,0.00565058004
90568.962350,-0.0840452958,-0.0620138918,-0.0565272269,0.0209993448,-0.015675008,0.0109963427
90568.972377,-0.05519156,-0.0532846054,-0.0285794818,0.0135353038,-0.0263926337,0.0126267309
90568.982404,-0.022974394,0.00644615215,0.0591818038,-0.0150670458,-0.0240740857,0.0105595851
90568.992430,-0.0587874473,0.0290120581,0.146919124,-0.0487062309,-0.00880085556,0.00961123324
90569.002457,-0.108747355,0.0777235186,0.13386032,-0.0624380235,0.0159329859,0.00901388574
90569.012484,-0.134430863,0.0858821655,0.0165800949,-0.0438630071,0.0309164611,0.00521275598
90569.022511,-0.166877473,0.0582447285,-0.119289096,0.00411570379,0.0354172078,0.0045802557
90569.032537,-0.173761844,0.025692814,-0.174703524,0.0441307638,0.0235584148,0.00281617755
90569.042564,-0.222642962,-0.0169326045,-0.115305579,0.0720737155,-0.00134373905,0.0034257752
90569.052591,-0.22246134,-0.0754434284,-0.142722578,0.0833072018,-0.0275796044,0.00236051075
90569.062617,-0.189162297,-0.112302356,-0.0660596098,0.0595856186,-0.0454728479,-0.000647263494
90569.072644,-0.1521901,-0.0682395614,0.159308065,-0.0150284303,-0.0467495683,-0.00222412114
90569.082671,-0.0949488758,-0.0105195592,0.271597059,-0.0935863528,-0.0221552781,-0.00609502558
90569.092698,-0.139628286,0.0393084842,0.327674335,-0.133457077,0.0151838393,-0.00330216893
90569.102724,-0.224304081,0.0862834032,0.142309,-0.110377317,0.055353896,-0.000820368421
90569.112751,-0.265069113,0.0764281085,-0.0719609428,-0.0345688399,0.0730431427,0.0046561557
90569.122778,-0.380830604,0.0304676637,-0.263298923,0.0652861174,0.0579169218,0.00813770584
90569.132805,-0.464131002,-0.0496023367,-0.354142392,0.151955235,0.018539687,0.00923093326
90569.142831,-0.48590762,-0.154299377,-0.249564412,0.175932738,-0.0354380595,0.0108844909
90569.152858,-0.459159131,-0.203488976,-0.119217784,0.125104698,-0.0780390452,0.0128307278
90569.162885,-0.38598996,-0.230637936,0.0721891694,0.019779085,-0.0897343184,0.0155868336
90569.172912,-0.345608667,-0.184498225,0.381719813,-0.0884051744,-0.0618733938,0.0168475743
90569.182938,-0.340641619,-0.102321718,0.454525522,-0.147906852,-0.00226386096,0.0130112908
90569.192965,-0.352149832,-0.00907162538,0.294927665,-0.161225585,0.0619097997,0.00978886626
90569.202993,-0.308854296,0.0736202845,0.052377969,-0.133368653,0.10127904,0.00425561621
90569.213020,-0.315696417,0.141337401,-0.0966108155,-0.0833576817,0.103445788,0.00701971083
90569.223046,-0.356552232,0.1607946,-0.190759756,-0.0200450264,0.0717107628,0.00806473579
90569.233073,-0.323620817,0.149885815,-0.289855506,0.0430942614,0.0179681734,0.0127625513
90569.243100,-0.284429884,0.142516528,-0.296263035,0.091335031,-0.0388117495,0.0119462927
90569.253126,-0.30745685,0.111759753,-0.108159214,0.109864238,-0.0766211848,0.0119433637
90569.263153,-0.279832419,0.0566740816,0.00421921052,0.118004988,-0.0837318177,0.0132967821
90569.273179,-0.313969191,-0.0442270368,0.0532489066,0.114422242,-0.0652705233,0.0124349828
90569.283207,-0.318990417,-0.136343339,-0.0435075863,0.099835309,-0.0294853623,0.0129380535
90569.293234,-0.230541113,-0.211540436,0.0165590521,0.0706627768,0.00149678851,0.0120581455
90569.303260,-0.209313524,-0.28313549,0.400387689,0.0287997451,0.0206635588,0.0178467921
90569.313287,-0.152753908,-0.302348944,0.29200038,-0.0362152096,0.0255105116,0.0176678273
90569.323314,-0.160126007,-0.256829631,-0.0508228777,-0.110714202,0.0252378036,0.0155961552
90569.333341,-0.12870264,-0.167222864,0.0705753045,-0.17711055,0.0256828175,0.0120546828
90569.343367,0.0452240217,-0.0137717294,0.294977934,-0.206652192,0.0279395797,0.0101614419
90569.353394,-0.00254833131,0.0956093404,0.152991137,-0.164038954,0.0348137331,0.0103377431
90569.363421,0.109991129,0.144755137,-0.278312367,-0.0609405275,0.0365370636,0.00846713885
90569.373448,0.143450551,0.151452881,-0.357248542,0.0500272687,0.0297683732,0.01350078
90569.383473,0.0301726743,0.131858429,-0.318343349,0.125382471,0.00651844479,0.0212226148
90569.393501,0.077241336,0.0698305734,-0.358305357,0.153174686,-0.0259348365,0.0264764997
90569.403528,0.0653257112,-0.0199367183,-0.294218377,0.130316782,-0.0536479565,0.0263630497
90569.413555,0.0548274241,-0.0284663905,-0.0404265714,0.0581104968,-0.0624965752,0.0252216189
90569.423581,0.118053896,-0.00463214509,0.424887924,-0.0336559091,-0.0508260678,0.0211863975
90569.433608,0.207975666,0.070568861,0.545220523,-0.124959451,-0.0152971053,0.0131005068
90569.443634,0.186941938,0.184363802,0.2855268,-0.170993266,0.0349554134,0.00515469919
90569.453662,0.130395583,0.247713627,0.0860382465,-0.147407782,0.0743273173,-0.00314956986
90569.463689,0.0797450808,0.2596123,-0.0609649171,-0.066186418,0.0891134565,-0.00586812467
90569.473715,0.11193377,0.234015941,-0.279145311,0.0350299429,0.0653412838,-0.00452669047
90569.483742,0.149433735,0.186838777,-0.460358787,0.118363987,0.0104623207,-0.00100039866
90569.493769,0.119251765,0.0845237732,-0.413216512,0.168549645,-0.04645023,0.00423271313
90569.503796,0.0355189855,-0.034104579,-0.136252505,0.180534947,-0.0886213879,0.00716884817
90569.513822,0.0842968075,-0.128190209,0.0924504517,0.159799832,-0.105279456,0.0138592414
90569.523849,0.0969862663,-0.223913705,0.106573085,0.106491613,-0.0885084669,0.0135247485
90569.533876,0.0131633979,-0.285782425,0.23807239,0.0350722883,-0.0439998533,0.0120288507
90569.543903,-0.0201479932,-0.314643558,0.473503194,-0.0365518305,0.00928680068,0.0138200923
90569.553930,-0.0235751729,-0.301593778,0.4478836,-0.106538099,0.0533104514,0.0147814938
90569.563956,0.0397939047,-0.20486706,0.191176199,-0.172630576,0.0729286273,0.0116536115
90569.573983,-0.00216123169,-0.0719058654,0.0561843756,-0.215260056,0.0779297774,0.00869510613
90569.584010,-0.0821406495,0.0740334684,0.0686592417,-0.222398666,0.0696534713,0.00952974066
90569.594036,-0.10880409,0.220990345,-0.0437577617,-0.181397704,0.0519628947,0.00609293125
90569.604064,-0.0767698432,0.339774034,-0.185879583,-0.102701818,0.027749698,0.00859177496
90569.614089,-0.0757108539,0.434606098,-0.418387778,-0.00203406783,0.00033378606,0.00697363831
90569.624117,-0.0717241954,0.418365815,-0.373661332,0.096640582,-0.01968786,0.00972947768
90569.634144,-0.145562827,0.364783497,-0.161790267,0.167964819,-0.0401627707,0.00805834412
90569.644171,-0.0932191111,0.243538058,-0.202724919,0.211626279,-0.0577436301,0.00978886626
90569.654198,-0.0773399712,0.102025637,-0.145470416,0.220646935,-0.0690831046,0.00924371659
90569.664224,-0.126174711,-0.0701290649,0.105132823,0.190131116,-0.0715060483,0.00829962652
90569.674251,-0.0577533368,-0.195170901,0.271823268,0.123952004,-0.0584596234,0.0074802424
90569.684278,-0.0624888043,-0.30707484,0.341141719,0.0266872372,-0.0370757717,0.00608501222
90569.694305,-0.0547963136,-0.307882978,0.314373539,-0.0664996926,-0.00632931217,0.000781326662
90569.704332,0.0050017918,-0.302653517,0.298236059,-0.127235216,0.0270076052,0.00197868386
90569.714358,0.0157870792,-0.259895119,0.113106286,-0.144604889,0.0531957981,0.0030274369
90569.724385,0.0603844189,-0.19151015,-0.0944019072,-0.129398507,0.0666335796,0.00590365111
90569.734412,0.0865941429,-0.0917790616,0.05201615,-0.110264753,0.0609165703,0.0123820567
90569.744439,0.0604423413,0.0339857549,0.0644781566,-0.104995419,0.0437034939,0.0160622793
90569.754466,-0.0140732763,0.163288536,-0.273945989,-0.0954684962,0.0204173469,0.0129780724
90569.764491,-0.00719986518,0.222355898,-0.307135726,-0.0681415323,0.000755761741,0.0129690171
90569.774519,0.0733682209,0.263163307,-0.143386595,-0.0161246743,-0.0127752271,0.011998295
90569.784546,0.0847292624,0.273376037,-0.115723512,0.0475376572,-0.0201886694,0.0114475536
90569.794573,0.131333704,0.229209015,-0.02650326,0.100959073,-0.0237016442,0.0104802932
90569.804599,0.149602844,0.17897999,-0.284906943,0.123312051,-0.0275336678,0.00778757093
90569.814626,0.174032845,0.114965089,-0.170128472,0.10984924,-0.0319321441,0.00603041715
90569.824652,0.19204887,0.00208360956,0.235613306,0.0892715257,-0.0304713982,0.00938679941
90569.834680,0.105789202,-0.0680385589,0.186245172,0.0608039264,-0.0214504736,0.00853831611
90569.844707,0.100757675,-0.122640283,0.0226883487,0.0275210727,-0.0155028372,0.00735054641
90569.854734,0.10806312,-0.15110986,0.00754630911,-0.00397293754,-0.00410583866,0.00334701605
90569.864761,0.0676032825,-0.127770303,0.271285508,-0.0306985576,0.00588820577,0.00293076422
90569.874787,0.0446704064,-0.0848147025,0.299297551,-0.0547066901,0.0154223221,0.00195125361
90569.884814,-0.018307699,-0.0726158403,0.0734283558,-0.0642778177,0.0213579753,0.0010180819
90569.894841,-0.0067391158,-0.0466699,-0.106353042,-0.0594769429,0.0218850144,-0.000780084995
90569.904868,-0.00629075098,-0.00567862194,-0.0247602157,-0.0479142975,0.0173706909,0.00119677988
90569.914895,-0.0149227328,0.0250148782,0.0921020766,-0.0351279277,0.0112933575,0.00469111382
90569.924922,0.0405831371,0.0676268162,0.00198049168,-0.0253155094,0.00350094801,0.00952927872
90569.934948,0.0167223325,0.0782545567,-0.119452762,-0.00925158821,-0.000941737157,0.0102738981
90569.944975,-0.051992837,0.0906763044,-0.1552331,0.0192711323,-0.000791002132,0.0127343928
90569.955001,-0.053583796,0.0657408564,-0.151332586,0.0449642453,-0.00236785989,0.0118590119
90569.965029,-0.0246709139,0.0448299876,-0.14632674,0.0638071772,-0.00745263342,0.0124403798
90569.975056,0.014951085,0.00909399978,0.099427305,0.0585490268,-0.0170714396,0.0113586039
90569.985083,-0.0811398932,-0.00676480974,0.204901942,0.0327757549,-0.0176152556,0.0118403697
90569.995109,-0.0642866841,-0.0127886731,0.0298002265,-0.00612397278,-0.0141102697,0.00899611331
90570.005136,-0.0678142189,0.00285649363,0.0427900565,-0.0335872892,-0.00354337897,0.00538007367
90570.015162,-0.023462762,-0.0188904971,0.0181220637,-0.0371609863,0.0078344441,0.0053995141
90570.025190,0.0508269562,-0.0109494019,0.101709863,-0.0156136138,0.0178455331,0.00802885286
90570.035217,0.000842078309,-0.0105883501,-0.0780493228,0.0138137832,0.0188969479,0.00849171087
90570.045244,0.0386457758,-0.0150412378,-0.150017411,0.0269628752,0.0107679156,0.00754202727
90570.055271,0.0509968877,-0.00179396252,-0.011429025,0.0228416331,-0.00121284702,0.00823631335
90570.065297,0.0453544249,-0.0129667697,-0.0560683772,0.00634947493,-0.0144681993,0.00972049322
90570.075324,0.0971641619,0.00135737765,0.0155279555,-0.0153592827,-0.0176445513,0.00767145689
90570.085351,0.0713549084,0.0149046954,0.00520003825,-0.0282441873,-0.010832451,0.00653695046
90570.095378,0.118322886,0.0201579397,0.0499258997,-0.0218712438,-0.00057422097,0.0080040862
90570.105405,0.0998269513,0.0357359961,0.0160236301,-0.0135406099,0.0097724258,0.00774522649
90570.115432,0.118198328,0.0571046916,-0.00281726399,-0.00559080784,0.0116632705,0.00699474766
90570.125458,0.185115855,0.0675573677,0.091897494,-0.00405150066,0.0103436739,0.00665599398
90570.135485,0.1506388,0.0729026377,0.0461130634,-0.00784038026,0.00430309242,0.00730953376
90570.145511,0.168044875,0.0932074669,-0.0954236515,-0.00507894829,-0.00305149303,0.00390441587
90570.155539,0.175573682,0.0649480985,-0.00832229115,0.00584507202,-0.00735010132,0.00711485661
90570.165566,0.22081785,0.0656561372,-0.0243650789,0.0189693969,-0.00845744433,0.00656677793
90570.175593,0.199580178,0.0385683699,-0.0356948667,0.0385574762,-0.00724464021,0.00794336583
90570.185620,0.214993747,0.0148541707,0.0286229994,0.0475158196,-0.0097823671,0.0076051444
90570.195647,0.215746994,-0.0140372119,0.0169138569,0.0415822964,-0.00894320449,0.004834924
90570.205672,0.158708289,-0.0154940231,-0.0228611041,0.0201334644,-0.00861536963,0.00291265465
90570.215699,0.209360764,-0.0344807554,0.0739287066,0.000857770312,-0.00595167577,0.00354622082
90570.225726,0.246658393,-0.0511873408,0.112121367,-0.0113685356,-0.00210820157,0.00297417363
90570.235753,0.214752814,-0.0629920161,-0.00109876964,-0.0125605661,0.00185538088,0.00537181749
90570.245780,0.286009211,-0.0550202335,-0.080804759,-0.013363776,0.00656997487,0.00518140161
90570.255807,0.249892023,-0.0261788641,0.112743298,-0.0215601858,0.00682590464,0.00827812507
90570.265834,0.222338611,-0.00360671104,0.0724486971,-0.0345569488,0.00820195982,0.00590152025
90570.275860,0.196820395,0.0469215531,0.0558412612,-0.0442388702,0.0114233189,0.00702617328
90570.285887,0.160465727,0.0914012212,-0.0113027683,-0.0501566801,0.0109077313,0.00191530084
90570.295914,0.213493133,0.113261061,-0.141165996,-0.0365679015,0.00931010144,-2.90729897e-05
90570.305941,0.22921995,0.122297112,0.0533026826,-0.0140372889,0.00809463421,-0.000105239344
90570.315968,0.188020783,0.132458331,-0.0113577133,0.0132249583,0.00503040133,0.00136242864
90570.325995,0.167738458,0.109942036,-0.181468196,0.0402248826,-0.00226905681,0.00137148343
90570.336022,0.148734245,0.0653465598,-0.0937063262,0.0646735009,-0.0110090186,0.00248069001
90570.346049,0.117670706,0.0160765156,-0.00510274458,0.0708834629,-0.0173225745,0.00409057095
90570.356076,0.1345835,-0.0178071954,0.0308535349,0.0580009509,-0.0218704554,0.00425169209
90570.366102,0.173164264,-0.0472580386,0.0492519459,0.0345305119,-0.0217103983,0.00621524091
90570.376129,0.16316715,-0.0708378708,0.0264509161,0.0116611503,-0.014015461,0.00371985893
90570.386156,0.17050679,-0.0975536264,0.0912609496,-0.0100971425,-0.00210234262,0.00350946897
90570.396183,0.218029132,-0.06791654,0.128462261,-0.0308580801,0.00944698723,0.00449696892
90570.406210,0.241347574,-0.0262631813,0.0997441158,-0.0534733806,0.0179813535,0.00277124077
90570.416237,0.205593977,0.0180613328,0.0239731278,-0.0717495877,0.0211377324,0.00144738342
90570.426264,0.218011597,0.089806682,0.00435715768,-0.0776759211,0.0236562838,-0.000290595819
90570.436291,0.193475742,0.13675917,0.0969728975,-0.0729019318,0.0187528704,-0.00121897355
90570.446318,0.166995439,0.16937666,-0.0741359488,-0.0474197503,0.0135421299,-0.00271194138
90570.456344,0.152544305,0.185775312,-0.197970418,0.00621205549,0.00722644413,-0.000690069874
90570.466371,0.176203175,0.157299342,-0.144250519,0.0592180144,-0.00391116151,0.00275339756
90570.476398,0.163810654,0.117030131,-0.114503615,0.0974586111,-0.0190064914,0.00298109801
90570.486425,0.168927796,0.0705709799,-0.0975489731,0.103892545,-0.0300524856,0.00235285807
90570.496452,0.147975919,0.00401048597,-0.0277424464,0.0917384129,-0.0361236918,0.00388870306
90570.506479,0.140605135,-0.0669255562,0.06295197,0.0638849389,-0.0320357407,0.00426021415
90570.516506,0.121037424,-0.0830597486,0.157384988,0.0224884979,-0.0188211358,0.00317710649
90570.526533,0.111541866,-0.0889700686,0.190925439,-0.0245149631,-0.000776621115,0.00342877499
90570.536560,0.0740750723,-0.078241352,0.177049474,-0.0636157591,0.0194620707,-0.000690868949
90570.546587,0.0524569503,-0.0317164052,0.111661933,-0.0907909174,0.0350463551,-0.0024051451
90570.556614,0.025238305,0.0384165769,0.0581214811,-0.0916380707,0.0420214434,-0.00237638306
90570.566640,-0.00169728571,0.0884089075,-0.00175986389,-0.0729789037,0.0388847713,-0.00469599654
90570.576667,-0.0437868073,0.116465337,-0.13823345,-0.0295326255,0.0262930797,-0.00269143552
90570.586694,-0.0533993611,0.102989331,-0.218778228,0.0291847501,0.00532255024,-0.00273298089
90570.596721,-0.0578753557,0.082650965,-0.184759639,0.0859281894,-0.0173798322,0.000401560324
90570.606748,-0.091909709,0.0147053003,-0.170376893,0.127417045,-0.0360129054,0.0028095903
90570.616775,-0.0969232446,-0.0560754417,-0.107285354,0.12997927,-0.0467845934,0.00631937023
90570.626802,-0.105729414,-0.113373821,0.0594442541,0.0927091341,-0.0451928216,0.00718143546
90570.636829,-0.149376997,-0.136501051,0.186294857,0.0229377735,-0.0329361546,0.00612682394
90570.646856,-0.20751274,-0.152001146,0.233820578,-0.042377853,-0.00395297324,0.00138133682
90570.656883,-0.22179661,-0.116901228,0.249989622,-0.0908388544,0.023341765,-0.000256506619
90570.666910,-0.265878986,-0.0671240379,0.170783984,-0.111097259,0.0470015531,-0.00221845776
90570.676937,-0.291879068,0.00219112506,0.0183944509,-0.113562417,0.0574822587,-0.00341296837
90570.686963,-0.258067819,0.072928101,-0.047266062,-0.091594537,0.0485795786,-0.00364386466
90570.696990,-0.327870985,0.122037036,-0.0621532501,-0.0553150896,0.0306192164,0.000231833304
90570.707017,-0.36384407,0.178064592,-0.273664249,-0.00626871894,0.00901778536,1.47857843e-05
90570.717044,-0.361328872,0.189778411,-0.175275771,0.0413704392,-0.0124347757,0.00194051779
90570.727071,-0.342789299,0.175855209,-0.115760922,0.0674726095,-0.0307962081,0.000829979419
90570.737098,-0.331123557,0.162184301,-0.0663384268,0.0831873964,-0.0370330612,-0.000690685478
90570.747125,-0.361737233,0.0990452331,-0.0244416513,0.0899259921,-0.0339818771,-0.00127205335
90570.757152,-0.310898259,0.0169623585,-0.0122350807,0.0940437715,-0.0260805475,-0.00341696375
90570.767179,-0.258586674,-0.0605078346,0.0318331936,0.0796017151,-0.0173203449,-0.00742289041
90570.777206,-0.235120933,-0.129054644,0.142567358,0.0546494935,-0.00799661753,-0.00218019158
90570.787233,-0.212143524,-0.194175387,0.0609873919,0.0206819389,-0.00115975081,-0.000730366339
90570.797260,-0.171682991,-0.207874059,0.0314807269,-0.0122951867,0.00297001312,-0.000525835794
90570.807287,-0.139678409,-0.190090017,0.152512414,-0.0432608251,0.00749046244,0.00264492362
90570.817314,-0.0882260155,-0.115262229,0.104300464,-0.0772142682,0.0140383759,0.00202121131
90570.827341,-0.0356744106,-0.0339221717,0.164869207,-0.107962859,0.017029905,0.00235304154
90570.837368,-0.104887282,0.056362093,0.073472195,-0.114464169,0.0266971805,3.34280683e-05
90570.847394,-0.0332186515,0.0979181288,-0.218992163,-0.0767314334,0.0310610359,-0.0033788801
90570.857421,0.0585456774,0.153968042,-0.0243083803,-0.0247081809,0.02349686,0.000293885465
90570.867448,0.0633540641,0.169950113,-0.00982743501,0.0140762337,0.0106428464,0.00132799066
90570.877475,0.0847341212,0.215968352,-0.177847083,0.036585803,-0.00614678645,0.00040387373
90570.887502,0.072795353,0.186891457,-0.161684468,0.0448474612,-0.0210413138,-0.00198711258
90570.897529,0.0855899709,0.174368879,-0.0629195583,0.0480549734,-0.0279426302,-0.00170987741
90570.907556,0.110828201,0.140077172,0.0560592879,0.0447441328,-0.0260102401,-0.00597998955
90570.917583,0.119357417,0.102011426,0.0660931906,0.0383621331,-0.0180644325,-0.00535148371
90570.927610,0.132507059,0.058126582,-0.029679552,0.0369530532,-0.00699074212,-0.0107406563
90570.937637,0.133599347,0.00881613269,0.0533453527,0.038413531,0.000973441222,-0.00804260735
90570.947664,0.193596939,-0.0469546352,0.0576591243,0.0333742972,0.00108502764,-0.0071704219
90570.957691,0.150609099,-0.0808602292,0.0108237233,0.0225085996,-0.000102742177,-0.00744952251
90570.967718,0.110215312,-0.0754238103,-0.0176693807,0.0044497054,-0.00243993215,-0.00682980463
90570.977745,0.115248045,-0.0565670611,0.0450913191,-0.0262554765,-0.00439389348,-0.00647107687
90570.987772,0.12343548,-0.00710923926,0.0541303656,-0.0555848714,-0.000219122341,-0.0113438628
90570.997799,0.110341532,0.0492547087,0.0993384576,-0.0777410392,0.00820765207,-0.0114839448
90571.007826,0.0828539518,0.109449759,0.136197823,-0.0800494675,0.0209777758,-0.0143662839
90571.017853,0.0118478766,0.125384045,-0.0582433831,-0.0480707597,0.0309672927,-0.0145862604
90571.027880,-0.0439952624,0.111609093,-0.170310258,0.00571790272,0.0300186736,-0.0122719741
90571.037907,-0.087697005,0.107147693,-0.214519987,0.0580982853,0.0156533171,-0.011416301
90571.047934,-0.0651479771,0.075122177,-0.108926692,0.087210099,-0.00979398442,-0.0102407819
90571.057961,-0.0974623747,-0.0065895993,-0.0730937463,0.0938152697,-0.0299615717,-0.00615256269
90571.067988,-0.161182987,-0.0600111737,-0.134652669,0.0944893163,-0.0439879063,-0.00598611486
90571.078015,-0.18651949,-0.150177986,0.0698563426,0.0921089824,-0.0411162215,-0.00353121281
90571.088042,-0.265418328,-0.222342839,0.181603484,0.0763686325,-0.0297999165,-0.00322415017
90571.098069,-0.345018263,-0.233153499,0.193041993,0.0341687191,-0.00975803351,-0.00298792858
90571.108096,-0.418236169,-0.243656407,0.174932336,-0.0337208483,0.0106670813,-0.00511339669
90571.118123,-0.434354799,-0.203564233,0.118191627,-0.0952345479,0.0302202751,-0.00664338273
90571.128149,-0.454870166,-0.117148225,0.201426959,-0.135320184,0.041549099,-0.0071083716
90571.138176,-0.465359667,-0.0255882412,0.16759717,-0.150232819,0.0442055997,-0.00828415703
90571.148203,-0.437428873,0.0530442737,-0.0154382606,-0.134817911,0.0389458586,-0.0094058792
90571.158230,-0.420578422,0.15910051,-0.179005606,-0.0949035112,0.0308905927,-0.00640662842
90571.168257,-0.373663307,0.223558223,-0.18146352,-0.0348955702,0.0124724389,-0.00714538981
90571.178284,-0.330593651,0.227711214,-0.29220996,0.0384758476,-0.00549404528,-0.00305264339
90571.188311,-0.360006172,0.210847977,-0.449443426,0.0946666848,-0.0228346872,-0.003891006
90571.198338,-0.284867801,0.188238122,-0.201299855,0.114538128,-0.0388725053,-0.00367475756
90571.208365,-0.237968998,0.115136938,0.0650995034,0.1038458,-0.0428334276,-0.00476931677
90571.218392,-0.308361836,0.0585469628,0.0806659059,0.065919454,-0.0391300346,-0.00574376703
90571.228419,-0.333627284,-0.00912167506,0.139472315,0.0273347802,-0.0188567235,-0.0078455339
90571.238446,-0.413801986,-0.0436319936,0.180442623,-0.00853453689,0.0042488629,-0.0107888597
90571.248473,-0.40831128,-0.0183598609,0.199985528,-0.0427231316,0.0229847332,-0.0144357922
90571.258500,-0.442766179,0.0130249826,0.190010662,-0.0675613705,0.0317606491,-0.0157474008
90571.268527,-0.434726263,0.0231956634,0.132655621,-0.071701524,0.029840776,-0.0158720341
90571.278554,-0.382446625,0.0253636917,-0.0372608009,-0.0461538184,0.0186230087,-0.0155050511
90571.288581,-0.361917887,0.0101684241,-0.301161328,0.00916270148,0.00551812565,-0.0126022062
90571.298608,-0.379942898,-0.0161292157,-0.334105566,0.0698950242,-0.011098935,-0.0099188051
90571.308635,-0.482300426,-0.0827011809,-0.207616198,0.117175984,-0.0232394866,-0.00452989888
90571.318662,-0.486152389,-0.15619995,-0.0546246081,0.130267295,-0.0367145489,-0.00223292213
90571.328689,-0.438750988,-0.220345163,0.0958827642,0.102067339,-0.0434456865,0.000653678658
90571.338716,-0.42846691,-0.280493963,0.134977926,0.043515614,-0.0375470507,0.00185476394
90571.348743,-0.417949973,-0.30525705,0.189290531,-0.0126600398,-0.0194452821,0.00287209136
90571.358770,-0.493017343,-0.257061394,0.418289256,-0.0617498208,0.0127249056,0.000749551798
90571.368797,-0.501557281,-0.223599963,0.410567138,-0.110563432,0.0385501136,0.00269312702
90571.378825,-0.561432853,-0.104314828,-0.099442824,-0.167061863,0.0578058337,-0.00370591682
90571.388852,-0.565728432,0.0433729572,-0.314966566,-0.19012591,0.0669274231,-0.00929322828
90571.398879,-0.477613949,0.141248225,0.121583607,-0.1639204,0.0605054771,-0.00729159628
90571.408906,-0.444133375,0.21946931,-0.0135777275,-0.083441538,0.0426545751,-0.00422709704
90571.418933,-0.359841264,0.282125563,-0.398189624,-0.00281752851,0.014990724,-0.00446571585
90571.428960,-0.398946216,0.329629584,-0.440959675,0.0553184774,-0.0124630059,-0.00499035873
90571.438987,-0.466766063,0.296808314,-0.1321024,0.104959535,-0.0291610255,-0.00219617028
90571.449014,-0.459899903,0.195319349,0.179580454,0.147406059,-0.0453162926,0.00397410767
90571.459041,-0.372613615,0.0486052684,-0.138882269,0.182963523,-0.0521784599,0.00706710305
90571.469068,-0.386368474,-0.0921539228,-0.284492517,0.184938523,-0.0507131877,0.0107116384
90571.479095,-0.525571851,-0.129876445,0.280936549,0.115201789,-0.0414190206,0.00705911323
90571.489122,-0.526217017,-0.121631289,0.826625143,-0.0120762747,-0.0196111972,0.00513258261
90571.499149,-0.543589665,-0.10279529,0.663006944,-0.13047829,0.0107389868,-0.00366916497
90571.509176,-0.402781849,-0.0883179614,0.189099977,-0.19305299,0.0398300265,-0.003485673
90571.519203,-0.342277294,0.0563277889,-0.196136773,-0.206359995,0.0678970789,-0.0108543726
90571.529230,-0.425962526,0.133663652,-0.282450198,-0.14645831,0.0836600636,-0.00622207102
90571.539257,-0.432166203,0.0983404824,-0.350380409,-0.0153309239,0.0682994847,-0.00127338514
90571.549284,-0.316333254,0.0895532552,-0.666161931,0.112818259,0.0148999088,0.0016662121
90571.559311,0.133282537,0.0748749973,-0.818246343,0.191221448,-0.0543910141,-0.000967920651
90571.569338,-0.080157659,0.040472998,-0.0870620659,0.17817116,-0.0933709095,-0.00195089344
90571.579365,-0.240981733,0.0208552378,0.825750113,0.10243539,-0.101898084,0.000385231446
90571.589392,-0.0286412423,-0.0259605086,0.616974092,0.010412256,-0.0765772785,-0.00150854223
90571.599419,-0.0468272162,-0.085804773,-0.12590413,-0.0350761313,-0.0235287069,-0.00996940572
90571.609446,-0.000300534122,-0.182646533,-0.369676061,-0.023653568,0.0336056885,-0.0155087801
90571.619473,-0.13433608,-0.177718685,0.362536974,0.0110916289,0.0643039395,-0.0150725542
90571.629500,0.0707887624,-0.181921178,0.801849013,-0.00873720292,0.0527942975,-0.00964742888
90571.639528,0.320283273,-0.152927467,-0.0710619482,-0.0601069156,0.0163449415,-0.0109710189
90571.649555,0.264231131,-0.151083703,-0.559137726,-0.0790281419,-0.0106283545,-0.00752568793
90571.659582,0.10293595,-0.106895711,0.0317490225,-0.0760872114,-0.0149733021,-0.00204596844
90571.669609,0.142800087,-0.0301319125,0.247566195,-0.0494830359,-0.00801179809,0.00377010937
90571.679636,0.191515439,0.029356926,0.0170173173,-0.0321775202,0.00140281131,0.00647314462
90571.689663,0.162491881,0.109786115,-0.12741395,-0.0297939882,0.0112852699,0.000476238425
90571.699690,0.321484648,0.125276932,-0.0481954519,-0.00975556597,0.0128999439,-0.00254325372
90571.709717,0.235256947,0.119360511,0.0372131331,0.00983438063,0.0122661118,-0.00575289492
90571.719744,0.256088028,0.0941135489,-0.180171727,0.0236846831,0.00349712121,-0.00828902413
90571.729771,0.271191636,0.0592766653,-0.130189844,0.0411558177,-0.00762823382,-0.00922938612
90571.739798,0.36482216,-0.052692302,-0.0102722562,0.0807216044,-0.0185272216,-0.000177567718
90571.749825,0.318208585,-0.133675691,0.0294284706,0.107839505,-0.0195767737,0.0081781001
90571.759852,0.0387713749,-0.150560702,0.0271768923,0.0943503257,-0.0175045679,0.0102026352
90571.769879,0.150377281,-0.155813435,0.108026791,0.0215741273,-0.0166624754,0.0129147983
90571.779906,0.147629608,-0.0994368098,0.181979331,-0.0795759309,-0.00652621845,0.00703880015
90571.789934,0.0534359514,-0.0269025752,0.361812751,-0.152901796,0.0153247521,0.00588858045
90571.799961,-0.0398208628,0.0801121673,0.346268561,-0.19703011,0.0395230328,-0.00311849628
90571.809988,0.0753797617,0.247555221,0.149532521,-0.193566141,0.0521711831,-0.011403324
90571.820015,0.224913412,0.314082251,-0.241355386,-0.119307098,0.0524225843,-0.0155445392
90571.830042,0.223914263,0.319948257,-0.498153973,-0.00338821411,0.0360745055,-0.0158835602
90571.840069,0.260150638,0.323063101,-0.317951719,0.0978044447,0.00372695206,-0.0121783036
90571.850096,0.336100435,0.244739725,-0.382561262,0.177802088,-0.0374295401,-0.00880088274
90571.860123,0.373924372,0.0638199713,-0.142707381,0.221546906,-0.0741966094,0.00397989304
90571.870150,0.319705692,-0.0835750412,-0.199045354,0.213253024,-0.0890788834,0.00597406841
90571.880177,0.198141268,-0.144603364,0.252001547,0.159054759,-0.078407603,0.00886439636
90571.890204,0.1499588,-0.252261592,0.602014423,0.0733307999,-0.0471812363,0.00676555942
90571.900231,0.204609953,-0.305980396,0.234791469,-0.0456509825,-0.00434295851,0.000216047387
90571.910259,0.153292109,-0.240314659,0.243535332,-0.170801697,0.0422844638,-0.00345165831
90571.920286,0.188912891,-0.106308522,0.506161601,-0.248422724,0.0748229672,-0.0105180888
90571.930313,0.232631603,0.0378684415,0.234825955,-0.262475443,0.0912887578,-0.0128094739
