t,ax,ay,az,gx,gy,gz
91303.536263,0.0873771633,0.430281761,0.35941082,-0.331305414,-0.053922195,0.207758337
91303.546290,0.0652077916,0.508975358,0.361437357,-0.338520437,-0.0539019555,0.176292568
91303.556317,-0.0134740493,0.44472705,0.37861061,-0.362936825,-0.0450296365,0.143153787
91303.566345,-0.0534736836,0.412848395,0.433183912,-0.421424389,-0.0380252562,0.107688479
91303.576372,-0.0251421953,0.36498482,0.451138671,-0.473725408,-0.0273696799,0.0729328915
91303.586400,-0.00151728183,0.309383345,0.343958983,-0.49217844,-0.0151228691,0.0438549034
91303.596427,0.0794768842,0.293555369,0.236116448,-0.487814337,0.0108938189,0.0147430897
91303.606455,0.121802142,0.233208452,0.0909492679,-0.467454195,0.0372910686,-0.00937636103
91303.616482,0.15031237,0.194711256,-0.0998036055,-0.420482427,0.0621599331,-0.0319269449
91303.626510,0.231046744,0.292478972,-0.114470429,-0.352234125,0.103247181,-0.0439892001
91303.636537,0.31472361,0.235076584,-0.0966594623,-0.282547206,0.150447726,-0.0357986465
91303.646564,0.426944068,0.20019524,-0.0733838006,-0.242666632,0.194266573,-0.00752519723
91303.656592,0.373261979,0.23296266,-0.184414903,-0.194189116,0.211234644,0.00485370727
91303.666619,0.299176935,0.228200561,-0.327173268,-0.132168889,0.198131353,0.0258921459
91303.676647,0.161104133,0.12945757,-0.462102548,-0.0940089822,0.158363968,0.0434346572
91303.686674,0.0427123388,0.0782549138,-0.431547835,-0.0698708892,0.106898375,0.0653484762
91303.696702,-0.0242153856,-0.0159042561,-0.300060805,-0.0835563466,0.0563984513,0.0746072233
91303.706729,-0.0571344209,-0.145299575,-0.0433586647,-0.112042584,0.0180420093,0.0776626691
91303.716756,-0.0253822694,-0.0820955149,0.050509121,-0.126951754,0.00272111036,0.0723278224
91303.726784,-0.045902947,-0.0401727282,0.0465104068,-0.114707604,0.0119002275,0.0746666119
91303.736811,-0.0478972169,-0.024279578,0.0551315201,-0.0947064683,0.029946873,0.0835538432
91303.746839,-0.0209040645,-0.00965279449,0.0539525395,-0.0909652561,0.0369389988,0.0972957537
91303.756866,-0.0174386352,0.000657587126,0.019841011,-0.0940601155,0.0228178576,0.110052034
91303.766894,-0.0126474782,0.0172018947,-0.0420996046,-0.111124054,-0.00129626831,0.113605492
91303.776921,-0.00241367355,0.108402507,-0.153674896,-0.100299105,-0.0358044468,0.107383013
91303.786948,0.0765841996,0.173288236,-0.264958512,-0.0631224364,-0.0648342296,0.0984507725
91303.796976,0.128375483,0.219951495,-0.328668475,0.0026531117,-0.0852958336,0.0887629911
91303.807003,0.229880385,0.274129953,-0.231991477,0.0800011605,-0.0931020901,0.0867491066
91303.817031,0.350343241,0.332139074,-0.0126484692,0.108709767,-0.0898154825,0.0929763764
91303.827058,0.42912353,0.260700562,0.215243172,0.0662070513,-0.0886623338,0.105808288
91303.837086,0.498019737,0.224178465,0.22512393,0.00616448931,-0.107961729,0.127053648
91303.847112,0.512362297,0.255462954,0.100011111,-0.0385342725,-0.134570703,0.129998833
91303.857140,0.464430516,0.227431622,0.0509679707,-0.0784401447,-0.158258185,0.124698617
91303.867167,0.307605375,0.127300684,0.0335743528,-0.108364753,-0.184751302,0.114996187
91303.877194,0.177642486,0.00722410603,0.0173643918,-0.132462099,-0.209100053,0.115552522
91303.887222,0.0537655107,-0.0874053117,0.0488578467,-0.141470775,-0.222927451,0.126192376
91303.897249,-0.0776013727,-0.170878252,0.0794774413,-0.139115214,-0.214944363,0.133794367
91303.907277,-0.191866442,-0.18288404,0.12344284,-0.129349664,-0.190940768,0.127749801
91303.917304,-0.247802429,-0.150421448,0.175177703,-0.128977358,-0.161799923,0.102215149
91303.927332,-0.29430341,-0.10206629,0.214689629,-0.141522169,-0.12477506,0.0657990798
91303.937359,-0.287262296,-0.0184542328,0.174184016,-0.147589922,-0.0983085707,0.0211048499
91303.947387,-0.161774835,0.0926654242,0.0958469769,-0.147779539,-0.0986851379,-0.0155636827
91303.957414,0.0789746429,0.200573426,0.220959796,-0.189766675,-0.101841517,-0.0464510247
91303.967441,0.214973597,0.277972307,0.315298706,-0.222224206,-0.0863208845,-0.0622763261
91303.977469,0.21082941,0.258313083,0.275545372,-0.247757003,-0.0699227378,-0.0633554384
91303.987496,0.176332518,0.212321147,0.259959681,-0.293497056,-0.0625577644,-0.0609519333
91303.997524,0.126077134,0.179349436,0.199137255,-0.350972056,-0.0725576654,-0.0644494668
91304.007551,0.0958566945,0.139115625,0.130849317,-0.426022053,-0.0939066336,-0.0695147961
91304.017579,0.0884885952,0.058232701,0.0332516967,-0.478978485,-0.12678282,-0.0763681754
91304.027606,0.0749787965,0.00630757571,-0.0783522367,-0.515222549,-0.170680225,-0.0761234313
91304.037633,0.227883311,-0.0177399471,0.121652449,-0.695786476,-0.139456257,-0.0220559388
91304.047661,0.431457526,-0.243094763,0.389601375,-0.714053094,-0.0997290984,0.0680049807
91304.057688,0.374961257,-0.240631734,-0.140327924,-0.677269518,-0.100520588,0.150924355
91304.067716,0.534538619,-0.0258925661,-0.0537210688,-0.649621904,-0.12905556,0.20160085
91304.077743,0.465357567,-0.0842002321,-0.149692549,-0.644976556,-0.192449972,0.227008477
91304.087771,0.436826031,-0.130468501,-0.0265256034,-0.723339796,-0.268464059,0.242812738
91304.097798,0.386219331,-0.16093232,0.186485279,-0.82440567,-0.343880534,0.242710739
91304.107826,0.216295311,-0.303833601,0.222633866,-0.91305542,-0.41682744,0.22779277
91304.117853,0.0845021011,-0.392385745,0.282297769,-1.01724482,-0.48988086,0.210018829
91304.127881,0.106624391,-0.41459217,0.343354003,-1.1266731,-0.554900825,0.1947456
91304.137908,0.217163253,-0.488999176,0.273981192,-1.20249569,-0.611988127,0.190163642
91304.147935,0.379961221,-0.506671903,0.105445411,-1.21377707,-0.653867662,0.200173125
91304.157963,0.558615368,-0.459977518,-0.0508715246,-1.14396203,-0.6880216,0.235117793
91304.167990,0.673615374,-0.391171693,-0.132922031,-1.05712628,-0.711019874,0.286856353
91304.178018,0.724787708,-0.35711964,-0.148035429,-0.974982142,-0.727566898,0.352014333
91304.188045,0.695037005,-0.361511372,-0.193420047,-0.869293809,-0.722230971,0.416073471
91304.198073,0.617238968,-0.371222034,-0.242743757,-0.737416208,-0.698806643,0.459510684
91304.208100,0.514634991,-0.280529006,-0.285181216,-0.594554901,-0.651668966,0.483636528
91304.218128,0.340450683,-0.241214794,-0.258304899,-0.444177091,-0.58937335,0.51243037
91304.228155,0.127114368,-0.279580765,-0.174208566,-0.323166251,-0.512723029,0.540314436
91304.238182,-0.0256396143,-0.205629905,-0.0246674083,-0.269927263,-0.43194592,0.539532304
91304.248210,-0.22957784,-0.116112424,0.0181102417,-0.230946064,-0.346245408,0.509268403
91304.258237,-0.504068297,0.020385274,-0.0696481212,-0.187960774,-0.265250951,0.457315981
91304.268265,-0.708135118,0.117726508,-0.144319039,-0.136060834,-0.200610161,0.393441379
91304.278292,-0.772198424,0.242020558,-0.216479435,-0.0853877962,-0.172310084,0.317786038
91304.288320,-0.768144181,0.316330899,-0.209638776,-0.0701281503,-0.173870698,0.230634362
91304.298347,-0.68404434,0.350944751,-0.125517893,-0.0956817195,-0.185765177,0.149655089
91304.308375,-0.612788345,0.323106238,-0.076639003,-0.106615856,-0.199047163,0.093872264
91304.318402,-0.558920269,0.245880886,-0.0797831463,-0.0771248117,-0.202694088,0.06041364
91304.328430,-0.411559232,0.200113188,0.0207832603,-0.0478239097,-0.197814912,0.0376220383
91304.338457,-0.300765884,0.0944309726,0.172507023,-0.0497344621,-0.183156073,0.0262250416
91304.348484,-0.236931126,0.0314561186,0.320509719,-0.0762630105,-0.168341979,0.0126349311
91304.358512,-0.157997874,0.0748337072,0.424618328,-0.127816752,-0.147479311,-0.025134284
91304.368539,-0.0937007586,0.159601218,0.509173511,-0.180416837,-0.127423033,-0.0751079693
91304.378567,-0.0666743661,0.222227916,0.583807019,-0.223671645,-0.101197034,-0.123835824
91304.388594,-0.0499313211,0.171543511,0.578058247,-0.254044175,-0.0824113637,-0.159511268
91304.398622,-0.0796077897,0.0409540147,0.555498624,-0.298686475,-0.0691264495,-0.178459659
91304.408649,-0.083466511,-0.0310980989,0.583797083,-0.37614879,-0.050694976,-0.188413233
91304.418677,-0.0923075507,-0.00665507398,0.521405216,-0.456424981,-0.0281092394,-0.212069288
91304.428704,-0.0888785992,0.0662216905,0.40029228,-0.548452914,-0.00135858613,-0.272682577
91304.438732,-0.171904527,0.242507574,0.367862422,-0.638786018,0.0207091663,-0.355287969
91304.448759,-0.275408887,0.0196285373,0.237213596,-0.663921714,0.0424972847,-0.402906626
91304.458786,-0.344749549,0.247481052,0.237115396,-0.714483976,0.0555656813,-0.448878378
91304.468814,-0.336656844,0.169689883,0.192882871,-0.735648394,0.0608014576,-0.480888247
91304.478841,-0.266218157,0.18585911,0.163595986,-0.746716559,0.05054022,-0.504386127
91304.488869,-0.128860627,0.256486232,0.131888012,-0.776043296,0.0400937051,-0.523945451
91304.498896,-0.0251446704,0.283274487,0.0899701938,-0.852285862,0.0245576221,-0.546093345
91304.508924,0.139130823,0.100332507,0.0167839615,-0.899894655,-0.00536139449,-0.551978946
91304.518951,0.246484698,0.0458981657,-0.147818572,-0.911211252,-0.0561755709,-0.538168073
91304.528979,0.438817534,-0.153224641,-0.361672919,-0.835094392,-0.112031385,-0.503402889
91304.539006,0.507771389,-0.0996803079,-0.445329692,-0.750003159,-0.17558293,-0.462087959
91304.549034,0.618852906,-0.219196403,-0.456985059,-0.656588554,-0.230026469,-0.411461532
91304.559061,0.628945553,-0.165420151,-0.388209629,-0.622273445,-0.277338564,-0.3660357
91304.569089,0.60853098,-0.224195672,-0.329313787,-0.604963183,-0.316818863,-0.324054718
91304.579116,0.47862932,-0.289927497,-0.298727511,-0.579245806,-0.351017058,-0.279689908
91304.589143,0.492086913,-0.35870848,-0.278667304,-0.547770202,-0.386640817,-0.241166234
91304.599171,0.543862839,-0.339869522,-0.218283854,-0.519312203,-0.415758491,-0.219672918
91304.609198,0.555508853,-0.303393493,-0.156242701,-0.520228565,-0.447002709,-0.216927737
91304.619226,0.432305375,-0.32476913,-0.0623304917,-0.54770416,-0.475532889,-0.164141476
91304.629253,0.241327023,-0.452670483,-0.0362841963,-0.542170882,-0.508975029,-0.116574235
91304.639281,0.279167508,-0.362840283,0.00766658911,-0.552483976,-0.542652011,-0.184734643
91304.649308,0.0296622939,-0.215796787,0.0828816968,-0.522828102,-0.567341685,-0.210153461
91304.659336,-0.20704306,-0.390537779,0.208965991,-0.56621629,-0.578006029,-0.220275313
91304.669363,-0.16490853,-0.363733724,0.536398787,-0.711600125,-0.582578957,-0.253521413
91304.679391,-0.210692084,-0.191083128,0.695053225,-0.899963915,-0.578428686,-0.310913861
91304.689418,-0.256902047,-0.0694476302,0.712568424,-1.0840174,-0.566105664,-0.380129963
91304.699446,-0.168852738,0.120575248,0.704208007,-1.21944022,-0.547268093,-0.462648004
91304.709473,-0.0658517977,0.279143105,0.604582096,-1.25730932,-0.515992999,-0.52605468
91304.719500,0.0117918523,0.174218649,0.462950689,-1.21980953,-0.471729636,-0.569890857
91304.729528,0.125169225,0.0776321057,0.348431745,-1.14878225,-0.416446924,-0.58508873
91304.739555,0.390006449,0.0549392124,0.353203782,-1.07506359,-0.341664046,-0.562571704
91304.749583,0.700400432,-0.111282739,0.372642642,-0.992445648,-0.247100785,-0.504301965
91304.759610,0.997876189,-0.20877719,0.289751008,-0.871450007,-0.143585056,-0.413003236
91304.769638,1.17768038,-0.250682442,0.103476157,-0.680347919,-0.0321242996,-0.27869761
91304.779665,1.23014385,-0.266699803,-0.101857031,-0.438006699,0.0855551958,-0.113610134
91304.789693,1.1391335,-0.232525876,-0.219112122,-0.189299688,0.200553149,0.0640413538
91304.799720,0.980806104,-0.184199506,-0.224645791,-0.0147875287,0.305054277,0.231522769
91304.809748,0.79695731,-0.1067147,-0.152383688,0.101053052,0.378898144,0.357261002
91304.819775,0.588355477,-0.0114221422,-0.144288644,0.150155351,0.394483477,0.430742383
91304.829803,0.318832141,0.0669059829,-0.143061148,0.135971889,0.371591479,0.467641294
91304.839830,0.0207288998,0.176037681,-0.117307114,0.0723380521,0.310888737,0.469307095
91304.849859,-0.241236568,0.329055721,-0.195890236,0.0107897362,0.23057124,0.435588032
91304.859886,-0.394148079,0.49721507,-0.32315468,-0.0189063735,0.144203857,0.37038213
91304.869913,-0.460568178,0.67002882,-0.394713019,-0.0188714862,0.0671748519,0.290500611
91304.879941,-0.541054212,0.772176359,-0.3119681,-0.0680534169,0.0270245094,0.215205848
91304.889968,-0.562376986,0.811130943,-0.180979083,-0.124487393,0.0231488105,0.14978689
91304.899996,-0.597424626,0.701719405,-0.20940146,-0.148677155,0.0346725732,0.0981399342
91304.910023,-0.652955667,0.57417103,-0.202106627,-0.211237743,0.0392039418,0.0524432883
91304.920051,-0.602980506,0.494024749,-0.170482823,-0.327931583,0.0244873147,-0.00113738142
91304.930078,-0.53092474,0.37878962,-0.312599969,-0.421050876,-0.0135950893,-0.0633379072
91304.940106,-0.539417404,0.464251689,-0.457587116,-0.440666944,-0.0740341991,-0.127919555
91304.950133,-0.41289618,0.27543329,-0.786124074,-0.318615049,-0.15191409,-0.174787194
91304.960161,-0.291285816,0.347279214,-0.958962521,-0.114174835,-0.225719064,-0.208198965
91304.970188,-0.117692167,0.505568326,-0.850921248,0.0771328062,-0.271443665,-0.239249825
91304.980216,0.0855615836,0.310114289,-0.609519553,0.202607378,-0.301963747,-0.239907622
91304.990243,0.224787976,0.0399548476,-0.361528542,0.243772924,-0.316258013,-0.208354741
91305.000271,0.255567145,-0.0842580997,-0.171426826,0.225667953,-0.317750961,-0.14897719
91305.010298,0.211542271,-0.246526637,-0.225000596,0.214280546,-0.321910828,-0.0785410926
91305.020326,0.148100019,-0.177890469,-0.274257086,0.201974601,-0.327754885,-0.0314713195
91305.030353,0.0634998277,0.00631780484,-0.39610535,0.242536142,-0.338744134,-0.0106483288
91305.040381,-0.0891039323,0.0386205303,-0.530938768,0.310917854,-0.351821065,-0.0143802166
91305.050408,-0.225001472,0.208999893,-0.543533461,0.358742386,-0.351261795,-0.0504319593
91305.060435,-0.40453474,0.110906307,-0.541626751,0.400469601,-0.344851315,-0.0875713378
91305.070463,-0.411971612,0.111618693,-0.322207755,0.359946668,-0.322267175,-0.128386676
91305.080490,-0.359874638,0.180182672,-0.386356694,0.454285145,-0.291596085,-0.172238022
91305.090518,-0.275032747,0.150087686,-0.504013352,0.619084239,-0.24098964,-0.226305783
91305.100545,-0.100685941,0.234938052,-0.231325707,0.74808377,-0.162703887,-0.278832912
91305.110573,0.0806178435,0.169633075,0.183090376,0.81626308,-0.0614962988,-0.32458815
91305.120600,0.204251822,-0.0136390876,0.526251487,0.812302947,0.0526995137,-0.350869805
91305.130628,0.239521873,-0.220941822,0.670049133,0.777982533,0.168387488,-0.356410772
91305.140655,0.320937881,-0.347462169,0.778785986,0.716831326,0.273993015,-0.353939116
91305.150683,0.415807245,-0.427558619,0.808401372,0.674076676,0.380830258,-0.347922742
91305.160710,0.498569115,-0.525677779,0.853465087,0.608093679,0.476199389,-0.346056134
91305.170738,0.647621612,-0.656834773,0.914870281,0.539410472,0.56316328,-0.333460182
91305.180765,0.752737937,-0.804909073,0.980776877,0.461504459,0.64684248,-0.299213797
91305.190793,0.849018922,-0.868436885,1.14909288,0.297501117,0.718054354,-0.246674687
91305.200820,0.977515538,-0.829674316,1.20935592,0.179416567,0.769509792,-0.1621553
91305.210848,1.01905707,-0.810482416,1.22681734,-0.0167023409,0.806730151,-0.0688897967
91305.220875,0.965762556,-0.605109043,1.21027537,-0.233946517,0.824794114,0.00726142945
91305.230903,0.754524967,-0.226134422,0.842014888,-0.362127393,0.817669094,0.04603732
91305.240930,0.51906026,0.24994872,0.47628714,-0.422082871,0.790264368,0.0285685826
91305.250957,0.264995629,0.557077929,0.180074828,-0.399843067,0.761466801,-0.04320281
91305.260985,-0.0307100494,0.581528845,0.110514385,-0.423222423,0.741013467,-0.159941673
91305.271012,-0.149910722,0.559816926,0.319797771,-0.532376826,0.728146672,-0.293917567
91305.281040,-0.171150494,0.333834553,0.299233706,-0.603831351,0.714774907,-0.386211544
91305.291067,-0.164245244,0.00546951745,0.283951966,-0.688288689,0.704921782,-0.429900706
91305.301095,-0.0727649381,-0.07859116,0.207124747,-0.70036906,0.697346687,-0.441423416
91305.311122,0.016555998,-0.200076582,-0.0703857879,-0.597657025,0.670581341,-0.427112907
91305.321150,0.0290977919,-0.398034272,-0.238696528,-0.44411093,0.634572744,-0.380086541
91305.331177,0.076971596,-0.49010816,-0.161484109,-0.302631825,0.593054354,-0.31731531
91305.341205,0.157759243,-0.451996164,0.0228875391,-0.193391889,0.55054152,-0.26422894
91305.351232,0.125329823,-0.47500733,0.0587093786,-0.0481835678,0.501674116,-0.224785656
91305.361260,-0.0614295973,-0.571024549,0.122337509,0.0841523632,0.465566188,-0.182341784
91305.371287,-0.242912246,-0.578228927,0.342314723,0.149144143,0.454705536,-0.138130128
91305.381315,-0.47760436,-0.668953008,0.459924619,0.18634291,0.46252352,-0.0711761191
91305.391342,-0.776415458,-0.672258041,0.487782348,0.224700689,0.489220917,0.00695836172
91305.401370,-1.09707774,-0.534264259,0.615946956,0.166495442,0.536133528,0.0707224309
91305.411397,-1.30632342,-0.22499475,0.561249151,0.156219363,0.591134727,0.097877346
91305.421425,-1.46903956,0.0128276251,0.375417367,0.171867833,0.649929583,0.0806208625
91305.431452,-1.51189086,0.229555921,0.421727283,0.119730599,0.700800002,0.024416713
91305.441480,-1.5290552,0.417635629,0.346067938,0.0670082644,0.743826568,-0.0625536069
91305.451507,-1.56729637,0.506230589,0.0714887807,0.117219508,0.765907884,-0.117073841
91305.461535,-1.49322956,0.520747921,-0.11549568,0.146621868,0.782184303,-0.170495242
91305.471562,-1.2412372,0.624415509,-0.166312844,0.136498928,0.78360939,-0.221814096
91305.481590,-1.00412911,0.693892657,-0.377635043,0.196054429,0.7601403,-0.254603714
91305.491617,-0.661367375,0.734243811,-0.600679244,0.268253535,0.720305026,-0.27433905
91305.501645,-0.145560125,0.705426589,-0.675371204,0.324082434,0.668613315,-0.260616064
91305.511672,0.280781812,0.503244998,-0.821395878,0.402872324,0.593149483,-0.190951735
91305.521699,0.535762937,0.213400978,-0.954141969,0.491049588,0.503306091,-0.0749196783
91305.531727,0.766884536,0.0906779767,-0.865624312,0.527049124,0.411612958,0.0519967228
91305.541754,0.861170547,0.120035516,-0.749097535,0.513625205,0.31796822,0.166517437
91305.551782,0.8495135,0.155184936,-0.684928722,0.473421335,0.219703704,0.252534628
91305.561809,0.793441703,0.289230345,-0.698227764,0.474262893,0.12811546,0.297171593
91305.571837,0.740794401,0.475274529,-0.706404641,0.488603741,0.0446418747,0.304222554
91305.581864,0.753569566,0.639495954,-0.591526215,0.465232909,-0.0382367633,0.29100877
91305.591892,0.674833737,0.635175022,-0.512197827,0.443309247,-0.114317678,0.264946282
91305.601919,0.651983461,0.646958253,-0.445620784,0.455830365,-0.171538368,0.218852013
91305.611947,0.68474562,0.671235858,-0.307827932,0.455811709,-0.214544952,0.156024039
91305.621974,0.749296711,0.519138659,-0.0441390015,0.406431645,-0.242329717,0.100130692
91305.632002,0.852322712,0.27624183,0.204899472,0.318064511,-0.254119247,0.0599843413
91305.642029,1.02796971,-0.0262873011,0.43968438,0.173075601,-0.254396766,0.0519644953
91305.652057,1.25219932,-0.244404457,0.553212559,0.0412161164,-0.250961274,0.0653687194
91305.662084,1.46197166,-0.462207542,0.565693271,-0.0792202801,-0.246379852,0.121306285
91305.672112,1.63056268,-0.644651145,0.489786089,-0.170967519,-0.244718567,0.20933336
91305.682139,1.95994121,-0.634978111,-0.192183783,-0.0622697957,-0.255450308,0.338089198
91305.692167,2.20893847,-0.475904059,-1.0198206,0.22226952,-0.265632093,0.504058182
91305.702194,2.34670063,-0.527590846,-1.15265612,0.4447833,-0.268032402,0.716086328
91305.712222,2.17191456,-0.332611258,-1.1002438,0.726561189,-0.240850598,0.884210587
91305.722249,1.68027276,-0.0972791286,-0.873617648,0.922320008,-0.173165828,0.981228769
91305.732277,1.15988622,0.116438624,-0.453361607,1.03503668,-0.0713212043,1.02669072
91305.742304,0.544640911,0.123795781,-0.251344413,1.18263602,0.0348094851,1.04692996
91305.752332,0.218108973,0.374680906,-0.0734159493,1.19281566,0.15001756,0.975369275
91305.762359,-0.154911306,0.688756244,0.0640431408,1.26955259,0.249414995,0.871227443
91305.772387,-0.496526028,0.375244604,-0.172297764,1.33626902,0.321023136,0.782224834
91305.782414,-0.447590659,1.04982141,0.0499497336,1.32714558,0.377211034,0.635222077
91305.792442,-0.64854143,0.973553502,-0.0764969642,1.37133193,0.400359511,0.495953918
91305.802469,-0.739697838,0.893590615,-0.0321691622,1.33775985,0.403513223,0.368958682
91305.812497,-0.63868588,0.803164348,0.206002465,1.19162369,0.389553994,0.283246189
91305.822524,-0.655781903,0.507971807,0.366082552,1.02855325,0.36528033,0.256577283
91305.832552,-0.502234031,0.480415838,0.572955371,0.789395571,0.335662514,0.254794836
91305.842578,-0.379701657,0.292000029,0.536208817,0.623250782,0.296973467,0.287587136
91305.852606,-0.319605683,0.13752368,0.480044447,0.487004519,0.233691692,0.343217105
91305.862633,-0.236768482,0.157823175,0.545376459,0.325235069,0.156769216,0.419919878
91305.872661,-0.169505284,0.161649309,0.600990794,0.15627718,0.0696883798,0.530142307
91305.882688,-0.160603618,0.218142546,0.624125586,0.0371313579,-0.0123740053,0.643926919
91305.892716,-0.0398592235,0.558706992,0.61040335,0.0235010367,-0.068345122,0.688011825
91305.902743,-0.178493568,0.459562581,0.557584783,0.0108611416,-0.114206888,0.705351651
91305.912771,-0.354206675,0.314140549,0.729347125,-0.0658839718,-0.141772747,0.730933726
91305.922798,-0.416878966,0.292759688,0.96764384,-0.210251808,-0.157678202,0.765948951
91305.932826,-0.482466962,0.160548874,1.0732196,-0.375030369,-0.16046387,0.811484218
91305.942853,-0.445321326,0.125371981,1.17685767,-0.567889571,-0.139732227,0.853403449
91305.952880,-0.337398164,0.151329502,1.21069564,-0.751167238,-0.0928169116,0.864005208
91305.962908,-0.209270235,0.320980186,1.07259299,-0.879502594,-0.0383624621,0.782562256
91305.972935,-0.175911644,0.494348721,0.762735015,-0.896892488,-0.00850123633,0.641870916
91305.982963,-0.333334166,0.439615881,0.295634221,-0.819540143,-0.0150512811,0.483595252
91305.992990,-0.332606034,0.491155989,0.160654672,-0.855816126,-0.0374756306,0.280754805
91306.003018,-0.124439377,0.663326766,0.0252414088,-0.891522229,-0.110900044,0.124679446
91306.013045,-0.513953548,0.190497985,-0.550920064,-0.869588673,-0.200924218,0.0951316729
91306.023073,-0.451981953,-0.0523090648,-0.663195613,-0.804114342,-0.258059949,0.0824749991
91306.033100,-0.079502795,-0.0343742619,-1.11337275,-0.4931373,-0.281795889,0.0936323181
91306.043128,0.137057816,0.060117501,-1.03164197,-0.359722227,-0.240545928,0.105066061
91306.053155,0.49535271,0.425505413,-0.798292651,-0.187212795,-0.209761113,0.106098041
91306.063183,0.658451488,0.463155052,-1.04160866,-0.00276705297,-0.186122373,0.107045591
91306.073210,0.685999858,0.337358087,-1.0834271,0.23605004,-0.167069584,0.115321368
91306.083238,0.476329591,0.37971426,-0.636253246,0.251134217,-0.147422642,0.103854857
91306.093265,0.48704417,0.540322792,-0.513412464,0.272972405,-0.158224151,0.0642549843
91306.103293,0.574851121,0.275415645,-0.82031159,0.356879264,-0.188240916,0.0261528734
91306.113320,0.582285801,-0.107810697,-1.03995797,0.492348701,-0.230168119,0.0373115167
91306.123348,1.01304453,0.0228135971,-0.961467781,0.641270816,-0.265649945,0.0745912492
91306.133375,1.48222856,-0.0258400688,-0.776498167,0.742816031,-0.283603638,0.105296694
91306.143403,1.16608639,-0.825349073,-1.16215344,1.71953595,-0.352429837,0.264197916
91306.153430,0.546547548,-1.12650476,-0.465645335,2.14194918,-0.133133456,0.44432801
91306.163458,0.95372915,0.109042047,2.90729965,1.63885951,0.186289549,0.449194402
91306.173485,0.719372186,0.269551247,2.83324248,1.10182905,0.427348763,0.477039605
91306.183513,-0.360365855,-0.537359449,2.15628138,0.871561229,0.510189593,0.532899201
91306.193540,-0.828512505,-0.601191212,1.54158764,0.809235275,0.527874827,0.486117005
91306.203568,-0.795730545,-0.207980414,1.78071262,0.599590719,0.525705695,0.346598774
91306.213595,-0.638429713,0.0949227016,1.6907886,0.382228851,0.504730105,0.200265557
91306.223623,-0.750846424,-0.145689597,1.58722301,0.128679112,0.452865064,0.126622766
91306.233650,-0.512511094,-0.250969296,1.4839339,-0.062609084,0.388922006,0.0765646473
91306.243678,-0.228449969,-0.354069459,1.17759124,-0.162428617,0.339934766,0.0982020348
91306.253705,-0.070535462,-0.421234238,0.972011972,-0.209485352,0.349951714,0.0700913072
91306.263733,0.0981108301,-0.315103184,0.596481792,-0.0849532634,0.376275986,0.104141414
91306.273760,0.00579199087,-0.456615568,0.29724867,0.0871010497,0.447144836,0.13931191
91306.283788,0.177880478,-0.214742163,0.397658425,0.238173112,0.560169399,0.174701869
91306.293815,-0.218959964,-0.425603393,0.121473001,0.422758162,0.642720222,0.261642098
91306.303843,-0.314767449,-0.288402077,0.0878197378,0.536132932,0.72606355,0.294429332
91306.313870,-0.180274953,-0.0143722242,0.188699448,0.593027353,0.795176566,0.266494364
91306.323898,-0.0737801065,0.170120858,0.114828741,0.651997983,0.839781046,0.209118426
91306.333925,-0.00608087255,0.283901697,-0.00546411062,0.697449088,0.86131835,0.143925041
91306.343953,0.00543048235,0.300972513,-0.179996502,0.760855258,0.858969688,0.0884114504
91306.353980,0.0150466164,0.332580973,-0.316637846,0.834697783,0.848030508,0.0413491353
91306.364008,0.0945808659,0.408671548,-0.45548576,0.916712999,0.827799797,-0.00817980058
91306.374035,0.15200963,0.394439901,-0.60663786,1.05121839,0.78377372,-0.0589646846
91306.384063,0.0881661035,0.388694782,-0.798424168,1.21651995,0.742219925,-0.12681964
91306.394090,0.221815791,0.529038487,-0.744134359,1.36143434,0.682458282,-0.184342593
91306.404118,0.324236996,0.639575522,-0.641380672,1.44156086,0.635496676,-0.223409563
91306.414145,0.297811126,0.637469051,-0.394883699,1.34550273,0.654540122,-0.260425627
91306.424173,0.401298754,0.557236846,-0.679715371,1.47733557,0.616776764,-0.251405507
91306.434200,0.441430785,0.40288522,-1.19717273,1.62905824,0.541745126,-0.226222903
91306.444228,0.298256167,0.11812749,-1.30694535,1.76834989,0.448135287,-0.175488621
91306.454255,0.311970585,0.0789805977,-1.44033792,1.90335131,0.342307389,-0.0961498693
91306.464283,0.354866966,0.0984305636,-1.49784669,2.00830817,0.235100493,0.000192379579
91306.474310,0.286426467,-0.0642716889,-1.44756846,1.98474288,0.14205125,0.111903727
91306.484338,0.269258182,-0.291110606,-0.954549965,1.63322449,0.0736381784,0.213233069
91306.494365,0.264936812,-0.477891945,-0.297687646,1.10534394,-0.00281345588,0.251913905
91306.504393,0.160561879,-0.465555026,-0.268112007,0.714131773,-0.1211401,0.180144355
91306.514420,0.031131855,-0.198020234,-0.546168486,0.546816528,-0.288689405,0.115852721
91306.524448,-0.045377238,0.0293102656,-0.645694444,0.444307446,-0.479611963,0.112465978
91306.534475,-0.223256601,0.0857645588,-0.450522585,0.30728969,-0.654064476,0.131743535
91306.544503,-0.303985066,0.233652396,-0.0156657712,0.112972938,-0.782184362,0.127612442
91306.554530,-0.289249123,0.463196188,0.502235821,-0.140077978,-0.855172515,0.0826516226
91306.564558,-0.284652077,0.577952156,0.733862556,-0.347592831,-0.902338445,0.0302731022
91306.574585,-0.348902322,0.622722149,0.759290428,-0.490819752,-0.938021064,-0.0173138566
91306.584613,-0.39579654,0.611112959,0.863460996,-0.606333554,-0.954723597,-0.0697371215
91306.594640,-0.370482541,0.528472962,1.06415659,-0.726972878,-0.946910203,-0.12545152
91306.604668,-0.288611939,0.422950687,1.26771926,-0.871301293,-0.927882433,-0.1793001
91306.614695,-0.297752181,0.266859962,1.29423492,-0.992656231,-0.915260077,-0.219525546
91306.624723,0.128833693,0.390949575,1.01981183,-1.06630301,-0.95365572,-0.278216034
91306.634750,0.259873062,0.265639772,0.950727192,-1.18264639,-0.985638142,-0.299062729
91306.644778,0.259916042,0.0486632009,0.902659034,-1.27389002,-1.00895441,-0.281664014
91306.654806,0.347043834,0.0209819978,0.779644064,-1.33863235,-1.02585876,-0.250776142
91306.664833,0.337878421,0.0114861474,0.61465107,-1.36788583,-1.04518878,-0.219392389
91306.674861,0.255988914,-0.0985109354,0.456116459,-1.33516753,-1.05633807,-0.187858433
91306.684888,0.148485255,-0.23448271,0.37601241,-1.28744233,-1.04438186,-0.157211035
91306.694916,0.123616735,-0.269088451,0.400361254,-1.2352252,-0.990929306,-0.129412964
91306.704943,0.260819439,-0.329152167,0.351466583,-1.15908492,-0.9264009,-0.101674013
91306.714971,0.358367521,-0.381853099,0.242577753,-1.13169432,-0.854781032,-0.0869792253
91306.724998,0.482177002,-0.332630365,0.237083248,-1.12625587,-0.787143707,-0.0760112628
91306.735026,0.557937396,-0.272623494,0.129582658,-1.07699907,-0.721059203,-0.0592698306
91306.745053,0.548815712,-0.384963194,-0.0170721308,-0.992458582,-0.665678263,-0.0470347367
91306.755081,0.542566151,-0.39268049,-0.122866501,-0.901763022,-0.614674449,-0.0342374481
91306.765108,0.482309981,-0.321102424,-0.167319975,-0.842173517,-0.55769372,-0.026253026
91306.775136,0.392096261,-0.238243231,-0.151668817,-0.802000761,-0.49816379,-0.0275731534
91306.785163,0.328249519,-0.122910048,-0.129923434,-0.759644806,-0.439426988,-0.027057033
91306.795191,0.194652073,-0.21275983,-0.133833301,-0.693048716,-0.379584432,-0.020465441
91306.805218,0.171757666,-0.298491218,-0.165313896,-0.642201781,-0.324258596,-0.00925166998
91306.815246,0.264743116,-0.249651929,-0.126765262,-0.635805964,-0.275744587,-0.00918695424
91306.825273,0.29146921,-0.189809601,-0.0920756416,-0.629307806,-0.233792603,-0.00959628168
91306.835301,0.252803087,-0.329306627,-0.099655137,-0.607294142,-0.211393028,-0.0136999479
91306.845328,0.161370712,-0.464531821,-0.107735568,-0.584381878,-0.197596252,-0.0156222163
91306.855356,0.0876579713,-0.597035773,-0.0751911423,-0.565353334,-0.191507459,-0.0133553343
91306.865383,0.0348931803,-0.705077191,-0.0157376674,-0.563463271,-0.193491787,-0.00428833626
91306.875411,0.0963274539,-0.68856116,0.0986591117,-0.603303134,-0.191375643,0.00287024071
91306.885438,0.164859138,-0.642164224,0.219148362,-0.678321421,-0.193002298,0.00157754216
91306.895466,0.18567747,-0.582837809,0.310966814,-0.789910793,-0.194628164,-0.0070018312
91306.905493,0.198232708,-0.517571775,0.43806993,-0.918040037,-0.197621822,-0.0191277377
91306.915521,0.208633836,-0.518311122,0.564213261,-1.0268774,-0.20414044,-0.0161138363
91306.925548,0.156695413,-0.56747935,0.598163462,-1.07964766,-0.210851073,-0.00574881397
91306.935576,0.0812863905,-0.629156493,0.584730564,-1.09092772,-0.211174905,0.00551848812
91306.945603,0.0494334546,-0.631313817,0.63862582,-1.1174978,-0.203745753,0.0117774494
91306.955631,0.113963648,-0.495510056,0.787436326,-1.19579363,-0.188803822,0.00446627336
91306.965658,0.220905143,-0.333759661,0.98801735,-1.32946897,-0.152774185,-0.00300415978
91306.975686,0.278349762,-0.314539047,1.11481944,-1.49492359,-0.116383962,-0.0112141529
91306.985713,0.258154823,-0.38302302,1.10780284,-1.64644265,-0.0804360807,-0.0166161098
91306.995741,0.194202137,-0.450932152,1.0465011,-1.77829647,-0.0443164259,-0.0228620209
91307.005768,0.11350816,-0.437464731,0.900206965,-1.90430951,-0.0053770151,-0.0510547757
91307.015796,0.119587918,-0.295565832,0.699431294,-2.01717973,0.0315098986,-0.0968084186
91307.025823,0.126898825,-0.142185242,0.559864418,-2.0952754,0.067865774,-0.114370629
91307.035851,0.105893885,-0.0321918124,0.330764571,-2.07202935,0.103703134,-0.116571739
91307.045878,0.0217635035,-0.145021781,-0.0264712428,-1.92576349,0.134354264,-0.102032207
91307.055906,-0.00914718305,-0.207160549,-0.232398889,-1.68909049,0.162685499,-0.0702673569
91307.065934,0.0528873944,-0.19404607,-0.351372475,-1.43042505,0.191010609,-0.025044214
91307.075961,0.201474174,-0.138553607,-0.356324544,-1.2183466,0.225387231,0.0168928504
91307.085989,0.409889545,-0.0171799751,-0.248452198,-1.08622909,0.257660478,0.056553442
91307.096016,0.573305207,-0.0161320735,-0.176610951,-0.998091161,0.294956982,0.102248229
91307.106044,0.679871292,-0.198414494,-0.231879249,-0.870359063,0.31999895,0.160900623
91307.116071,0.713874684,-0.432322619,-0.351697469,-0.683656275,0.322824299,0.237268358
91307.126099,0.642389703,-0.497871634,-0.500959225,-0.481850475,0.313433737,0.317092091
91307.136126,0.58495692,-0.358082932,-0.591803863,-0.317628533,0.304752618,0.385606974
91307.146154,0.538667463,-0.253896874,-0.548411881,-0.243206486,0.277564406,0.440033734
91307.156181,0.362664122,-0.291832052,-0.628246465,-0.219278514,0.239692405,0.482304484
91307.166209,0.143749057,-0.251696149,-0.780982035,-0.190284416,0.194071919,0.508823991
91307.176236,-0.0256654063,-0.115360802,-0.904155995,-0.139146671,0.148552909,0.512163877
91307.186264,-0.101200467,0.0634016281,-0.896077318,-0.110207684,0.103693813,0.489453465
91307.196291,-0.106360699,0.202804692,-0.812151665,-0.118134052,0.0567713119,0.444391727
91307.206319,-0.0927584363,0.307236542,-0.691088998,-0.146095648,0.00959847216,0.380749613
91307.216346,-0.080038217,0.432211706,-0.651101856,-0.152119458,-0.0382649228,0.304392546
91307.226374,-0.132775828,0.460898286,-0.724070646,-0.110121936,-0.0868364573,0.219265386
91307.236401,-0.160657157,0.427678154,-0.737169197,-0.049004782,-0.136659935,0.144270241
91307.246429,-0.143235116,0.337848538,-0.732816262,-0.00352039025,-0.191375375,0.0827813148
91307.256456,-0.0595183569,0.315162951,-0.622686493,-0.0067244391,-0.242097676,0.0407102965
91307.266484,-0.0265644741,0.295181508,-0.543625816,-0.0174625721,-0.288992733,0.0238556825
91307.276511,-0.00375730671,0.277959448,-0.530956304,0.00249382644,-0.334977269,0.0253947228
91307.286539,0.0012511691,0.284813844,-0.484523638,0.0369897522,-0.367607921,0.0283316597
91307.296567,0.0329721491,0.342128991,-0.368901117,0.0578678697,-0.383799672,0.0277399048
91307.306594,0.0379264106,0.293525266,-0.289101604,0.0733746588,-0.39708513,0.0213981196
91307.316622,0.0458820457,0.245663298,-0.153457454,0.0734918341,-0.40403676,0.0197706614
91307.326649,0.04186375,0.285260857,-0.0405617275,0.0640594512,-0.402295858,0.0204479024
91307.336677,0.0456812625,0.350585416,0.0872825621,0.044126492,-0.385468423,0.0134339351
91307.346704,0.0381653339,0.415908221,0.150798464,0.00768672395,-0.370509446,0.00676245056
91307.356732,0.0380741485,0.502326568,0.158901107,-0.0140547901,-0.357905775,0.00229100324
91307.366759,-0.0491240964,0.534466358,0.0792167446,0.0331244394,-0.343050122,0.00531981606
91307.376787,-0.118730424,0.579955751,0.0248170459,0.137277201,-0.332174033,0.0113854315
91307.386814,-0.125602502,0.685525665,0.11522037,0.257023305,-0.31682837,0.0137207583
91307.396842,-0.142655198,0.731438836,0.271087808,0.339783967,-0.291837275,0.00492460327
91307.406869,-0.176936237,0.79739541,0.483912228,0.346850663,-0.257516295,-0.0135894259
91307.416897,-0.208624338,0.855395032,0.662659022,0.312385112,-0.225560233,-0.0359288193
91307.426924,-0.237936357,0.893741276,0.748190941,0.278172016,-0.196641773,-0.0626163557
91307.436952,-0.339755102,0.891055252,0.73432316,0.27495119,-0.165896639,-0.0942254141
91307.446979,-0.466984328,0.960779653,0.708870738,0.279823154,-0.132091805,-0.139175579
91307.457007,-0.53114905,1.05797337,0.764770905,0.285509288,-0.0833743438,-0.193695009
91307.467034,-0.536551932,1.11800245,0.789807146,0.304591894,-0.0276447702,-0.258495569
91307.477062,-0.527463493,1.15615346,0.798181592,0.354511768,0.0339703895,-0.317326933
91307.487090,-0.50045639,1.15639575,0.776549605,0.41785115,0.102963433,-0.377603054
91307.497117,-0.446538629,1.10161933,0.778746823,0.464989096,0.183673456,-0.441824406
91307.507145,-0.43252121,1.01150607,0.79064652,0.521741807,0.258514673,-0.499341458
91307.517172,-0.401023517,0.821392225,0.75471479,0.589016199,0.323520303,-0.531543612
91307.527200,-0.314488266,0.655371496,0.747906864,0.638186932,0.381283224,-0.544463158
91307.537227,-0.246707693,0.535199202,0.771630854,0.648174345,0.432655066,-0.54796207
91307.547255,-0.14901991,0.441030241,0.762206607,0.614868045,0.468075901,-0.542756557
91307.557282,-0.101269879,0.416624991,0.71948098,0.577590466,0.496012449,-0.541864991
91307.567310,-0.110049544,0.359458458,0.615045038,0.603767157,0.529160023,-0.542446613
91307.577337,-0.179091662,0.306635069,0.468696539,0.676748693,0.566121221,-0.556172013
91307.587365,-0.17572014,0.26523689,0.414900652,0.760964274,0.615083158,-0.602491021
91307.597392,-0.090149642,0.22952969,0.397266211,0.820137322,0.668482482,-0.678339243
91307.607420,0.00111585229,0.0728814771,0.3906465,0.862753987,0.723314047,-0.747653008
91307.617447,0.0447778839,-0.155681268,0.400659945,0.887864947,0.757739663,-0.787948489
91307.627475,0.103536362,-0.33329197,0.438119615,0.903270781,0.778090775,-0.791812778
91307.637502,0.162712043,-0.601519567,0.784025056,0.809898794,0.893878341,-0.681370139
91307.647530,0.30707799,-0.879274578,0.480552397,0.647555113,0.761257172,-0.583034039
91307.657558,0.310195976,-0.908059578,0.253512404,0.440749258,0.673638344,-0.511875868
91307.667585,0.589680807,-0.845331246,0.327623935,0.236526608,0.590720057,-0.462123007
91307.677613,0.996109983,-0.811136204,0.0953127239,0.0581683144,0.496918201,-0.425323457
91307.687640,0.803751062,-0.676042893,-0.191427996,-0.0860804766,0.399140239,-0.385181099
91307.697668,0.549001006,-0.502744282,-0.479125579,-0.179049835,0.27845189,-0.344975352
91307.707695,0.451015044,-0.427189238,-0.74553955,-0.217245683,0.118254244,-0.33493337
91307.717723,0.443625884,-0.3478226,-1.02818979,-0.167993441,-0.0346048176,-0.343781173
91307.727750,0.511364957,-0.150065328,-1.23611299,-0.000660646358,-0.0634391233,-0.358421385
91307.737778,0.373136782,0.0118962626,-1.11530342,0.161518142,-0.00552895386,-0.442623883
91307.747805,0.100733799,0.0659459423,-0.438930346,0.307437807,0.290924549,-0.56820631
91307.757833,-0.0084261753,0.0289363178,-0.4419646,0.520719945,0.489126325,-0.678393245
91307.767860,0.0561547257,-0.097221407,-0.3251479,0.704097271,0.585027039,-0.755439043
91307.777888,0.259027807,-0.289308379,-0.351982715,0.810454547,0.4759655,-0.782103896
91307.787916,0.5392986,-0.439790945,-0.337453839,0.834824085,0.312592834,-0.802225947
91307.797943,0.80990089,-0.421622288,0.103093295,0.761550665,0.22033374,-0.83278954
91307.807971,0.952319868,-0.539028478,0.617471973,0.525571465,0.146523967,-0.819207668
91307.817998,0.892328925,-0.807454593,1.01667938,0.181944057,0.0936069489,-0.738925099
91307.828026,0.810453994,-1.05759906,1.18918348,-0.198238164,0.0530973375,-0.546550512
91307.838053,1.17444067,-1.51841923,0.732909201,-0.513881385,-0.175316393,-0.0448112637
91307.848082,0.79200093,-1.4779069,0.11405308,-0.752364218,-0.329526991,0.401480466
91307.858109,0.602220701,-0.571704128,0.295637728,-1.02877522,-0.364945173,0.59580338
91307.868137,0.715193073,0.327320458,0.244971955,-1.25934887,-0.372498691,0.521403432
91307.878164,0.552213757,0.915506971,-0.333580797,-1.3018105,-0.403192699,0.333775997
91307.888192,0.271621331,0.966192106,-0.989431309,-1.11969614,-0.424740851,0.156342626
91307.898219,0.044678369,0.865497543,-1.65072547,-0.654561222,-0.408842862,0.0244037621
91307.908247,-0.138542282,0.857103955,-2.1153666,-0.0448811054,-0.425283343,-0.0409797728
91307.918274,-0.204166993,0.896962722,-2.00859257,0.456089586,-0.511601985,-0.0856998414
91307.928302,-0.162216807,0.965582669,-1.52475867,0.723578274,-0.665319145,-0.116356552
91307.938330,0.06730923,0.980386855,-0.888623494,0.783652008,-0.807587862,-0.162146941
91307.948357,0.398691421,0.82836053,-0.289392696,0.769578278,-0.846818328,-0.227731273
91307.958385,0.631311552,0.488621612,0.235330266,0.743736029,-0.773141205,-0.269828945
91307.968412,0.573533974,0.0238917112,0.68991937,0.708361506,-0.655983686,-0.234638721
91307.978440,0.314867621,-0.457517266,1.07031394,0.590565383,-0.543666482,-0.128327727
91307.988467,0.157503515,-0.524001407,1.3720985,0.464789093,-0.424380273,-0.0477396734
91307.998495,0.189204913,-0.444524477,1.57394385,0.339615196,-0.290733516,-0.0351655595
91308.008522,0.230337134,-0.481759507,1.65499307,0.234028026,-0.168969542,-0.033025708
91308.018550,0.183499834,-0.537380857,1.67133922,0.145996705,-0.0829244107,-0.00249469839
91308.028577,0.106222094,-0.406803854,1.56321085,0.120810121,-0.00670021214,0.0288714804
91308.038605,0.0926053646,-0.0179755459,1.45441029,0.090332374,0.0838384777,0.0056236824
91308.048633,0.227978442,0.247980946,1.45502521,0.0727605745,0.20425038,-0.0369016752
91308.058660,-0.279007934,0.499353324,1.40861183,0.0699285641,0.36998421,-0.0868939981
91308.068688,-0.593776771,0.652027081,1.23534493,0.125889301,0.545914233,-0.183131054
91308.078715,-0.437930522,0.660089537,1.07672381,0.206963912,0.691483438,-0.260435164
91308.088743,-0.266217791,0.432052497,0.904603738,0.273060381,0.801241577,-0.287456661
91308.098770,-0.0954180109,0.132856327,0.813548672,0.278433055,0.888354421,-0.262587249
91308.108798,0.122846847,-0.0615345327,0.785194684,0.12945208,0.967950702,-0.197012514
91308.118825,0.367935998,-0.0298642691,0.655063745,-0.0506662913,0.961521029,-0.112552762
91308.128853,0.577950183,0.0639066276,0.391525037,-0.167789981,0.944707155,-0.0678675771
91308.138880,0.585869432,0.189012076,0.0922100817,-0.184062958,0.8844015,-0.0739278719
91308.148908,-0.168359401,-0.286772029,-0.683399613,0.0224699713,0.769900978,-0.101993859
91308.158936,-0.514644234,-0.81704594,-1.72604989,0.346330345,0.59524101,-0.125435799
91308.168963,-0.0659389645,-0.206920329,-1.33999013,0.518481016,0.416164219,-0.161626026
91308.178991,0.0568582708,-0.0598088643,-0.804116242,0.548615217,0.311558455,-0.214897767
91308.189018,0.104920802,-0.122554467,-0.424914681,0.457157522,0.25860548,-0.226306751
91308.199046,0.19895167,-0.208497442,-0.217737911,0.343546808,0.222291961,-0.208612978
91308.209073,0.337896249,-0.140978588,-0.249711258,0.286581516,0.20958069,-0.165771767
91308.219101,0.386345077,0.0621041356,-0.334164735,0.255903244,0.205114037,-0.127146617
91308.229128,0.229830683,0.215336713,-0.359559873,0.206652597,0.197704852,-0.105846122
91308.239156,0.0346671896,0.277255135,-0.383614117,0.15018639,0.191430449,-0.103896156
91308.249183,-0.116680944,0.280316514,-0.275708454,0.0723541752,0.207926333,-0.11542578
91308.259211,0.0964863342,0.319478439,-0.299106865,-0.0793301612,0.107628495,-0.121328935
91308.269238,0.299989603,0.439339804,-0.421591089,-0.255619675,-0.0186942909,-0.122152656
91308.279266,0.187905229,0.376212682,-0.585550064,-0.372986794,-0.0753884614,-0.1188775
91308.289294,0.108111159,0.21569424,-0.84764851,-0.388139635,-0.104228899,-0.098096855
91308.299321,0.132821457,0.0252446967,-1.07802788,-0.283644408,-0.130414426,-0.0524902195
91308.309349,0.266001847,-0.0829729096,-1.1808406,-0.0889329836,-0.161530271,0.0107223038
91308.319376,0.2916126,-0.0207452025,-1.1499492,0.124997675,-0.196891189,0.0630401075
91308.329404,0.207300469,0.0933219702,-0.941378933,0.256081671,-0.241403535,0.0920933262
91308.339431,0.125059993,0.152980567,-0.504062452,0.253985226,-0.275633663,0.103351571
91308.349459,0.027301337,0.211786912,-0.10866145,0.175296798,-0.290204883,0.0999400616
91308.359486,-0.0296346753,0.278831244,0.12649229,0.103770688,-0.27571249,0.0912360549
91308.369514,-0.0300965206,0.356646908,0.299878434,0.0703621283,-0.222463921,0.078504011
91308.379541,-0.107290125,0.449324753,0.399297424,0.0489124991,-0.177341461,0.061769776
91308.389569,-0.20912257,0.519368559,0.38158758,0.0328088962,-0.150485605,0.030638488
91308.399597,-0.173262846,0.523715795,0.463078115,0.0205442403,-0.125019133,-0.0132914186
91308.409624,-0.102337179,0.46846273,0.580191167,0.0104130441,-0.0952519104,-0.0562324971
91308.419652,-0.0362943524,0.378405479,0.6496236,0.00277429889,-0.0560456589,-0.084651351
91308.429679,0.0385188966,0.307110285,0.754644648,-0.0111268694,-0.00529805804,-0.107723117
91308.439707,0.099353341,0.248380485,0.902893427,-0.0798904896,0.0644037947,-0.121380344
91308.449734,0.222398194,0.21696468,0.969090531,-0.174905688,0.129582793,-0.121623755
91308.459762,0.196303274,0.210956471,0.761871676,-0.218649164,0.178151667,-0.134362981
91308.469789,0.14748112,0.208691412,0.478763175,-0.220423371,0.189299926,-0.157130614
91308.479817,0.178929019,0.188455556,0.263352246,-0.195598438,0.184013814,-0.183997646
91308.489845,0.261579866,0.120146794,0.210288764,-0.186081767,0.166073769,-0.202083021
91308.499872,0.288642352,0.0476668651,0.267489492,-0.208688021,0.135360867,-0.207432792
91308.509900,0.330038558,-0.0231638992,0.265250773,-0.223591596,0.106944412,-0.205463648
91308.519927,0.261620782,-0.0466840965,0.183214295,-0.204393938,0.0829237625,-0.195139095
91308.529955,0.249695549,-0.133922486,0.164047822,-0.155898303,0.0791226327,-0.168743178
91308.539982,0.329444026,-0.194943804,0.170725984,-0.107490823,0.0824326724,-0.139688894
91308.550010,0.422116026,-0.230417963,0.21359482,-0.0779965818,0.0791551247,-0.119358048
91308.560037,0.440081928,-0.251214375,0.130709616,-0.0606700554,0.0652353168,-0.0940785259
91308.570065,0.388489688,-0.235147055,0.0217003752,-0.0352363363,0.039100647,-0.0697406977
91308.580093,0.44054633,-0.0976535148,-0.0778173992,0.0392261781,0.0317934677,-0.0533060618
91308.590120,0.335125762,0.0301091975,0.205433141,-0.031274084,0.0333181284,-0.0418909565
91308.600148,0.271804871,0.040059815,0.366444371,-0.175045371,0.0435012542,-0.0355707407
91308.610175,0.288524096,0.0169838452,0.407907432,-0.361393392,0.0597305596,-0.0357249379
91308.620203,0.235910295,0.141866495,0.289421338,-0.476368994,0.0637436733,-0.0496828333
91308.630230,0.127014232,0.155906473,0.0623749154,-0.484483898,0.0794153139,-0.0733522028
91308.640258,0.044798196,0.0178112222,-0.114378074,-0.435483336,0.0860226154,-0.0721098483
91308.650285,0.0961883742,0.0017248693,-0.279893631,-0.365474433,0.0595433377,-0.0463650674
91308.660313,0.0433720357,0.059292768,-0.486322212,-0.240357533,0.0174014773,-0.0316020995
91308.670341,-0.119210463,0.185629685,-0.600952215,-0.121104635,-0.0312459506,-0.0370218977
91308.680368,-0.188976585,0.376679131,-0.539717118,-0.0593770929,-0.0708602071,-0.0626753271
91308.690396,-0.201584904,0.47690582,-0.329197468,-0.0693218708,-0.0897433534,-0.101181969
91308.700423,-0.27222379,0.369821593,-0.159362879,-0.100685649,-0.0975677148,-0.132191032
91308.710451,-0.293797543,0.166183665,-0.183684835,-0.0945609137,-0.0982090086,-0.147074372
91308.720478,-0.262899351,-0.0855606337,-0.198231247,-0.0773979053,-0.090413399,-0.147293821
91308.730506,-0.228958028,-0.32758616,-0.0940846434,-0.094059974,-0.0783894956,-0.136758342
91308.740533,-0.162034071,-0.445845642,0.0900181246,-0.178988174,-0.0566913895,-0.118125275
91308.750561,0.034252106,-0.293343918,0.0540209285,-0.208860323,-0.040253561,-0.095633015
91308.760589,0.0945735594,-0.0479998051,0.27077392,-0.398483515,-0.0067528598,-0.127810925
91308.770616,0.0670178093,0.521764405,0.132207746,-0.506824374,-0.0153327659,-0.200236395
91308.780644,-0.0493023756,0.716002928,-0.239251824,-0.505404353,-0.0211411212,-0.230420932
91308.790671,-0.0913746903,0.556008437,-0.439404978,-0.350777239,-0.0379248932,-0.268769652
91308.800699,0.151302541,0.597826339,-0.503714077,-0.208090931,-0.0583782382,-0.282323539
91308.810726,0.145705014,0.508867916,-0.414395625,-0.121580012,-0.0897263065,-0.286038905
91308.820754,0.125509819,0.478304947,-0.462371428,-0.00695010275,-0.1192059,-0.291650474
91308.830782,0.233720858,0.49660103,-0.440665792,0.0697566569,-0.146631137,-0.303488225
91308.840809,0.264651967,0.498307578,-0.147721541,0.0236821081,-0.165244505,-0.316446096
91308.850837,0.274718457,0.47086844,0.0290583367,-0.0657612234,-0.174139455,-0.332180589
91308.860864,0.248750231,0.4319806,-0.0515799651,-0.107176304,-0.204120263,-0.352973461
91308.870892,0.113557406,0.336121422,-0.269167654,-0.0715866238,-0.260205626,-0.357869416
91308.880919,0.0771514461,0.185538609,-0.466489969,0.0589580722,-0.31716162,-0.331622124
91308.890947,0.133238696,0.0171229842,-0.474049591,0.210898861,-0.379999936,-0.284525692
91308.900974,0.15995931,-0.122111591,-0.29976153,0.36074695,-0.438468039,-0.220657513
91308.911002,0.230878402,-0.18778679,-0.14092472,0.488083065,-0.462737679,-0.167309865
91308.921030,0.340693113,-0.213165562,0.145875036,0.517410338,-0.461643934,-0.114052773
91308.931057,0.339019846,-0.250369284,0.337940746,0.508877575,-0.457004189,-0.0607509278
91308.941085,0.281922287,-0.381109733,0.44863341,0.466318399,-0.438671768,-0.0121266674
91308.951112,0.228089428,-0.405510271,0.499713024,0.435707748,-0.415916383,0.021347668
91308.961140,0.149806823,-0.380924951,0.472470797,0.426776558,-0.395480871,0.0311038923
91308.971167,0.0996597401,-0.260063525,0.643359863,0.365030378,-0.358129561,0.00474898471
91308.981195,0.0466834252,-0.135365698,0.997336383,0.198908523,-0.291577935,-0.0380293727
91308.991223,-0.00823788619,-0.0941628962,1.21812725,0.0141115068,-0.220057681,-0.0638215542
91309.001250,0.030891032,-0.164548136,1.13207628,-0.108624533,-0.142918423,-0.0665494353
91309.011278,0.00612586247,-0.307269933,1.02415191,-0.199001566,-0.0761684179,-0.058098156
91309.021305,-0.0344669908,-0.388227091,0.859973739,-0.242523476,-0.0254959222,-0.0401311368
91309.031333,0.0271516263,-0.413202652,0.629213264,-0.234078854,0.0252064038,-0.0121636856
91309.041360,0.144359152,-0.282906841,0.496525042,-0.225454479,0.0731390417,0.00513993669
91309.051388,0.109158002,-0.0554302839,0.325939343,-0.200419694,0.106644005,0.00550638745
91309.061416,0.0672889909,0.172151725,0.0793546917,-0.16981332,0.127900824,-0.0161144864
91309.071443,0.0371511884,0.337440651,-0.066304656,-0.203219742,0.12461102,-0.0630564243
91309.081471,0.0303958689,0.450968575,-0.223605926,-0.254941255,0.0851126164,-0.107963443
91309.091498,0.0440312302,0.489770599,-0.503146506,-0.257408142,0.0424588956,-0.150061637
91309.101526,0.106067707,0.421152771,-0.606551935,-0.29242152,-0.0113976793,-0.165652841
91309.111553,0.067210665,0.0996754126,-0.636274873,-0.291515797,-0.0524937175,-0.149374008
91309.121581,0.297740838,0.0565154488,-0.934525414,-0.14809604,-0.108298123,-0.15689078
91309.131609,0.22868301,0.277793188,-0.917021321,-0.0753824264,-0.184824854,-0.183500022
91309.141636,-0.0551942832,0.377105284,-0.765124541,0.0155589348,-0.23980689,-0.217365041
91309.151664,0.0289251388,0.412475324,-0.658334145,0.104394533,-0.287240207,-0.230706945
91309.161691,0.194533488,0.274018565,-0.322940161,0.147304177,-0.30221647,-0.23355414
91309.171719,0.175358905,0.00450129347,-0.0334761531,0.143483877,-0.28386277,-0.215635315
91309.181746,0.120022948,-0.349185997,0.171624979,0.0911245346,-0.235366061,-0.188852713
91309.191774,0.133748472,-0.611140542,0.330493353,0.0484827943,-0.193734467,-0.155417785
91309.201802,0.148953713,-0.693825291,0.271815538,0.108264104,-0.178256705,-0.125461489
91309.211829,0.108295247,-0.605069222,0.226709738,0.224043429,-0.167958796,-0.118202776
91309.221857,0.0288974471,-0.436090812,0.486463667,0.256584853,-0.149461538,-0.123462513
91309.231884,0.0536300295,-0.405443818,0.840998404,0.203641489,-0.11005155,-0.112279102
91309.241912,0.187150611,-0.312548896,0.960844097,0.214577764,-0.0466065332,-0.103429154
91309.251939,0.257141408,-0.0503107672,1.04615507,0.263767689,0.0310171563,-0.0958684385
91309.261967,0.218452343,0.304114008,1.17568687,0.346436977,0.121579811,-0.0992541164
91309.271995,0.0739265292,0.59648245,1.3012486,0.374905378,0.204751924,-0.128719062
91309.282022,-0.0254845699,0.699378176,1.44465403,0.310439825,0.287305951,-0.163874924
91309.292050,0.0583566196,0.707423024,1.48503573,0.212217659,0.381609261,-0.20584394
91309.302077,-0.0352049497,0.671622958,1.26123048,0.196635246,0.465410709,-0.237423703
91309.312105,-0.133644939,0.507995298,0.747287855,0.308946341,0.525703549,-0.258151352
91309.322133,-0.110557128,0.255491541,0.467651999,0.391847879,0.543734789,-0.263483793
91309.332160,-0.012706483,-0.0246167193,0.286937704,0.396444499,0.526416242,-0.257356673
91309.342188,0.274034749,-0.294123305,0.117665425,0.295916826,0.484824061,-0.24966386
91309.352215,0.316204204,-0.530489125,-0.0219569803,0.0883015841,0.417810142,-0.231946379
91309.362243,0.180134668,-0.730018229,-0.310438991,-0.121786937,0.324389935,-0.195399553
91309.372271,0.148651588,-0.871183334,-0.756937727,-0.234847978,0.241273984,-0.146817371
91309.382298,0.120219786,-1.02772531,-1.11264151,-0.298430949,0.148708105,-0.0878536552
91309.392326,0.129570456,-1.13509533,-1.33731185,-0.326330751,0.0652848482,-0.0282228142
91309.402353,0.177459457,-1.19780167,-1.51197985,-0.365225166,-0.0421606526,0.046711348
91309.412381,0.248233368,-1.05034375,-1.66887955,-0.324472666,-0.131279081,0.111261308
91309.422408,0.370906977,-0.553131713,-1.60708448,-0.274250507,-0.187052861,0.149312288
91309.432436,0.4163518,0.191981009,-1.35139941,-0.368993789,-0.256849229,0.150468633
91309.442464,0.330698812,0.916388284,-1.43586107,-0.264476717,-0.343008399,0.0822371244
91309.452491,0.216229918,1.67798465,-1.76262634,0.0728397965,-0.412759244,-0.00466529001
91309.462519,-0.00533142416,1.87401225,-1.34752286,0.280126154,-0.47130698,-0.0999856889
91309.472546,0.0930878143,1.60761859,-0.699684392,0.351123095,-0.504006088,-0.186875582
91309.482574,0.0889796484,1.10041382,-0.281002469,0.401165217,-0.512233913,-0.219729662
91309.492602,0.0927216844,0.54702397,0.0543517679,0.456328392,-0.507020354,-0.199974015
91309.502629,0.199161586,0.11359698,0.370935838,0.523849964,-0.470403194,-0.155724257
91309.512657,0.134149016,-0.175335743,0.731794518,0.539499998,-0.401132524,-0.104160659
91309.522684,0.114276806,-0.297113536,1.1326117,0.472344369,-0.327518761,-0.0731361657
91309.532712,0.151704327,-0.313806349,1.37553783,0.344456464,-0.255399823,-0.067543529
91309.542740,0.0669525985,-0.321245924,1.47515614,0.189977661,-0.162787065,-0.0721553192
91309.552767,0.144625621,-0.359969111,1.42786189,0.0491736792,-0.0855988115,-0.0660047531
91309.562795,0.182862851,-0.330154622,1.08957978,0.00503870938,-0.043154411,-0.0563705042
91309.572822,0.170218912,-0.0264509855,0.706571229,0.0722883195,-0.0163813867,-0.0731505454
91309.582850,-0.0199584999,0.0757593889,0.892797565,-0.0424651615,0.0070459093,-0.0864892527
91309.592878,0.0803336198,0.13380897,0.570973257,0.0280513503,0.0436880738,-0.126656383
91309.602905,0.0259289526,0.282444429,0.487561983,0.0532509796,0.0732406378,-0.15939942
91309.612933,-0.0154999131,0.181931653,0.558894696,0.0806144252,0.110101983,-0.16934073
91309.622961,0.179466194,0.0451463884,0.442004347,0.117509328,0.15816167,-0.151769206
91309.632988,0.200511759,-0.128488067,0.373770184,0.13232635,0.195286125,-0.121538319
91309.643016,0.179103352,-0.275095711,0.23373043,0.124309182,0.196137011,-0.0825834647
91309.653043,0.183425307,-0.298753777,0.0802846661,0.105270773,0.189063385,-0.0405404046
91309.663071,0.233837836,-0.230799966,-0.101695118,0.132285073,0.189128101,-0.00410143938
91309.673099,0.172411161,-0.124802255,-0.218013805,0.103780463,0.159515351,0.0060417424
91309.683126,0.0203242645,-0.0251679051,-0.335995457,0.064414151,0.100594498,0.00169706158
91309.693154,0.0824471048,0.0604768997,-0.453386742,0.0453744121,0.046429798,-0.0137564633
91309.703181,0.10309914,0.15010544,-0.477606991,0.0298524462,0.00298671937,-0.0306134727
91309.713209,0.116033586,0.245005784,-0.532684735,0.0358168595,-0.0381726995,-0.0529113263
91309.723237,0.136206314,0.337523799,-0.516945899,0.0634463578,-0.0901035443,-0.0749420524
91309.733264,0.0553552459,0.4058821,-0.598023761,0.19024691,-0.133911207,-0.104403004
91309.743292,0.0286550166,0.401525402,-0.459961444,0.299080729,-0.146007553,-0.130344868
91309.753319,0.106742026,0.344122869,-0.051658291,0.317994237,-0.127525479,-0.153751656
91309.763347,0.100389954,0.327601796,0.299554024,0.271576136,-0.107328601,-0.168656036
91309.773375,0.1201324,0.373444386,0.460600911,0.176950023,-0.0869988352,-0.181893274
91309.783402,0.254770734,0.244822025,0.285786196,0.223795027,-0.0625973493,-0.167413935
91309.793430,0.223830821,0.0682944051,0.03944003,0.333281845,-0.0309065338,-0.148030654
91309.803458,-0.00698123719,-0.0476836153,0.189642282,0.323769033,-0.0284750666,-0.157417759
91309.813485,0.00969356489,-0.227274605,0.343058235,0.236724138,-0.0462103859,-0.147740096
91309.823513,0.148646839,-0.302466222,0.403869554,0.181736246,-0.0338253602,-0.133237332
91309.833540,0.139448072,-0.440551956,0.417397729,0.189785123,0.014287577,-0.0883750394
91309.843568,0.0778061471,-0.602337825,0.532494181,0.144743875,0.060457468,-0.0342849046
91309.853596,0.231879688,-0.636242359,0.53805766,0.0814517215,0.0931653455,0.0288999211
91309.863623,0.228217512,-0.562678672,0.534289832,-0.0199004635,0.124528065,0.0704481602
91309.873651,0.0308967311,-0.307410145,0.434288074,-0.105953321,0.142183498,0.0827197433
91309.883678,0.112879945,-0.0672463208,0.157846629,-0.0933677554,0.160227478,0.0764176399
91309.893706,0.147453903,0.227068634,-0.0652262131,-0.0815465152,0.154563472,0.0567669719
91309.903734,0.148714717,0.523332531,-0.109141927,-0.104157023,0.139704362,0.0153806489
91309.913761,0.0494048861,0.6091741,-0.304704831,-0.0826152414,0.120479524,-0.0356977135
91309.923789,0.0915704686,0.570487921,-0.228349321,-0.241772413,0.118920512,-0.129794121
91309.933817,-0.0106114104,0.511431446,-0.309742241,-0.169431105,0.0318242237,-0.133734003
91309.943844,0.219203965,0.186438956,-0.715099404,-0.0500301346,0.0267466437,-0.113078788
91309.953872,0.344680941,0.097534455,-0.543415972,0.0502107143,0.00467676111,-0.063074477
91309.963899,0.181631848,0.128166544,-0.541394111,0.124877229,-0.00291298144,-0.0352028981
91309.973927,0.148052819,0.19543051,-0.417335185,0.156196803,-0.0394416973,-0.0227020215
91309.983955,-0.051138578,0.211059456,-0.438193264,0.217717692,-0.0872427747,-0.0320414603
91309.993982,0.0533726207,0.321161534,0.239636439,-0.409401625,0.0357934013,-0.162400797
91310.004010,1.51005575,3.45462871,6.59180123,-5.02996254,0.659903049,-0.802226067
91310.014038,0.221773377,8.81594034,3.13014862,-4.91393185,1.01719964,-1.55495846
91310.024065,-1.36356346,9.93878936,-9.28377471,-0.761389971,0.592618048,-1.77365184
91310.034093,0.912529271,4.8807116,-5.33013821,0.761961043,0.0938915908,-1.59586108
91310.044120,2.38869429,1.15098563,-2.44705997,1.76176012,-0.214818567,-1.22634614
91310.054148,-0.130766972,-0.905443258,-1.09222942,2.11269426,-0.33869949,-0.894676328
91310.064176,-0.297855112,-3.55890186,2.3398195,-0.709544659,-0.444118351,-0.781884849
91310.074203,-0.234609039,-0.525218673,-1.01375443,-1.08380961,-0.451172799,-1.10109127
91310.084231,-1.74209793,2.59145909,-5.16743946,0.199969321,-0.779190898,-1.35425651
91310.094259,1.44847885,1.10163029,-2.73740544,2.20995331,-0.806001961,-1.14268482
91310.104286,1.42877287,-1.87150012,3.49733943,1.80424309,-0.636232138,-0.850565374
91310.114314,0.978907138,-8.63202988,5.49227289,0.867036879,-0.342774153,-0.14168115
91310.124342,0.0278315714,-13.0008833,4.220635,0.579509735,-0.0463280976,0.499424279
91310.134369,-0.516634348,-6.71558134,3.80813848,0.15889512,0.157320112,0.589709699
91310.144397,-0.1747624,-0.816394709,2.91628668,-0.092565082,0.275242746,0.35311234
91310.154424,-0.350512789,1.2899948,1.6093045,-0.120772213,0.331113726,0.0683021843
91310.164452,-0.00481777555,1.40251264,0.95261169,-0.223466367,0.345859915,-0.128953099
91310.174480,0.50452795,0.473085495,0.45916591,-0.40708226,0.344660163,-0.190079033
91310.184507,0.620646804,-0.425222066,-0.100221539,-0.569302559,0.317853868,-0.148139045
91310.194535,0.620465383,-0.392786545,-0.816934807,-0.59090507,0.232461721,-0.0942233428
91310.204563,0.523193707,0.339044323,-1.44750709,-0.511008382,0.10637702,-0.0878216326
91310.214590,0.30345337,1.16064435,-1.71036892,-0.357707262,-0.0261879433,-0.124506943
91310.224618,0.0762881438,1.48391125,-1.67533443,-0.190589383,-0.124700941,-0.165922299
91310.234645,-0.0570445141,1.25956752,-1.28803022,-0.0800319761,-0.203747541,-0.173924029
91310.244673,-0.0742788498,0.627445451,-0.882673646,0.017594181,-0.24758184,-0.113269202
91310.254701,0.00518807016,-0.148392901,-0.483588403,0.0871197283,-0.26791507,0.00019876752
91310.264728,-0.11701456,-0.725477736,-0.124947399,0.147414759,-0.267892987,0.120864198
91310.274756,-0.187912535,-0.854044129,0.329522462,0.183706194,-0.229377538,0.206543937
91310.284784,-0.211108994,-0.540497966,0.900467661,0.204178169,-0.162455767,0.240294978
91310.294811,-0.0906641674,-0.283066598,1.45878719,0.151851326,-0.0721053705,0.245896935
91310.304839,-0.171886845,-0.428145004,1.83854288,0.0704307631,0.0199249554,0.236033395
91310.314867,-0.055112377,-0.866695594,1.82825588,-0.0610135458,0.12868607,0.243704632
91310.324894,0.0482065432,-0.982074808,1.61312786,-0.136860102,0.211845398,0.23642461
91310.334922,0.0225657598,-0.805246781,1.286853,-0.181939438,0.271350265,0.223728523
91310.344950,0.256241172,-0.973218717,0.967310662,-0.281041771,0.330095083,0.232633606
91310.354977,0.316793694,-0.664521601,0.531397033,-0.402648628,0.36324957,0.22228162
91310.365005,0.303860855,-0.262780748,-0.233652689,-0.469370931,0.336556971,0.202869043
91310.375032,0.523078483,0.170486331,-1.07516197,-0.459574521,0.250260144,0.165978149
91310.385060,0.313755641,0.679843893,-1.73598559,-0.377329171,0.115122043,0.115584485
91310.395088,0.332831002,0.371431366,-2.05684894,-0.24999918,-0.0203028899,0.102329932
91310.405115,0.39121882,-0.0787348885,-1.8130735,-0.139703825,-0.135579675,0.151943281
91310.415143,0.399643169,-0.485422085,-1.31371529,-0.0814668909,-0.204850897,0.21851486
91310.425171,0.203555803,-0.310790362,-0.68728493,-0.0521870293,-0.234816775,0.26032114
91310.435198,0.0271991918,-0.171853692,-0.162792853,-0.0321254395,-0.232307822,0.295256495
91310.445226,-0.0251353911,-0.200511686,0.269480958,-0.02971128,-0.208419532,0.322387189
91310.455254,-0.0294182561,-0.0531020418,0.726959353,-0.0301291309,-0.162800372,0.343518585
91310.465281,0.192276211,-0.106433892,1.30828449,-0.0654301345,-0.0831851885,0.376515418
91310.475309,0.152850574,-0.0791525476,1.68762809,-0.0912646577,0.0229761396,0.385255635
91310.485337,0.137138918,-0.0758285543,1.85484519,-0.156337664,0.129822969,0.389109761
91310.495364,0.189231144,-0.329858197,1.77031924,-0.227213815,0.211087734,0.404061198
91310.505392,0.100531408,0.245686697,1.59919227,-0.3492167,0.280662,0.322698414
91310.515420,-0.00445054967,0.522466196,1.2128081,-0.388845056,0.326954663,0.277485907
91310.525447,-0.0299138576,-0.272234549,0.653999331,-0.338404536,0.345252693,0.261998594
91310.535475,-0.0315227541,0.609987682,0.416204135,-0.346297324,0.345825016,0.203945652
91310.545502,0.0592399053,0.247734552,-0.105949853,-0.277156889,0.335979044,0.211784929
91310.555530,-0.0183008689,0.159586678,-0.494620669,-0.228174418,0.310025215,0.179490641
91310.565558,0.0457919563,1.39779116,-0.547146976,-0.215931609,0.2824426,0.106985018
91310.575585,0.190734096,0.835263806,-0.985119875,-0.126937553,0.230663285,0.107317381
91310.585613,0.172228498,0.294568272,-1.10870417,0.000670202484,0.152172208,0.140906766
91310.595641,0.236447653,-0.0630382746,-0.810264243,0.091258958,0.0903160349,0.203146175
91310.605668,0.274403582,-0.861413854,-0.412783513,0.0568908639,0.052219782,0.295652926
91310.615696,0.370988737,-0.374672467,-0.179952078,-0.0745113716,0.0185955092,0.294666231
91310.625724,0.13356464,0.519417476,-0.315451851,-0.226710752,-0.00489543565,0.215736002
91310.635751,-0.0620482407,0.804120845,-0.670712565,-0.287346125,-0.0325931087,0.104419865
91310.645779,0.195762445,0.612975831,-0.797146403,-0.265628576,-0.0668719858,0.0798154548
91310.655807,0.292152443,0.418316707,-0.637305385,-0.189240068,-0.0966948643,0.0568848364
91310.665834,0.185509931,0.256622572,-0.393626977,-0.127348751,-0.115291186,0.0721886903
91310.675862,0.246919143,-0.0381831253,-0.187649062,-0.110983625,-0.138177857,0.114028014
91310.685890,0.27969387,0.101222167,-0.0765139154,-0.168678075,-0.138876677,0.112526789
91310.695917,0.0738529525,0.636261575,-0.200872701,-0.192353845,-0.148147136,0.0762148574
91310.705945,0.00653605071,0.14976123,-0.422993357,-0.149189323,-0.19928515,0.0865748227
91310.715973,0.137303607,-0.149556611,-0.683071696,-0.0158781484,-0.257634759,0.114600331
91310.726000,0.14095928,0.422266833,-0.525260138,0.146441251,-0.28013289,0.13159129
91310.736028,0.197754642,0.65383245,-0.0775309834,0.227714807,-0.260032415,0.108386911
91310.746055,0.215080967,0.930888738,0.415589803,0.253634036,-0.201477736,0.0844168589
91310.756083,0.314951865,0.811037785,0.855496885,0.206907004,-0.132566839,0.0583519712
91310.766111,0.227440974,0.946240694,0.805239109,0.217743129,-0.0813313499,0.0111264018
91310.776138,0.311733415,1.05844712,0.334154798,0.236320019,-0.0627856329,-0.0362773314
91310.786166,0.310630787,1.09441422,-0.0678249975,0.29997915,-0.0542824268,-0.106701165
91310.796194,0.085163378,0.699527448,-0.147394793,0.384619474,-0.0826954246,-0.137300357
91310.806221,0.115592711,-0.111555893,0.200067814,0.520098448,-0.102834783,-0.0886867419
91310.816249,0.127156892,-0.809046538,1.00788642,0.525012493,-0.0721964464,0.00228763698
91310.826277,0.120252958,-0.962499463,1.64028357,0.326815039,0.0115996506,0.0746033788
91310.836304,-0.0359445891,-0.537510621,1.4559394,0.130048171,0.10506063,0.0854411125
91310.846332,-0.0332645562,-0.0668318217,0.949994786,-0.0123912711,0.159593374,0.0564225093
91310.856360,-0.0197473414,0.0433007057,0.364176426,-0.0584442504,0.18378526,0.0203007255
91310.866387,0.0374972254,-0.306563392,-0.326786315,-0.0403632484,0.147345766,0.0284412093
91310.876415,0.133268434,-0.705989411,-0.801916686,-0.0471148938,0.0883950964,0.0550664291
91310.886443,-0.0241964298,-0.400699911,-0.96705055,-0.0130847581,0.0252875015,0.0660351962
91310.896470,0.0934462724,-0.0763811376,-0.770467071,-0.0112152183,-0.0242022872,0.0872326195
91310.906498,0.13441227,0.246652601,-0.454328407,-0.00952491071,-0.0351774395,0.0908502564
91310.916526,-0.0289401902,0.209592562,-0.158485512,-0.0275848713,-0.0371029079,0.0846578777
91310.926553,-0.229176639,0.0215136387,-0.0751601627,-0.0154128931,-0.0449491106,0.0621344596
91310.936581,-0.256907965,0.110726091,0.0546592264,0.0282988995,-0.0450846665,0.0247737709
91310.946609,-0.256985779,0.259113512,0.154503748,0.105147071,-0.0362336487,0.00175260799
91310.956636,-0.0319905908,0.141989628,0.661049834,0.142832145,0.0138841104,0.0151275359
91310.966664,0.146277918,0.184905024,1.43340433,0.0798691511,0.0743061751,0.0291139241
91310.976692,0.0534974161,0.40217656,1.61705584,0.149167001,0.168550119,0.0272555705
91310.986719,0.091654932,0.28105219,1.91768539,0.121247746,0.273959607,0.00722327316
91310.996747,0.0490997657,0.124634041,1.94945707,0.0453519225,0.371127188,-0.0104377456
91311.006775,-0.0649244537,0.100539592,1.3216303,-0.0179530177,0.420739204,-0.0364927836
91311.016802,0.623003596,0.27508771,0.306039879,-0.678724051,0.631704986,-0.120426297
91311.026830,7.27906512,10.0347199,-4.98275451,-3.22431946,0.450456619,-0.9009642
91311.036858,-3.11292159,15.2180192,-16.6555316,-1.76039398,-0.631622434,-2.0810051
91311.046885,-0.234862137,11.0585591,-16.6408145,-0.277211994,-1.8582263,-2.54247808
91311.056913,3.53753554,8.58287159,-10.670744,0.698943794,-2.55468607,-2.64418268
91311.066941,2.53439573,7.44820413,-7.09496235,1.20563293,-2.81921029,-2.69680667
91311.076968,1.36623692,6.7959496,-2.83143689,0.88844049,-2.90722632,-2.93332505
91311.086996,0.888798705,5.79471211,-0.397809816,1.19081295,-2.78881359,-3.13331938
91311.097024,2.09357109,3.50847252,-1.68494455,1.1685971,-2.90691543,-3.14165473
91311.107051,2.46374194,1.77850137,-3.98495694,2.71155572,-3.20618749,-2.87424445
91311.117079,2.7641631,0.325433366,-1.56672266,2.4327774,-3.49726081,-2.80033565
91311.127107,1.93010911,0.140544489,3.14143399,1.80859339,-3.43526268,-2.86133337
91311.137134,1.79595374,-0.00927650852,3.80657313,1.38235998,-3.20612693,-2.99943662
91311.147162,2.06489664,-0.0870525528,4.64894984,0.979272425,-2.92555285,-3.13900423
91311.157190,2.74157396,-0.405724242,5.2779328,0.633111537,-2.57549071,-3.15335488
91311.167217,3.18008462,-0.80450115,5.53976471,0.521634579,-2.16899419,-3.09985542
91311.177245,3.56198726,-1.28155635,5.59197654,0.604881763,-1.7979188,-2.96579051
91311.187273,2.99904621,-1.40219656,5.66987987,0.833463013,-1.44610715,-2.91058278
91311.197300,2.79347103,-1.44144194,5.8041159,1.07048178,-1.087834,-2.8689599
91311.207328,2.68052269,-1.51410108,6.07234131,1.21515667,-0.725436568,-2.81703639
91311.217356,2.6740307,-1.59981858,6.30699996,1.25809872,-0.321235836,-2.74949217
91311.227383,2.50117589,-1.70039201,6.66740446,1.01841056,0.0877878964,-2.62011552
91311.237411,2.58304285,-1.89852739,6.77954616,0.585609794,0.477889568,-2.45147204
91311.247439,2.82923003,-2.35653945,6.60989102,0.0858317018,0.817416012,-2.18393302
91311.257466,2.28548439,-2.73391789,5.87016863,-0.24599044,1.1456641,-1.9560473
91311.267494,1.42258395,-2.98534852,5.11023815,-0.447329134,1.425161,-1.79067433
91311.277522,1.65390907,-3.30588688,4.41914798,-0.559267163,1.67344809,-1.55176485
91311.287549,1.41921418,-3.72606372,3.57305196,-0.582081676,1.80610621,-1.32918954
91311.297577,1.10466658,-3.96474885,2.52607155,-0.558287382,1.89633489,-1.10340273
91311.307605,0.863159675,-4.21962407,1.7494594,-0.530057609,1.94395089,-0.882924199
91311.317632,0.616629385,-4.39831738,1.08314829,-0.564984441,1.94913292,-0.674983025
91311.327660,0.3366396,-4.32808678,0.500508558,-0.625524998,1.93567538,-0.502170742
91311.337688,1.14129083,-4.69551753,0.00620996056,-0.770995378,1.89182413,-0.163133547
91311.347715,0.967483973,-4.81593664,-0.64770403,-0.871199727,1.84117401,0.175600827
91311.357743,0.777181035,-4.44660415,-1.4749422,-0.863702714,1.74853301,0.434711218
91311.367771,0.777673056,-4.02114557,-2.17179576,-0.824223995,1.56049228,0.633494854
91311.377798,0.86619992,-3.57773895,-2.60685774,-0.779189944,1.30096614,0.790068269
91311.387826,0.905483152,-3.17834128,-2.76249546,-0.745584846,1.01397085,0.897590458
91311.397854,0.785443544,-2.83014247,-2.58030642,-0.758650601,0.753710508,0.955528855
91311.407881,0.886525207,-2.59872499,-1.95364167,-0.919367552,0.549513757,1.05208123
91311.417909,0.991474359,-2.40434662,-1.40440444,-1.12099564,0.423534989,1.15853763
91311.427937,1.09297352,-2.12930277,-1.10186234,-1.32420015,0.338541269,1.28077412
91311.437964,1.19231754,-1.71867702,-0.875061418,-1.49469411,0.25800994,1.40536535
91311.447992,1.28853174,-1.17476274,-0.780063751,-1.57879174,0.152576745,1.49010336
91311.458020,1.02806543,-0.606841712,-0.478204372,-1.58607066,0.179648042,1.51767826
91311.468047,0.760613785,-0.160543175,-0.133958973,-1.5839572,0.159833863,1.48439324
91311.478075,0.707700526,0.114712859,0.244773217,-1.57900369,0.175246105,1.43512928
91311.488103,0.486207792,0.236765706,0.605483429,-1.58857167,0.158746764,1.371117
91311.498130,0.222973474,0.242429358,0.680578125,-1.55116892,0.131257176,1.33714044
91311.508158,0.438700775,0.17166122,0.685857527,-1.47397113,0.110637382,1.37216234
91311.518186,0.565514407,0.212052267,0.517765398,-1.3117907,0.0825578123,1.45456004
91311.528213,0.410681426,0.397256347,0.279512522,-1.09007215,0.0582410209,1.52917254
91311.538241,0.310670169,0.648267655,0.293853767,-0.875799775,0.0608613081,1.56820858
91311.548269,0.168693602,0.875676335,0.51405836,-0.731330216,0.0985287875,1.56215549
91311.558296,-0.0275483705,1.1040695,0.758369221,-0.664665997,0.147966117,1.50743866
91311.568324,-0.208744896,1.28419868,0.895859291,-0.652320087,0.187360927,1.41082585
91311.578352,-0.196232766,1.31964643,0.948264601,-0.65599364,0.230272979,1.31375504
91311.588380,-0.0963775766,1.26114499,0.975749989,-0.655390441,0.303138375,1.21958935
91311.598407,-0.103897451,1.14187199,0.950885013,-0.666570961,0.359689534,1.15976059
91311.608435,0.0167315007,0.970676924,0.774790779,-0.652770698,0.389876723,1.14337206
91311.618463,0.274914089,0.845575868,0.520640077,-0.602590919,0.392258674,1.15154481
91311.628490,0.301846227,0.749927556,0.290642988,-0.506537616,0.38990736,1.15728545
91311.638518,0.262155729,0.727411334,0.158569683,-0.404516727,0.391211778,1.14556122
91311.648546,0.214331902,0.69703249,0.160350721,-0.355435729,0.38582474,1.12771726
91311.658573,0.29871845,0.634938948,0.217290167,-0.36488542,0.380460858,1.11463368
91311.668601,0.40011444,0.553997609,0.214279295,-0.404096484,0.375354528,1.10530221
91311.678629,0.39383419,0.506216232,0.221028185,-0.454141796,0.382877141,1.08658147
91311.688656,0.398214159,0.477587775,0.136766432,-0.48144266,0.39982897,1.06831992
91311.698684,0.530489344,0.561150951,-0.0103144733,-0.526873767,0.414401263,1.06820333
91311.708712,0.801111873,0.659277344,-0.0506605122,-0.6331653,0.404540896,1.09583032
91311.718739,0.969620108,0.740118037,-0.209582662,-0.70721823,0.38319701,1.11062801
91311.728767,0.595536693,0.982790994,-0.573626402,-0.70953548,0.350157559,1.07975471
91311.738795,0.183428303,1.19005471,-0.851613906,-0.641963601,0.306505144,0.987512469
91311.748822,0.00759374306,1.29071844,-1.01549514,-0.514888763,0.260842592,0.829873085
91311.758850,-0.095887455,1.34079385,-1.0525737,-0.413941652,0.192844644,0.703291178
91311.768878,-0.13662169,1.3047211,-1.07866793,-0.29610315,0.125439495,0.574766755
91311.778905,-0.223198368,1.3258181,-1.09542266,-0.176177546,0.0753398463,0.470044822
91311.788933,-0.00574760374,1.18871053,-0.987314755,-0.101041786,0.00735440478,0.407405406
91311.798961,0.109972168,1.07852443,-0.884046104,-0.0686878413,-0.0578283258,0.3732256
91311.808988,0.244368728,1.00827008,-0.672428137,-0.0568916388,-0.10522487,0.358080477
91311.819016,0.290904196,0.997390305,-0.517398318,-0.0531911738,-0.143110469,0.348179102
91311.829044,0.212264886,1.01058223,-0.403506566,-0.0419798009,-0.17207846,0.329077572
91311.839072,0.142908003,1.05191801,-0.364454074,0.0091510294,-0.18991898,0.284328759
91311.849098,0.142435052,1.1024378,-0.313946707,0.0721563622,-0.20487982,0.226280645
91311.859126,0.124942869,1.06385972,-0.166498722,0.0989709273,-0.208431944,0.168922812
91311.869154,0.224700444,0.907537527,0.0701321054,0.0858756304,-0.202972203,0.125768945
91311.879181,-0.0170582484,0.820311517,0.141716163,0.0861917511,-0.180740923,0.0682148337
91311.889209,-0.0498535066,0.704602413,0.195045602,0.0948747247,-0.152322605,0.0276367851
91311.899237,0.175496925,0.487184601,0.286154445,0.101220235,-0.121316761,0.0257038623
91311.909264,0.287387274,0.323835575,0.348368032,0.119871952,-0.0887787864,0.0438029692
91311.919292,0.24759149,0.249336726,0.383972429,0.14083983,-0.0481906123,0.0642414019
91311.929320,0.216945519,0.248870278,0.442897497,0.140717313,-0.00270488695,0.0739017501
91311.939347,0.257735575,0.289751373,0.539758619,0.113189548,0.0284386519,0.0736737847
91311.949375,0.192714821,0.372033497,0.552686489,0.0749103352,0.0415150374,0.0603015199
91311.959403,0.0994724739,0.442827573,0.447505283,0.0736735612,0.0416671075,0.0309401695
91311.969430,0.0450282784,0.490548598,0.327708106,0.135643736,0.0497087874,-0.00543727912
91311.979458,-0.00628010318,0.465946875,0.27034605,0.243710816,0.0756266639,-0.0383675322
91311.989486,-0.062411448,0.379402053,0.201415137,0.370529473,0.0969900116,-0.0592584312
91311.999513,-0.0104783586,0.291774257,0.269538241,0.455109864,0.119079337,-0.0692162588
91312.009541,0.0173139768,0.197793513,0.451623239,0.460337907,0.149642318,-0.0755348727
91312.019569,0.00850537802,0.123471116,0.630222149,0.384785354,0.163167179,-0.0760962665
91312.029597,-0.00661941814,0.074956749,0.664665686,0.290602952,0.183935031,-0.070920676
91312.039624,0.106758466,0.0170337716,0.629784342,0.20299454,0.21838595,-0.0555201545
91312.049652,0.170111433,-0.0059900342,0.536797431,0.141827583,0.252971888,-0.0368090495
91312.059680,0.125046841,0.0169588797,0.35844402,0.109722376,0.270726651,-0.0293298271
91312.069707,0.0710178752,0.0241655232,0.185295193,0.120515369,0.283350021,-0.027740987
91312.079735,0.0651088704,0.00182122408,0.0302998612,0.149985388,0.295566469,-0.030944502
91312.089763,0.0606079057,-0.0332468014,-0.0328127208,0.17228137,0.29444769,-0.0305045489
91312.099790,0.0772440563,-0.100307536,-0.0560083029,0.181980863,0.284523159,-0.0193967707
91312.109818,0.116468909,-0.194257667,-0.0781564219,0.183155328,0.276410908,-0.00181777682
91312.119846,0.186827736,-0.290468947,-0.129034376,0.197333455,0.259840697,0.0335237011
91312.129873,0.191083713,-0.353326604,-0.295686828,0.240272939,0.226513654,0.0624240562
91312.139901,0.112658557,-0.308115078,-0.407478393,0.289597064,0.187630713,0.0968102664
91312.149929,0.275711961,-0.279999356,-0.418382064,0.319139242,0.143338338,0.141604096
91312.159957,0.320282705,-0.203728821,-0.392411172,0.323388845,0.0910170749,0.163532838
91312.169984,0.154966544,-0.0420675655,-0.363115519,0.316174865,0.0577430129,0.162978902
91312.180012,0.195640061,0.0719462787,-0.295727744,0.28779915,0.0374313481,0.163123772
91312.190040,0.176127405,0.114747638,-0.273630479,0.249434218,0.0152722495,0.141886935
91312.200067,-0.00845576672,0.237846049,-0.258092133,0.211987242,-0.0112520363,0.106211491
91312.210095,0.00236738672,0.235441399,-0.167214177,0.18055661,-0.0318433307,0.0788309947
91312.220123,0.0450405534,0.19363095,-0.153047704,0.179573104,-0.0465495735,0.0649916157
91312.230150,0.0734141958,0.151446407,-0.135313895,0.215305001,-0.05370868,0.064861387
91312.240178,0.0345974853,0.120970568,-0.108152916,0.27416563,-0.0484055281,0.0735163912
91312.250206,0.06472199,0.0933520913,-0.0412380193,0.330711484,-0.0348132886,0.0860492289
91312.260233,0.1105119,0.090761673,0.0607294863,0.370951563,-0.0173277706,0.0974885747
91312.270261,0.112056134,0.119481462,0.17596973,0.381905943,0.00909824297,0.103896402
91312.280289,0.159838314,0.142293707,0.337225291,0.336323828,0.0527921952,0.108724713
91312.290317,0.298095642,0.0800697447,0.549015692,0.22203961,0.0929904804,0.107329488
91312.300344,0.0989711733,0.127323663,0.632406507,0.0669823736,0.122792847,0.0859118104
91312.310372,0.101362452,0.123919408,0.635320934,-0.0859142318,0.129343167,0.0507008284
91312.320400,0.0787586986,0.10631359,0.489765046,-0.187026203,0.127384946,0.0145681202
91312.330427,0.110194578,0.0641269284,0.2967226,-0.200980365,0.132660672,-0.0131495278
91312.340455,0.220132259,-0.0343552375,0.123203186,-0.150834098,0.144107729,-0.0199581645
91312.350483,0.272401887,-0.113016321,0.0185649997,-0.0827069879,0.150348589,-0.00783066265
91312.360510,0.268965775,-0.147366846,-0.050001756,-0.0217016898,0.1383553,0.0108194556
91312.370538,0.241550091,-0.127239218,-0.0778290896,0.018319495,0.119937137,0.0231871754
91312.380566,0.16881405,-0.0678465517,-0.0498690695,0.0312579274,0.108232811,0.0263443533
91312.390593,0.142911657,-0.0375072901,-0.0517681812,0.0201315098,0.0943023488,0.0284770112
91312.400621,0.145128237,-0.0162556451,-0.0601034633,-0.000113841437,0.0734364837,0.0303366967
91312.410649,0.159611374,0.0305015943,-0.108995212,-0.0174456928,0.0623798408,0.0315364525
91312.420677,0.168750191,0.0360553012,-0.177583011,-0.0207296368,0.0499306284,0.0286844727
91312.430704,0.160136019,0.0625610491,-0.207495918,-0.00906073116,0.0304211099,0.0275496989
91312.440732,0.156783493,0.0543485165,-0.200045018,0.00209232117,0.0196483564,0.0288687628
91312.450760,0.129995074,0.0798067098,-0.123802905,-0.00462949742,0.0059216246,0.0314938426
91312.460787,0.0805033869,0.117542274,-0.0493219571,-0.0329436958,0.000434713846,0.0300043356
91312.470815,0.0964253978,0.127995863,0.0597656097,-0.0799274519,0.00857413281,0.0226335041
91312.480843,0.124731491,0.151342764,0.164234869,-0.13915801,0.0189700499,0.0240473766
91312.490870,0.103306718,0.185103542,0.154984225,-0.186090097,0.0283904485,0.023901701
91312.500898,0.0470050949,0.225780165,0.123799983,-0.202990994,0.0413213596,0.0170523077
