t,ax,ay,az,gx,gy,gz
103404.173038,0.00159837511,0.00580203734,0.119655722,0.0209960397,-0.0125086727,-0.0168063212
103404.183066,0.00811659789,-0.0687114249,0.133133628,0.012576188,-0.0166056789,-0.00368492771
103404.193093,-0.00263707051,-0.0878282133,0.171473588,-0.0062105488,-0.0180381946,0.0083661424
103404.203121,-0.0401057274,-0.086109719,0.228217804,-0.0200478006,-0.0125131998,0.0105312923
103404.213149,-0.0614366116,-0.0503857869,0.255882056,-0.0186688155,0.00515980273,0.0130162882
103404.223177,-0.0457699637,-0.00830846721,0.209777307,-0.016582761,0.0298909824,0.00947614852
103404.233204,-0.0456462642,0.0223795896,0.121885089,-0.0272231549,0.0225904584,-0.00113921147
103404.243232,-0.057090253,0.0638269408,0.0191097741,-0.0376227982,0.00828262605,-0.0121628344
103404.253260,-0.0439075308,0.088340839,0.0324994171,-0.026803175,0.00863895658,-0.0211669821
103404.263288,-0.0201146403,0.077454265,0.0201999075,-0.00539562153,0.0207217187,-0.0260213912
103404.273316,0.00591711509,0.0539738745,-0.0127203654,0.00858437549,0.0232663695,-0.0246173739
103404.283343,-0.00894815335,0.0204847888,-0.0589583849,0.0042721862,0.0112536484,-0.0295876302
103404.293371,0.0300848302,0.0111872375,-0.088320673,-0.00294551346,0.00116053387,-0.0251300335
103404.303399,0.0267038095,-0.0676621351,-0.0256768776,0.0135764712,-0.00243366836,-0.00574754551
103404.313427,0.0516755344,-0.0858719647,-0.0062859484,0.00693827635,0.00355072087,0.00305713108
103404.323455,0.0516560991,-0.0852983295,-0.00634381607,0.0024250173,-0.00192047714,0.0221610516
103404.333482,0.0532540358,-0.0599784487,-0.0355032751,-0.0105469739,-0.0146868713,0.0293292142
103404.343510,0.0120577367,-0.0309504341,-0.0233019651,-0.0156570468,-0.0262572411,0.03485341
103404.353538,-0.0383559611,0.0375162223,0.0401537312,-0.0139204003,-0.0273174457,0.0331793465
103404.363566,-0.0663077978,0.0906755656,0.096025256,-0.00712374644,-0.0205604732,0.028364351
103404.373593,-0.0685131989,0.113551707,0.117179103,-0.0022325851,-0.012470589,0.0204952434
103404.383621,-0.0721175801,0.135374904,0.0893330649,-0.00335457502,-0.0122234477,0.00896508805
103404.393649,-0.0847423761,0.135447093,0.109265261,-0.00878848881,-0.0151859485,-0.00314403977
103404.403677,-0.0755322108,0.13490283,0.0825531955,-0.0119392751,-0.0147007201,-0.0125218276
103404.413705,-0.0612674656,0.159303988,0.101911976,-0.00821457803,-0.0107544484,-0.0241760872
103404.423732,-0.0408863563,0.175479243,0.115170686,-0.00329092541,3.02883564e-05,-0.0338976905
103404.433760,-0.0371476813,0.15875746,0.0940899041,-0.000881030865,0.0026074294,-0.0404466689
103404.443788,-0.0228804518,0.0796576933,0.0782622203,-0.00612719171,0.00166600186,-0.0441338159
103404.453816,0.0102572632,0.0467232458,0.0503846178,-0.00549815316,-0.00154017785,-0.0431063697
103404.463843,0.0668796794,0.000519347699,0.0266933611,-0.00298119965,-0.00112685526,-0.0384935066
103404.473871,0.0447428126,-0.0441499612,0.0467909773,0.00151261827,0.00236055418,-0.0306893811
103404.483899,0.0654771192,-0.126443775,0.04870704,0.00262528681,0.00526313344,-0.0173735749
103404.493927,0.0424115201,-0.163751323,0.0416004229,-0.00859620888,-0.00683347648,-0.00293871015
103404.503955,0.0273445185,-0.18818916,0.0652431643,-0.0183517113,-0.015437657,0.005258983
103404.513982,0.0510229888,-0.175539157,0.113489017,-0.0174164064,-0.0106077474,0.0183068737
103404.524010,0.0534752043,-0.175291831,0.155188808,-0.0220287368,-0.00105339102,0.0268569533
103404.534038,0.0653859338,-0.124978306,0.150173026,-0.0263869986,0.000484051881,0.0342384353
103404.544066,0.0575029985,-0.073668682,0.127273212,-0.0372481681,-0.0037570321,0.0319811404
103404.554093,-0.0204464296,-0.00772613727,0.134313778,-0.0453998372,-0.0105267875,0.0191002302
103404.564121,-0.0151093794,0.00196465114,0.0848784236,-0.0266714245,-0.00445451401,0.0150053538
103404.574149,-0.0379779215,0.00985766941,0.163908706,-0.0050841081,0.0191831701,0.00703690946
103404.584177,-0.0227994224,0.0189745304,0.14128654,0.00820559822,0.0261310916,0.00281207077
103404.594205,-0.00401340036,0.0109613929,0.0870090059,0.00711636571,0.022426635,-0.00155125279
103404.604232,0.0387208489,-0.00101217272,0.0479179355,0.0071049137,0.0171109643,-0.00293343328
103404.614260,0.0567373479,-0.00289586757,0.0584083498,0.00706230337,0.0162915103,-0.00189187098
103404.624288,0.0541878095,0.0189418702,0.0654115066,0.013869876,0.0221661776,0.00164880184
103404.634316,0.0159200382,0.0102556558,0.0460182393,0.011608053,0.0264613237,0.00610853173
103404.644343,0.00248100316,0.000422682391,0.0423725763,0.0051416317,0.024428267,0.00929234084
103404.654371,-0.0251505887,-0.0219911748,0.0499549943,-0.00826711766,0.0151815061,0.0140804378
103404.664399,-0.0605923428,-0.0157055187,0.07148352,-0.0196547955,0.0140675046,0.0153475702
103404.674427,-0.0789804516,-0.0227880243,0.084808281,-0.0225733519,0.0217070486,0.0199511088
103404.684454,-0.0730178169,-0.00457724479,0.0869675048,-0.0246780477,0.0271766484,0.0265445635
103404.694482,-0.0771750827,0.01721227,0.00624736996,-0.026173681,0.022080956,0.0259554721
103404.704510,-0.0671668989,0.0651878539,-0.0691430943,-0.024261266,0.0121401753,0.0226432998
103404.714538,-0.0797127114,0.1436483,-0.110091191,-0.00705324952,0.00474590855,0.0122673577
103404.724566,-0.10732348,0.201487472,-0.13931787,0.0081038652,0.00168087648,-0.000627934933
103404.734593,-0.112641021,0.214375595,-0.0644715954,0.0120165823,-0.000861909706,-0.0106209144
103404.744621,-0.156814071,0.193791291,-0.0406757093,0.0250255913,-0.00224941666,-0.0238701403
103404.754649,-0.144633293,0.169525888,0.00603869564,0.0219158195,-0.00726574706,-0.0331286192
103404.764677,-0.150119469,0.156507855,0.111881581,0.0194806233,-0.00260628015,-0.0381904915
103404.774704,-0.100640202,0.0751299867,0.171731947,0.0152733615,0.00675872574,-0.0382605307
103404.784732,-0.0561251343,0.000339388022,0.188615277,0.00138471019,0.0150613971,-0.0304963514
103404.794760,-0.0133856974,-0.0488420646,0.137701082,-0.013296498,0.0118528195,-0.0203031022
103404.804788,0.0219124835,-0.0994823377,0.00127308868,-0.0241816342,-0.000449918676,-0.0116281211
103404.814815,0.0290796718,-0.0942188642,-0.0630097061,-0.0218806639,-0.0111041609,-0.00374170206
103404.824843,0.0258224235,-0.0537904808,-0.0977940193,-0.0108514493,-0.0132733062,-0.00246391818
103404.834871,-0.00157893975,-0.0488745055,-0.098749128,0.00698374026,-0.0132133849,-0.00469325017
103404.844899,-0.00601787205,-0.0509020659,-0.0842985779,0.0201583989,-0.0127942022,-0.0068821013
103404.854926,-0.0250514391,-0.0680232965,-0.0289086991,0.0215541609,-0.0215661228,-0.00608528405
103404.864954,-0.0325921369,-0.068798884,0.0463245288,0.0145303393,-0.0285854172,-0.00556383748
103404.874982,-0.0292369812,-0.0865720758,0.137468443,0.0104674213,-0.0237448551,-0.00433052704
103404.885010,-0.00782565212,-0.130913614,0.228808756,0.00720504858,-0.00802847557,0.00624355394
103404.895037,0.0101030955,-0.170359343,0.270721313,-0.00501779513,-0.00101237837,0.0198062342
103404.905065,0.0162395525,-0.149242832,0.215920632,-0.0187599733,-0.00221106713,0.0286902729
103404.915093,0.0157286803,-0.118833885,0.164102182,-0.0287172645,-0.00394984521,0.0362113044
103404.925121,0.0209617587,-0.0669759794,0.194323133,-0.033243306,0.00221031299,0.0368832201
103404.935149,0.00820230342,-0.00519048132,0.17417291,-0.030375883,0.0127556324,0.0349737331
103404.945176,0.00474463724,0.0397968075,0.0802525174,-0.0200611949,0.0156044159,0.0322248191
103404.955204,0.0190616972,0.0664200991,-0.0188432322,-0.0078838896,0.00963733718,0.0266148709
103404.965232,0.00778144766,0.0910940832,-0.0681540833,0.00264065689,-0.000331940711,0.0182887651
103404.975260,-0.0118099725,0.114805871,-0.0334019189,0.01298544,-0.00336874323,0.00611652061
103404.985287,-0.0220086374,0.101809027,0.0253758488,0.021495305,0.00160364481,0.00104985666
103404.995315,-0.0230022515,0.0569826279,0.120853408,0.0223981179,0.00851774402,0.00169966836
103405.005343,-0.0231878372,0.0487532173,0.129694886,0.0130956946,0.00826367736,0.00193455908
103405.015371,-0.0177639856,0.0199372379,0.118510644,-0.00348940725,0.00349022797,0.00355296209
103405.025398,0.00603328881,0.0372610054,0.124264678,-0.0161135904,0.00300233695,0.00784943998
103405.035426,0.0232510387,0.0729170599,0.118690092,-0.0186795443,0.0101159066,0.00906677078
103405.045454,0.037258229,0.0799163442,0.0747995127,-0.00772330072,0.0229528751,0.0123240836
103405.055482,0.0277020267,0.0854628724,-0.01544716,-0.00584470667,0.0202047583,0.0112337852
103405.065509,-0.001253288,0.0911842457,-0.101250297,-0.00804580934,0.00602529105,0.0100715812
103405.075537,-0.0248360428,0.116262938,-0.116112351,-0.0049014152,-0.00980134308,0.00572210643
103405.085565,-0.0529120905,0.135707716,-0.0514484477,0.00280790357,-0.0134980772,-0.00591430906
103405.095593,-0.0718590753,0.128724872,0.0481219336,0.00981894135,-0.00585347274,-0.0112669971
103405.105620,-0.074083108,0.104267526,0.094689039,0.0157418102,0.00239273952,-0.0147338994
103405.115648,-0.0752935798,0.0722480746,0.0733078128,0.0111603756,-0.00178149925,-0.0200924464
103405.125676,-0.0791081696,0.0698374333,0.0783943223,0.00320285023,-0.00922530144,-0.0239534974
103405.135704,-0.07896182,0.0528979889,0.129967273,0.0019777962,-0.00539727323,-0.0273618102
103405.145731,-0.046122065,0.0202330791,0.140733582,0.00620583072,0.00660266448,-0.0249396674
103405.155759,-0.0245822873,-0.0197075208,0.115742348,0.00691210106,0.0117561482,-0.0207236148
103405.165787,-0.0187988085,-0.0654272887,0.0386100089,-0.000878710358,0.00297623803,-0.0132550467
103405.175815,0.00296330679,-0.0846342396,-0.00212532159,-0.0069810776,-0.00839705765,-0.00985472277
103405.185842,0.0263156869,-0.0828765092,-0.0128396078,-0.00259032403,-0.0131276306,-0.00567782018
103405.195870,0.046449032,-0.081321681,0.0201858789,0.00706683053,-0.00455251848,-0.000215411186
103405.205898,0.0342585357,-0.0716528121,0.0445411525,0.0120938132,-9.73162241e-05,0.00465497794
103405.215926,0.0222395966,-0.0677554394,0.0336976869,0.00773981167,-0.00493121985,0.00662278756
103405.225953,-0.00410056719,-0.0163386289,0.028691257,-0.000873384066,-0.0138378963,0.00414391747
103405.235981,-0.0285357011,0.000897898688,0.0683557433,0.000292281562,-0.0146725308,0.00127995387
103405.246009,-0.0175744543,0.0354946534,0.127224112,0.00729213422,-0.00319883367,-0.00222077128
103405.256036,-0.0488613538,0.0390196857,0.140550626,0.0117396135,0.00769509329,-0.00514652021
103405.266064,-0.0468156733,0.0232766115,0.121450205,0.01021735,0.0125289969,-0.00325993635
103405.276092,-0.0516967964,-0.0236861421,0.0805202284,0.00773927895,0.00805035885,-0.00236378331
103405.286120,-0.0231781196,-0.0447439816,0.0458060579,0.00500740809,0.00352112064,0.00154440617
103405.296147,0.0142985745,-0.0402335184,0.066518591,-0.000658999546,0.0044188723,0.00613942416
103405.306175,0.0206468475,-0.0610681436,0.0818880096,-0.00625350187,0.00873532332,0.0131677724
103405.316203,0.0115812783,-0.0629589989,0.0920651202,-0.0166752487,0.0098202955,0.0172224343
103405.326231,-0.0229896112,-0.048594958,0.0846978063,-0.0254554264,0.00653395476,0.0222430266
103405.336258,-0.0311297361,0.00577237286,0.0645867462,-0.030913841,0.00283162831,0.0213090554
103405.346286,-0.0381936832,0.0674926968,0.0727408266,-0.0258282684,0.00926502608,0.0148085458
103405.356314,-0.000628214901,0.0688543405,0.0637625703,-0.0143833337,0.0230159927,0.0142503474
103405.366342,0.045165568,0.0415398518,-0.0423988798,-0.00222706888,0.0232178587,0.0151342507
103405.376369,0.0727505442,0.0142481595,-0.187298349,0.00469901413,0.00730440719,0.0173827577
103405.386397,0.0966265099,0.0110543318,-0.273670811,0.00766071538,-0.0181309115,0.0166860744
103405.396425,0.0911111074,0.0218191792,-0.197488904,0.0112735601,-0.0304195359,0.0165020507
103405.406452,0.103383291,0.0284277106,-0.0689005177,0.0155122466,-0.0275912583,0.017656263
103405.416480,0.127955422,0.0475266711,0.0193774852,0.0126115317,-0.0197858009,0.0218169205
103405.426508,0.141992788,0.0623929625,0.0117874684,0.00232507242,-0.023835402,0.0245748907
103405.436536,0.168136553,0.0617868133,0.0186690446,-0.00681489659,-0.0259214565,0.0331492051
103405.446563,0.185509931,0.0719563251,0.0673421824,-0.0123140579,-0.0211413484,0.0385849811
103405.456591,0.192507316,0.0985288364,0.0887269157,-0.0145244813,-0.0102649983,0.0445661768
103405.466619,0.187454416,0.136405197,0.111668815,-0.0203325711,-0.00238310732,0.0475292094
103405.476647,0.172644093,0.197956375,0.101852939,-0.0248570144,-0.00206539221,0.0436481833
103405.486674,0.11507519,0.247205121,0.0233773685,-0.0201416202,-0.00515998527,0.0304210614
103405.496702,0.0415107718,0.296527224,0.0392781174,-0.00694725569,-0.00831716321,0.0116300629
103405.506730,-0.0148079853,0.286135667,0.0514490322,0.00737833697,-0.00311601302,-0.010470761
103405.516757,-0.028262364,0.235445782,0.10425474,0.0202568509,0.00314800814,-0.0282018203
103405.526785,-0.0224425718,0.156349084,0.110831196,0.0279896054,0.00355813489,-0.0409919173
103405.536813,-0.0147540631,0.0501281589,0.0918190365,0.0295267813,-0.00390031375,-0.0449299365
103405.546841,0.0158710845,-0.0102752372,0.081751816,0.029895097,-0.012881292,-0.0439621434
103405.556868,0.0318216639,-0.0719283411,0.109628834,0.0279890727,-0.0161250215,-0.0393428877
103405.566896,0.0427371718,-0.121725514,0.175245508,0.0250231102,-0.0117081702,-0.0315190554
103405.576924,0.0533303159,-0.122443307,0.216222246,0.0128844231,-0.00802981108,-0.025089385
103405.586951,0.0649411857,-0.100309655,0.203758486,-0.00021699832,-0.00905353017,-0.0206219312
103405.596979,0.0932175051,-0.0749204356,0.185175366,-0.00304021547,0.0005186692,-0.0195153896
103405.607007,0.125083447,-0.0630704964,0.147854227,0.00365390629,0.0156877674,-0.00893677957
103405.617035,0.1954658,-0.0472519458,0.060202832,0.0105059538,0.021707844,0.00127724186
103405.627062,0.200977111,-0.0478220739,-0.000238484931,0.00977891125,0.0121649392,0.012600203
103405.637090,0.180929252,-0.0492173276,-0.0252525147,0.00460385578,8.03128351e-05,0.0224941131
103405.647118,0.11980821,-0.0488107196,0.0619932226,-0.00406926079,-0.00542284315,0.030448176
103405.657145,0.0613025369,-0.0453713928,0.174418994,-0.013664363,0.00408677245,0.0395796224
103405.667173,0.0300232362,-0.0455304558,0.238298469,-0.0203971025,0.0168739408,0.0503004417
103405.677201,-0.0140950147,-0.0455623853,0.194147777,-0.0290321354,0.0160108097,0.0552235618
103405.687229,-0.0482779279,-0.0146641198,0.0817605838,-0.0350109302,0.00408863649,0.0550067797
103405.697256,-0.0383616602,0.043628933,0.0087052845,-0.0292963218,-0.00749638071,0.0516482666
103405.707284,-0.0246964152,0.0739772365,-0.0103501291,-0.0159576125,-0.00932064652,0.0463837311
103405.717312,-0.0214556797,0.0917925138,-0.0127554367,-0.00382904382,-0.0115196183,0.0404137224
103405.727339,-0.0131529846,0.0979020097,-0.0262397721,-0.00166149694,-0.0181692634,0.0301443096
103405.737367,0.00909903306,0.107045978,-0.0346720849,-0.00479710288,-0.0285630487,0.0214565452
103405.747395,0.0263614988,0.133891388,-0.015500936,-0.00150676724,-0.0303114131,0.0109642232
103405.757423,0.0337554085,0.134151865,0.0305552973,0.0051303627,-0.0236319397,0.00210335385
103405.767450,0.0819137286,0.108355453,0.0242746096,0.0131328963,-0.0207075235,0.00039360486
103405.777478,0.123644938,0.0872630537,-0.0204997672,0.0132162524,-0.0220630728,0.00229430245
103405.787506,0.196438299,0.0691045159,-0.0496194787,0.00735010765,-0.0297028814,0.00860679336
103405.797533,0.243891101,0.0699818102,-0.04406126,0.00235907733,-0.0328190476,0.015215694
103405.807561,0.304695479,0.0664725599,-0.0755915398,0.00144721102,-0.0294416267,0.0242877528
103405.817589,0.321987317,0.0426765277,-0.0933779564,-0.00196456467,-0.0275811423,0.0332703292
103405.827616,0.341841845,0.019463556,-0.0805517926,-0.0201302525,-0.0275835395,0.0434049889
103405.837644,0.350653366,-0.00423318059,-0.137276719,-0.0325861201,-0.0343453027,0.052736707
103405.847672,0.403999245,0.00193250243,-0.256577637,-0.032206621,-0.0451145954,0.0635446087
103405.857700,0.440117657,0.0236364578,-0.345578109,-0.0203041583,-0.059437342,0.0738188177
103405.867727,0.487240131,0.0279589972,-0.377854239,-0.00691697886,-0.0766104683,0.0837191194
103405.877755,0.498139637,0.0545375728,-0.334606049,-0.00322663668,-0.0915502682,0.0939328745
103405.887783,0.47078562,0.116547308,-0.298014978,-0.0199891049,-0.106329486,0.101624884
103405.897810,0.443593662,0.168373357,-0.334666839,-0.020964887,-0.125779346,0.101201177
103405.907838,0.490691075,0.232590978,-0.290817176,-0.0230466817,-0.135064453,0.0968301296
103405.917866,0.529238905,0.262894419,-0.234785492,-0.0232597329,-0.139506876,0.0948221013
103405.927893,0.635479777,0.284656973,-0.276916076,-0.0260115787,-0.140785992,0.0934132934
103405.937921,0.695007852,0.315402678,-0.320032164,-0.0252035744,-0.15166074,0.0913629234
103405.947949,0.80416958,0.320447759,-0.38389235,-0.0222802237,-0.162701145,0.0903186947
103405.957976,0.879724222,0.34179976,-0.388718163,-0.0232698545,-0.1743301,0.092097953
103405.968004,0.958312313,0.351661374,-0.400619613,-0.025269622,-0.188841134,0.0940892026
103405.978032,1.01210097,0.354309843,-0.398974768,-0.0253279451,-0.198840767,0.0977422595
103405.988060,1.08279648,0.362650313,-0.382315894,-0.023623256,-0.210519001,0.103992432
103405.998087,1.13111138,0.385872125,-0.322979324,-0.0260126442,-0.21843338,0.1056633
103406.008115,1.16065626,0.388841935,-0.255050281,-0.0313344374,-0.228757933,0.110157385
103406.018143,1.16777924,0.430592069,-0.152304193,-0.0454196297,-0.234247774,0.109955519
103406.028170,1.21426714,0.439746193,-0.0839168851,-0.0511936285,-0.235158831,0.112068199
103406.038198,1.29768623,0.434586107,-0.0881429784,-0.0543563999,-0.232379556,0.115132436
103406.048226,1.41500767,0.450015804,-0.142521634,-0.0536434688,-0.238702163,0.115651749
103406.058253,1.50804207,0.482199141,-0.172483642,-0.0594813861,-0.25065285,0.116589986
103406.068281,1.60515322,0.501666204,-0.178160518,-0.0596078858,-0.260260195,0.119705878
103406.078309,1.68692681,0.514979421,-0.117636199,-0.0502175801,-0.262130797,0.126305461
103406.088336,1.75432452,0.511813066,-0.0605564678,-0.0418635085,-0.260330766,0.134719193
103406.098364,1.80443895,0.513254789,-0.00400923564,-0.0444984399,-0.264208049,0.140794396
103406.108392,1.82137109,0.537957707,0.0728746821,-0.0476883762,-0.268758595,0.147039503
103406.118419,1.85406003,0.576469005,0.1637994,-0.053466104,-0.271125346,0.148066685
103406.128447,1.82669199,0.635506519,0.217413501,-0.0505523384,-0.271496326,0.140023142
103406.138475,1.77268363,0.712193745,0.295278831,-0.0391220525,-0.26679638,0.123787977
103406.148502,1.74742307,0.77115045,0.397613417,-0.0248102266,-0.254626542,0.101218216
103406.158530,1.75337599,0.831061825,0.486702736,-0.0190093294,-0.238650501,0.068803288
103406.168559,1.79616007,0.862059386,0.517698178,-0.00826347247,-0.224521905,0.0362799689
103406.178586,1.9081948,0.862074876,0.480726,-0.0019911963,-0.207747445,0.0100534223
103406.188614,2.07086899,0.806601337,0.437580685,0.0128849559,-0.19259353,-0.00314067677
103406.198641,2.26448938,0.717487687,0.409078814,0.0140317129,-0.17762576,0.0033981828
103406.208669,2.46932295,0.637276086,0.425119263,0.00852615945,-0.171097293,0.0183355883
103406.218697,2.58553146,0.605131912,0.430763407,-0.0143184355,-0.16060923,0.0405431539
103406.228725,2.67099791,0.535914876,0.449467523,-0.0185757652,-0.149137661,0.0667707622
103406.238752,2.67937645,0.527933595,0.503190929,-0.0336175635,-0.125561506,0.0863873363
103406.248780,2.65394507,0.551236145,0.475790881,-0.0303032622,-0.112122655,0.103767395
103406.258808,2.57006062,0.575492122,0.431003645,-0.0388203152,-0.095190011,0.106093131
103406.268835,2.58120483,0.607276962,0.369395622,-0.024977738,-0.0781479105,0.110077493
103406.278863,2.57068519,0.655892816,0.228615863,-0.0139703602,-0.0647237152,0.105460636
103406.288890,2.61085295,0.727561922,0.0953320131,0.0071596913,-0.0755457357,0.104308017
103406.298918,2.59692876,0.784166437,0.090509123,0.00536072627,-0.0775284618,0.0954519436
103406.308946,2.64794554,0.816000668,0.162739077,0.013282299,-0.081573002,0.0950255692
103406.318974,2.69475814,0.836800368,0.266525615,0.00285096327,-0.0698969066,0.10403984
103406.329001,2.78220145,0.855820711,0.370512059,-0.00269054226,-0.0643878952,0.119238496
103406.339029,2.78486891,0.865888808,0.403652112,-0.0231438857,-0.0557483323,0.136494711
103406.349057,2.82195478,0.936443961,0.421346759,-0.0353448913,-0.0518241636,0.150526106
103406.359084,2.73062557,1.00739155,0.424928125,-0.050581634,-0.0433036461,0.15480262
103406.369112,2.66977509,1.11498946,0.438875401,-0.0524724796,-0.0319780223,0.150933579
103406.379140,2.61318928,1.19027193,0.436470094,-0.0444188118,-0.0151119549,0.14143382
103406.389167,2.56929052,1.24891899,0.399077059,-0.0312662609,-0.00722234091,0.129785687
103406.399195,2.48968273,1.33984283,0.387771822,-0.0184090529,-0.0126892775,0.113482341
103406.409223,2.36420663,1.42550977,0.402834366,0.000731619657,-0.0241227616,0.0853963792
103406.419250,2.18027396,1.4762001,0.587589461,0.0185598843,-0.0220486913,0.0516192392
103406.429278,1.9737973,1.53123108,0.886512201,0.0358446017,-0.00184222311,0.010692847
103406.439306,1.79429106,1.54252258,1.24353525,0.0319238938,0.0488856696,-0.039855279
103406.449333,1.63238741,1.5110037,1.5249802,0.016531622,0.115511566,-0.0977385566
103406.459361,1.49909421,1.42983348,1.48675364,0.0130255707,0.184580117,-0.159234673
103406.469389,1.4228274,1.2716639,1.20867495,0.0460088216,0.254034281,-0.213337585
103406.479416,1.44477868,1.02684765,0.863551597,0.0635007247,0.301054806,-0.260216415
103406.489444,1.28266285,0.841231483,0.525623126,0.0558747686,0.285481691,-0.306857407
103406.499472,1.06901608,0.631257045,0.257618671,0.047530286,0.267314136,-0.341455072
103406.509499,0.912767902,0.426578084,0.131840666,0.0618711002,0.270394623,-0.35714373
103406.519527,0.734304163,0.269897576,-0.0479343021,0.0868446231,0.270731002,-0.359445781
103406.529555,0.663559624,0.178396008,-0.194097508,0.0959433168,0.255710483,-0.352396369
103406.539582,0.619626229,0.0819536222,-0.288188581,0.0885075033,0.232086107,-0.329023957
103406.549610,0.574249356,-0.0031261692,-0.270040345,0.0612452589,0.217913836,-0.295828164
103406.559637,0.473599034,-0.0514796465,-0.169341837,0.0298878681,0.208520591,-0.261981517
103406.569665,0.271163212,-0.0699942313,-0.108958387,0.00385333784,0.20735307,-0.229588702
103406.579693,0.148183898,-0.0694801443,0.0140951608,-0.0116116386,0.213121742,-0.205961406
103406.589719,-0.0495323119,-0.0468373006,0.0640296968,-0.0351449288,0.217006758,-0.189992815
103406.599748,-0.292740983,-0.0156303345,0.153964235,-0.0550722964,0.212140366,-0.187848449
103406.609776,-0.557093565,-0.0300695596,0.165934659,-0.0568121374,0.223685443,-0.198064327
103406.619803,-0.814796042,-0.0275156373,0.321480025,-0.0539636239,0.259112418,-0.216642275
103406.629831,-1.05704157,-0.100710053,0.210686823,-0.0464428551,0.276760131,-0.250462562
103406.639859,-1.21471898,-0.246278946,0.0696907913,-0.0455309898,0.273144066,-0.281194091
103406.649886,-1.27498808,-0.399266591,-0.00976736078,-0.0399444774,0.275003225,-0.309243321
103406.659913,-1.32961823,-0.586548427,-0.00284136091,-0.0198858138,0.291783005,-0.318981975
103406.669942,-1.28878747,-0.833150906,-0.0968494319,-1.91647887e-05,0.304554194,-0.31076026
103406.679969,-1.28322545,-1.06481556,-0.129392104,-0.0155544486,0.3052935,-0.28584078
103406.689997,-1.29743036,-1.20496228,-0.242124749,-0.0361041985,0.282483518,-0.25319016
103406.700024,-1.41016198,-1.29386784,-0.359005746,-0.0446865,0.269873708,-0.212702662
103406.710052,-1.55073394,-1.31480542,-0.376824311,-0.0382568315,0.264409989,-0.173705459
103406.720080,-1.71320911,-1.26254726,-0.406843017,-0.0344258733,0.259348631,-0.143652484
103406.730107,-1.87724436,-1.20110831,-0.472209516,-0.0283187125,0.24664934,-0.124485448
103406.740135,-1.97314,-1.20141628,-0.469631774,-0.0285333637,0.239006862,-0.105121076
103406.750163,-2.03312057,-1.19913014,-0.469414917,-0.0347574353,0.231985971,-0.0889943019
103406.760190,-2.02476015,-1.20109341,-0.520023406,-0.0418246686,0.224964812,-0.0742507726
103406.770218,-2.00511729,-1.20373435,-0.645984951,-0.0384195484,0.212194964,-0.0545367301
103406.780245,-1.94631673,-1.21789805,-0.789089354,-0.0285605267,0.194020748,-0.0323462039
103406.790273,-1.90096748,-1.18279904,-0.909912366,-0.0179275908,0.162124336,-0.016531555
103406.800301,-1.90993492,-1.09503198,-0.961066799,-0.00841584522,0.132442072,-0.00430072192
103406.810328,-1.96170573,-0.980239263,-0.892942527,0.00832558423,0.109806009,0.00292470027
103406.820356,-2.01568428,-0.901245733,-0.791271374,0.0232512709,0.0995552316,0.00163386622
103406.830384,-2.10782057,-0.78970712,-0.750443104,0.0313685872,0.0821408257,-0.00691860914
103406.840411,-2.13551127,-0.70617675,-0.633188013,0.0194011386,0.0543294325,-0.0227076914
103406.850439,-2.13386233,-0.603176029,-0.559518966,0.00647069234,0.026187811,-0.0386610925
103406.860466,-2.08534628,-0.53700121,-0.499943326,0.0160506163,0.010403255,-0.0555101112
103406.870494,-1.97398639,-0.50603514,-0.446472432,0.0295933224,0.00537360832,-0.0654474273
103406.880522,-1.85367323,-0.45149596,-0.404736985,0.0478703305,-0.00509421248,-0.0712866783
103406.890548,-1.75773053,-0.449875592,-0.419685548,0.055783648,-0.0208401512,-0.0704855993
103406.900577,-1.64697986,-0.485191528,-0.368328285,0.0580790266,-0.0384870581,-0.0638601854
103406.910605,-1.5847765,-0.491468562,-0.279182268,0.0459057167,-0.051672101,-0.0536696017
103406.920632,-1.52936938,-0.496153286,-0.140930566,0.0282556172,-0.0515533239,-0.0409942865
103406.930660,-1.44638334,-0.527207546,-0.00916997941,0.00138432113,-0.041424524,-0.0279269572
103406.940687,-1.37787138,-0.578864668,0.000304535905,-0.0262209401,-0.0353650339,-0.00822915137
103406.950715,-1.28782272,-0.610637378,-0.0594458762,-0.0516527966,-0.0394231603,0.015786171
103406.960742,-1.1967176,-0.652359454,-0.0794634128,-0.0693931803,-0.0437561236,0.0433264524
103406.970770,-1.14055857,-0.656260773,-0.0979869115,-0.0738174915,-0.0544716157,0.0731818229
103406.980798,-1.11826819,-0.640015886,-0.108461544,-0.0725748613,-0.0655144155,0.0994762778
103406.990826,-1.17667252,-0.59520863,-0.00436637852,-0.0738608986,-0.071572043,0.120536819
103407.000853,-1.25327748,-0.528310538,0.138984108,-0.0752068609,-0.074232541,0.133757815
103407.010881,-1.37754025,-0.451155256,0.226349672,-0.0726153404,-0.0731488988,0.137029782
103407.020908,-1.5082769,-0.37188985,0.325450098,-0.0685715973,-0.064895764,0.129474655
103407.030936,-1.60831198,-0.277395238,0.486395862,-0.0699322075,-0.0535136797,0.108590677
103407.040964,-1.68416246,-0.226041848,0.579819411,-0.0650130808,-0.0358294882,0.0821241811
103407.050991,-1.74967524,-0.175390908,0.601475947,-0.0588246882,-0.0147188772,0.0511737242
103407.061019,-1.7966255,-0.166229038,0.562380201,-0.0394227616,0.00461194431,0.0177252181
103407.071046,-1.79508397,-0.175327998,0.508006221,-0.0203529317,0.0180896707,-0.0195097681
103407.081074,-1.79370157,-0.211382185,0.43597325,0.00666004326,0.0306166466,-0.0519364178
103407.091102,-1.8069521,-0.285019157,0.371852368,0.0328445099,0.0440698713,-0.0820575655
103407.101129,-1.81132958,-0.379754227,0.284976049,0.0580452047,0.0536098443,-0.110468969
103407.111157,-1.81590347,-0.490459458,0.209331317,0.082021907,0.0621250384,-0.131394222
103407.121183,-1.82358905,-0.607335414,0.149797178,0.0986389667,0.0646499768,-0.146958277
103407.131212,-1.8198167,-0.743182831,0.13070494,0.101340473,0.066582635,-0.151801497
103407.141240,-1.80265294,-0.866255011,0.104404962,0.0989100784,0.0676875785,-0.148208618
103407.151267,-1.80543716,-0.958377195,0.042791094,0.0900385529,0.0688218251,-0.137468621
103407.161295,-1.82134712,-1.02606023,-0.02110767,0.078891091,0.0634568855,-0.119151399
103407.171322,-1.8090064,-1.09096978,-0.0619546441,0.0630495474,0.0571489185,-0.0949235633
103407.181349,-1.80580585,-1.13945952,-0.133898767,0.0480442345,0.0495975278,-0.063155517
103407.191377,-1.77259273,-1.13862131,-0.168814598,0.0303121097,0.0397954956,-0.0358133763
103407.201404,-1.78237821,-1.11229299,-0.278746214,0.0177880619,0.0260000583,-0.00503175985
103407.211432,-1.75284466,-1.05712662,-0.373775445,0.013032455,0.00833371188,0.0242939051
103407.221460,-1.75091194,-0.99018768,-0.411873413,0.00943558943,-0.0104615474,0.0487350672
103407.231487,-1.75082587,-0.884374313,-0.420976757,0.00486667082,-0.0324912183,0.0650719628
103407.241515,-1.7693197,-0.733851523,-0.367092022,-0.00299604633,-0.0518670455,0.0746702626
103407.251542,-1.79111799,-0.610326266,-0.220081259,-0.00865046959,-0.0570303835,0.076835148
103407.261570,-1.79995245,-0.492173569,-0.0854781431,-0.00917697698,-0.0525490828,0.0739456117
103407.271598,-1.81327867,-0.393865901,0.0504109213,-0.0200120471,-0.0401081257,0.0627227873
103407.281625,-1.82975985,-0.3188743,0.105164256,-0.033200819,-0.0328275748,0.0483821929
103407.291653,-1.80612456,-0.286752484,0.113846159,-0.0415546224,-0.0251105316,0.0308721792
103407.301680,-1.76836752,-0.261908842,0.113079267,-0.0492391735,-0.0162193011,0.0118438927
103407.311708,-1.71751382,-0.223328205,0.0685053809,-0.044702746,-0.00303905108,-0.00543735921
103407.321736,-1.66868929,-0.283702814,0.0195388132,-0.0345837995,0.00863944273,-0.0184495635
103407.331763,-1.66023652,-0.338905134,-0.0744932232,-0.0218365788,0.0123649389,-0.0270784739
103407.341791,-1.65105573,-0.401216556,-0.151999657,-0.00633431878,0.00397012243,-0.0350631624
103407.351818,-1.69443967,-0.44834093,-0.170403328,0.00356917852,-0.00415731221,-0.0412677974
103407.361846,-1.71610249,-0.508474642,-0.125665777,0.0104313456,-0.00761782378,-0.0478497967
103407.371873,-1.78271987,-0.567450197,-0.0604173516,0.015255928,-0.0115912603,-0.0544666871
103407.381901,-1.84539143,-0.633777357,0.0352267962,0.0059897257,-0.00866657682,-0.0590707585
103407.391929,-1.90024019,-0.69324793,0.123300801,-0.0114720892,-0.00196792767,-0.0647395626
103407.401956,-1.89261466,-0.734838854,0.0903594854,-0.0215649363,0.000733050227,-0.0713186339
103407.411984,-1.92647484,-0.821770484,-0.0519318473,-0.0248390269,0.00252908608,-0.0666485131
103407.422011,-1.74314598,-0.916969591,-0.146063837,-0.0168846976,-0.00415731221,-0.0583533049
103407.432039,-1.71235322,-1.02299222,-0.390626042,-0.0134542799,-0.0204816908,-0.0377947688
103407.442067,-1.45674253,-1.14720648,-0.460600326,-0.0148369931,-0.0536154099,-0.00946379267
103407.452094,-1.31266256,-1.19743671,-0.727221803,-0.00959749054,-0.101610102,0.0343822241
103407.462122,-1.09942167,-1.23508014,-0.839946265,-0.010171135,-0.156759635,0.0840693563
103407.472149,-0.915777386,-1.22702104,-0.934589127,-0.0112627652,-0.2161199,0.14252761
103407.482177,-0.753894048,-1.12749363,-0.92622345,-0.0281666461,-0.278237581,0.193184927
103407.492205,-0.564787408,-0.931308863,-0.796851804,-0.0591874123,-0.335695565,0.236262351
103407.502232,-0.42625667,-0.672165321,-0.701692225,-0.0864669755,-0.38638857,0.265673757
103407.512260,-0.29847602,-0.405574386,-0.578472673,-0.102921993,-0.415157855,0.279378951
103407.522287,-0.146383278,-0.17472068,-0.46623161,-0.108616367,-0.429810047,0.285019249
103407.532315,0.0651625003,0.0441386361,-0.445036262,-0.118480183,-0.436413616,0.287726074
103407.542342,0.340414223,0.204763498,-0.461373649,-0.1107658,-0.448574126,0.28868404
103407.552370,0.586100026,0.341683732,-0.481724363,-0.113584228,-0.460820407,0.288442731
103407.562398,0.987014749,0.461406236,-0.367269716,-0.127077401,-0.452320665,0.30109942
103407.572425,1.38652815,0.564131209,-0.37693537,-0.12885879,-0.451806158,0.323699534
103407.582453,1.64680421,0.724952689,-0.448190342,-0.150183246,-0.472823292,0.342629015
103407.592480,1.8451053,0.901160685,-0.397064551,-0.159651056,-0.489813179,0.356929123
103407.602508,1.85866534,1.09986532,-0.353783043,-0.141966328,-0.497880429,0.350946873
103407.612536,1.80883397,1.30413322,-0.162778825,-0.119245037,-0.487333506,0.327383757
103407.622563,1.76971966,1.51848368,0.148256379,-0.112367161,-0.46216318,0.284505516
103407.632591,1.64472477,1.7296295,0.326477687,-0.100856446,-0.436398685,0.221053854
103407.642618,1.56772439,1.84617673,0.520064907,-0.0935021266,-0.403621316,0.148564205
103407.652646,1.50281557,1.88524384,0.660836483,-0.0923218131,-0.377954841,0.0649073943
103407.662673,1.51333243,1.85469176,0.742535692,-0.0791157335,-0.345244288,-0.00701153837
103407.672701,1.44005312,1.83227052,0.946342108,-0.0573079027,-0.293502271,-0.0845516026
103407.682729,1.43754186,1.72630386,0.984137294,-0.0207333788,-0.242643088,-0.158598661
103407.692756,1.43032068,1.64585187,1.06337099,0.00370245567,-0.195483297,-0.228303984
103407.702784,1.38195602,1.48581168,1.08550625,0.0284847673,-0.154316962,-0.297985047
103407.712811,1.34626409,1.33800977,1.13149935,0.0596735775,-0.104922235,-0.359742165
103407.722839,1.26678548,1.20204457,1.16392454,0.0914301723,-0.0496773534,-0.418439835
103407.732866,1.1883897,1.04577812,1.13382458,0.129104048,0.00270835403,-0.471026868
103407.742894,1.08015868,0.887229483,1.13518184,0.154953495,0.059683755,-0.519266605
103407.752921,0.974828344,0.660005804,1.16160808,0.171966031,0.119341761,-0.551736653
103407.762949,0.856584973,0.404770595,1.04824064,0.180092394,0.163038895,-0.570056796
103407.772977,0.739053257,0.163559892,0.905716084,0.175738931,0.191156819,-0.576831341
103407.783004,0.652027665,-0.070529288,0.779738172,0.168931097,0.209526241,-0.570825636
103407.793032,0.534855649,-0.299041399,0.625242023,0.169753745,0.214160666,-0.54607451
103407.803059,0.381688081,-0.484629072,0.58813365,0.164376825,0.224555522,-0.511684537
103407.813087,0.238965408,-0.645668652,0.60512161,0.161935493,0.228054121,-0.465823323
103407.823114,0.0550343799,-0.752457294,0.690614366,0.142235562,0.242429599,-0.416333795
103407.833142,-0.0132425991,-0.849989009,0.890503901,0.0973727554,0.271389633,-0.361422628
103407.843170,-0.187104507,-0.889026303,0.978138346,0.0307119694,0.282946944,-0.309506416
103407.853197,-0.381315449,-0.902157295,0.980574048,-0.0402378403,0.29165256,-0.264592737
103407.863225,-0.547443803,-0.940072161,0.95654903,-0.0874439701,0.30198428,-0.219858304
103407.873252,-0.706900023,-0.903524857,0.877419379,-0.119046099,0.31879282,-0.180418476
103407.883280,-0.84220705,-0.86552224,0.806500507,-0.130399421,0.331989318,-0.150444075
103407.893307,-0.943577904,-0.828562482,0.606269027,-0.12325123,0.340990812,-0.125935003
103407.903335,-0.971030194,-0.808777877,0.547844895,-0.12360543,0.349618912,-0.106429741
103407.913363,-1.02550975,-0.812096135,0.468006219,-0.131982669,0.358742893,-0.092337355
103407.923390,-1.11930944,-0.786435405,0.385337872,-0.136813641,0.366529197,-0.0878701732
103407.933418,-1.27097943,-0.758853278,0.233588391,-0.120093524,0.377138436,-0.0919810236
103407.943445,-1.44006524,-0.732600281,0.228128957,-0.105713785,0.397739053,-0.103717312
103407.953473,-1.60112894,-0.711210433,0.102993926,-0.0891095102,0.415103912,-0.120660082
103407.963500,-1.73113201,-0.721728613,-0.0319289237,-0.0825482756,0.431036532,-0.143854082
103407.973528,-1.86194538,-0.78818276,-0.466197124,-0.0231864154,0.407149851,-0.154939219
103407.983555,-1.96817931,-0.848262185,-0.521978047,-0.0292008985,0.409950435,-0.17198585
103407.993583,-2.02027117,-0.95561321,-0.573231849,-0.0107577099,0.384614706,-0.180423811
103408.003611,-2.14227287,-1.04487635,-1.03345282,0.031722106,0.338340163,-0.177396595
103408.013638,-2.16480356,-1.11933428,-0.857969998,0.039862588,0.317168295,-0.172044173
103408.023666,-2.26645338,-1.25753703,-0.85460432,0.0314171724,0.293621689,-0.159095347
103408.033693,-2.31484916,-1.32408237,-1.01826811,0.0470315516,0.245305017,-0.140101686
103408.043721,-2.39985837,-1.37205641,-1.20326403,0.0561824404,0.195734799,-0.118976697
103408.053748,-2.39676333,-1.40648665,-0.991661844,0.0530763939,0.16466476,-0.0923658535
103408.063776,-2.42351675,-1.45181837,-1.03543844,0.0459260754,0.131268993,-0.0698054135
103408.073803,-2.38099059,-1.43627433,-1.02984574,0.028038688,0.0928835198,-0.0418715179
103408.083831,-2.32244385,-1.41794708,-1.0964561,0.0149018476,0.0514806882,-0.0151389726
103408.093859,-2.24533446,-1.39001264,-1.11420744,0.00394214038,0.0124416752,0.0111935651
103408.103886,-2.1361066,-1.38295483,-1.1192659,-0.0032270893,-0.0182797536,0.0418052673
103408.113914,-1.96304399,-1.33700147,-1.16014619,-0.00631502457,-0.0528824702,0.0773187876
103408.123941,-1.78754889,-1.27515744,-1.2333558,-0.0038236375,-0.0991413072,0.116874188
103408.133969,-1.62854404,-1.17510966,-1.23606389,-0.00540608726,-0.141836047,0.154824764
103408.143996,-1.50212335,-1.06481841,-1.12323714,-0.0104535762,-0.182269767,0.189092994
103408.154024,-1.37410283,-0.926386677,-0.944957376,-0.0223099701,-0.210307255,0.218153402
103408.164051,-1.29544284,-0.778322533,-0.771323395,-0.0321833752,-0.231343836,0.239047766
103408.174079,-1.22168582,-0.607854031,-0.600771598,-0.0495458543,-0.24421595,0.253658146
103408.184107,-1.12879631,-0.479276897,-0.4013263,-0.0761742666,-0.252324998,0.25911814
103408.194134,-1.04768381,-0.331543775,-0.401364294,-0.0714040175,-0.275148541,0.262194097
103408.204162,-0.942458837,-0.178265805,-0.208445182,-0.0898554623,-0.272565007,0.252634168
103408.214189,-0.831456523,-0.077326072,-0.0815548321,-0.088288188,-0.275302738,0.243002027
103408.224217,-0.71780384,0.076110303,-0.0316413389,-0.0911598727,-0.275233507,0.226191357
103408.234244,-0.578823678,0.197817113,-0.00876958191,-0.0710040107,-0.281698853,0.206472784
103408.244272,-0.472257739,0.260037934,0.0131406366,-0.0456299409,-0.277290791,0.183489427
103408.254299,-0.310887173,0.312481566,0.109453477,-0.026845865,-0.266879976,0.162863776
103408.264327,-0.223161178,0.327140425,0.091672906,-0.00629371963,-0.271350354,0.135855064
103408.274354,-0.186640835,0.395821126,0.0773521197,0.0158062559,-0.282916993,0.100674443
103408.284382,-0.157713431,0.43147276,0.185395146,0.0491389111,-0.284239531,0.0597509816
103408.294410,-0.158337116,0.423213174,0.409051341,0.0838566795,-0.262664974,0.0240600947
103408.304437,-0.127775901,0.410704917,0.624047844,0.109666705,-0.23695457,-0.0122590307
103408.314465,-0.0644900078,0.417376759,0.8091443,0.105663709,-0.214844212,-0.0462111384
103408.324492,0.00813033416,0.37622335,0.949642319,0.0972739533,-0.186090335,-0.0720435381
103408.334520,0.04543211,0.360434244,1.04176005,0.0950792357,-0.152507335,-0.094168812
103408.344547,0.0463849172,0.314870836,1.07255032,0.101174951,-0.109058924,-0.108964533
103408.354575,0.10082429,0.288595043,1.08673667,0.108677603,-0.0705349669,-0.122197777
103408.364602,0.0649257324,0.218744239,1.02420744,0.110699475,-0.0354587361,-0.130637079
103408.374630,0.0136580115,0.156622933,0.908210823,0.114076898,-0.0156442896,-0.137190849
103408.384657,-0.0569369256,0.117563938,0.832023071,0.124012619,-3.5429839e-06,-0.143717721
103408.394685,-0.199019365,0.0225078921,0.769017456,0.131479055,0.0112443175,-0.147130027
103408.404713,-0.334600057,-0.0370554729,0.817980517,0.132492125,0.0268341973,-0.15372695
103408.414740,-0.506096843,-0.0841256325,0.857263311,0.128483802,0.0430254191,-0.159057796
103408.424768,-0.656604252,-0.142147686,0.915296397,0.126708001,0.0617799312,-0.164663747
103408.434795,-0.78056834,-0.193581375,0.950950479,0.116397046,0.0815192834,-0.164068535
103408.444823,-0.893145575,-0.214847816,0.938264016,0.100333393,0.0932076275,-0.167798027
103408.454850,-1.02304066,-0.273994636,0.892087371,0.0865584537,0.107609205,-0.167511463
103408.464878,-1.11687009,-0.289635273,0.893462167,0.0769532323,0.12848945,-0.174946755
103408.474905,-1.23902128,-0.324600057,0.84035017,0.0797604695,0.159432188,-0.182358325
103408.484933,-1.38866239,-0.3753812,0.74482468,0.0805218667,0.18333298,-0.200029731
103408.494960,-1.47857399,-0.411525257,0.595230331,0.0907204449,0.198639497,-0.21848917
103408.504988,-1.61069128,-0.489207266,0.423094479,0.109700792,0.206773326,-0.244873643
103408.515015,-1.67251294,-0.579508153,0.369969038,0.124832064,0.219779506,-0.266848624
103408.525043,-1.72061296,-0.677544311,0.302944251,0.139206484,0.230720297,-0.284656376
103408.535071,-1.71631716,-0.789990979,0.216205879,0.150767267,0.243348211,-0.297986835
103408.545098,-1.7304696,-0.905239698,0.0855237358,0.161389813,0.249805048,-0.300782084
103408.555126,-1.79590259,-1.02796613,-0.0541898553,0.17012392,0.252073258,-0.297372699
103408.565153,-1.83682555,-1.13058918,-0.179070034,0.175222799,0.246908322,-0.286109924
103408.575181,-1.97966926,-1.26181734,-0.294431275,0.173836634,0.23880139,-0.267253965
103408.585208,-2.08936093,-1.35719553,-0.359349445,0.170787841,0.227432892,-0.240345895
103408.595236,-2.24277995,-1.45053242,-0.376437358,0.161010846,0.212529853,-0.210772038
103408.605263,-2.3474063,-1.53489983,-0.39259705,0.148474544,0.195758596,-0.172874987
103408.615291,-2.43174053,-1.6187907,-0.424210332,0.124108754,0.175213903,-0.129891038
103408.625318,-2.46816151,-1.69107297,-0.385383465,0.0902613029,0.162136182,-0.081659317
103408.635346,-2.53218331,-1.70034524,-0.44312546,0.0619082265,0.147844061,-0.0340856723
103408.645373,-2.57837019,-1.72400172,-0.46584641,0.0223783944,0.129764125,0.00353334239
103408.655401,-2.64891847,-1.69580205,-0.460653518,-0.0134019731,0.111421607,0.0385656282
103408.665429,-2.6958661,-1.63340434,-0.42986675,-0.0481447726,0.107088372,0.0615018383
103408.675456,-2.75241012,-1.53400873,-0.443121953,-0.0665307045,0.106841497,0.0765766576
103408.685484,-2.79961874,-1.42279788,-0.573807603,-0.0778041333,0.0983337685,0.0706479251
103408.695511,-2.84412511,-1.36546841,-0.900767521,-0.0462949425,0.0752444267,0.0645831153
103408.705539,-2.73063142,-1.32399936,-1.04585404,-0.0117659932,0.052267205,0.0567195974
103408.715566,-2.63833366,-1.26483172,-1.09277536,0.0210279059,0.0116681121,0.047037676
103408.725594,-2.55882056,-1.14566575,-1.05030108,0.0371371023,-0.0283064675,0.0351277515
103408.735621,-2.58780174,-1.03826972,-0.845703221,0.054858841,-0.0586582497,0.0177998953
103408.745649,-2.70064544,-0.962980451,-0.614338351,0.0746799484,-0.0634111911,-0.000791897997
103408.755676,-2.74445887,-0.940855348,-0.443348747,0.103764065,-0.0674530715,-0.0198763758
103408.765704,-2.85303907,-0.948581631,-0.354223772,0.125939667,-0.0771248713,-0.041665826
103408.775731,-2.93283712,-0.918748876,-0.19542788,0.151183784,-0.0744744986,-0.0678681359
103408.785759,-2.95858414,-0.957919514,-0.0419791931,0.141150847,-0.0770870596,-0.0988430977
103408.795786,-2.99099062,-0.97837895,-0.0444634111,0.134489223,-0.0887258723,-0.120829888
103408.805814,-2.92282835,-1.07800406,-0.0206868142,0.132903844,-0.0897125676,-0.135147572
103408.815841,-2.82245045,-1.17992232,0.0710258393,0.136548638,-0.072002016,-0.136143327
103408.825869,-2.76257437,-1.2903895,0.0731295336,0.116407424,-0.0805837885,-0.137192607
103408.835897,-2.70477012,-1.32652742,0.0823708247,0.0818784758,-0.0910923555,-0.134958237
103408.845924,-2.60014801,-1.42635733,0.142760704,0.0651434362,-0.0800303817,-0.119238652
103408.855952,-2.47416104,-1.50770144,0.233927998,0.0455915704,-0.0486181304,-0.0992513597
103408.865979,-2.39764946,-1.56209003,0.250419114,0.0160430018,-0.0276193731,-0.075529784
103408.876007,-2.28398421,-1.56481069,0.126460142,-0.0139162289,-0.0221500378,-0.0574653
103408.886034,-2.26516348,-1.59260032,-0.06133622,-0.0302699022,-0.0169898979,-0.031754341
103408.896062,-2.09995378,-1.64865013,-0.12475743,-0.0338012539,-0.00864967611,-0.00592221133
103408.906089,-2.02238641,-1.65113201,-0.331594007,-0.0281063505,-0.0104446467,0.0264008418
103408.916117,-1.93242615,-1.66116679,-0.443819288,-0.0239475574,-0.0251242574,0.0529592149
103408.926144,-1.91502552,-1.61965536,-0.524789013,-0.0218846742,-0.0488647409,0.0837171301
103408.936172,-1.91179443,-1.5577333,-0.448354008,-0.0246072225,-0.0800788552,0.108320743
103408.946199,-1.96388717,-1.49667371,-0.323036022,-0.0236050747,-0.102132492,0.133632481
103408.956227,-2.00533401,-1.37038366,-0.112266197,-0.0263635777,-0.119300559,0.151608288
103408.966254,-2.11543177,-1.23391124,0.111574123,-0.0329708792,-0.134283766,0.156297058
103408.976282,-2.2308427,-1.07590577,0.326989144,-0.0354766473,-0.134142086,0.158757806
103408.986310,-2.31076671,-0.928287981,0.522839633,-0.0294504482,-0.11754553,0.149196535
103408.996337,-2.39249486,-0.812697462,0.693747404,-0.0278946292,-0.0936228931,0.132161617
103409.006365,-2.41020645,-0.71700173,0.834102215,-0.0364447087,-0.0688725337,0.108689591
103409.016392,-2.42999705,-0.650947323,0.89515728,-0.0453519151,-0.0385122336,0.0812861919
103409.026420,-2.39165957,-0.613089739,0.907073928,-0.0501754321,-0.0036261552,0.0528319143
103409.036447,-2.34800836,-0.628343277,0.835254892,-0.0586442873,0.0331768654,0.0222945139
103409.046475,-2.3015339,-0.610439298,0.685376466,-0.0587763786,0.0619469956,-0.0100109633
103409.056502,-2.25637578,-0.657947484,0.407156321,-0.0527376607,0.0815609097,-0.0401006863
103409.066530,-2.16197097,-0.722687886,0.125996616,-0.0286485702,0.0859007984,-0.0647509098
103409.076557,-2.11608176,-0.826465948,-0.139411393,-0.00690838788,0.0848227516,-0.0790757835
103409.086585,-2.05759012,-0.935560968,-0.321408713,0.0266756713,0.0749911591,-0.0827421546
103409.096612,-2.02987019,-1.01759182,-0.438216645,0.047688812,0.0605786629,-0.0786057338
103409.106640,-2.02751924,-1.12736218,-0.462341617,0.0491258539,0.0322884358,-0.0673520193
103409.116667,-2.03546348,-1.22158791,-0.454902992,0.0464259423,0.00161175011,-0.0486824587
103409.126695,-2.07160608,-1.28995228,-0.337626273,0.0375344455,-0.017806422,-0.0213605557
103409.136722,-2.09804765,-1.40733406,-0.242590613,0.0294424295,-0.0282012727,0.0203181803
103409.146750,-2.12382711,-1.45996909,-0.172140527,0.00951905549,-0.0467025191,0.0616259389
103409.156777,-2.15917622,-1.43311002,-0.0877285523,-0.0258575771,-0.0710355565,0.0982710347
103409.166805,-2.13662303,-1.38886902,0.00530219806,-0.0546530075,-0.0921855792,0.129882216
103409.176834,-2.13165956,-1.32621631,0.0505541292,-0.0787828416,-0.10343504,0.156805724
103409.186861,-2.07727009,-1.24055214,0.123117261,-0.0913897157,-0.108640455,0.178992778
103409.196889,-2.07399019,-1.16414907,0.173082192,-0.104137734,-0.111226119,0.196410388
103409.206916,-2.06398186,-1.09664709,0.195353645,-0.113133892,-0.120598316,0.209103286
103409.216944,-2.03933901,-1.05578192,0.257200737,-0.121850155,-0.11414095,0.212514788
103409.226971,-2.03115804,-0.984648531,0.367740841,-0.114852428,-0.0985417515,0.210505962
103409.236999,-2.04176156,-0.939666576,0.449476875,-0.115882277,-0.0749477372,0.199848533
103409.247026,-1.97299124,-0.907100962,0.463204956,-0.1073796,-0.0551487356,0.18766138
103409.257054,-1.91574098,-0.871998596,0.317511706,-0.0970577225,-0.0470750965,0.171148717
103409.267081,-1.86494281,-0.883423369,0.264647546,-0.0748687983,-0.038024608,0.157233685
103409.277109,-1.81875564,-0.835714911,0.225825356,-0.0435939617,-0.0294835847,0.144373536
103409.287136,-1.79885735,-0.790193954,0.268213714,-0.0214556381,-0.015989881,0.132722497
103409.297163,-1.82846689,-0.731831854,0.297239318,0.00288831675,-0.000441014534,0.117417835
103409.307191,-1.8055206,-0.742883337,0.422644982,0.0063078152,0.027688358,0.106201395
103409.317219,-1.84249074,-0.775762839,0.398949049,0.0105819227,0.0445906408,0.0980835482
103409.327246,-1.89113509,-0.782447285,0.399056601,0.0065253959,0.064887926,0.0956347734
103409.337274,-1.93487238,-0.822784556,0.410146735,-0.000863810827,0.0793891028,0.0989189819
103409.347301,-1.9542994,-0.838687643,0.274060102,-0.0128320567,0.0737064481,0.0991634578
103409.357329,-1.97693077,-0.888388078,0.0823281546,-0.0237784479,0.0583786257,0.111321591
103409.367357,-1.90007827,-0.878539469,-0.125845225,-0.0145953353,0.0330279954,0.11779201
103409.377384,-1.96828686,-0.841586141,-0.323238267,-0.0103558488,0.00333747827,0.125714377
103409.387412,-1.99936107,-0.716913979,-0.391769367,0.0102184014,-0.0363705195,0.119966477
103409.397439,-2.01221909,-0.653467489,-0.297259192,0.00661967136,-0.0466418006,0.1035899
103409.407467,-2.03791526,-0.474278504,-0.215356569,0.015113824,-0.0664463937,0.0766538903
103409.417494,-2.10427208,-0.36711438,-0.0471393523,0.0163987987,-0.0526831783,0.0394391455
103409.427522,-2.09577342,-0.306586115,0.181028767,0.0217866413,-0.0217923764,0.00431604497
103409.437549,-2.03181416,-0.280388648,0.271594004,0.0141843809,0.00651516207,-0.0324859098
103409.447577,-1.90036337,-0.292303469,0.105599725,0.013631775,0.0101759434,-0.0651375949
103409.457604,-1.78631161,-0.354547378,-0.113805243,0.0200057849,0.000282832654,-0.0902666524
103409.467632,-1.6795199,-0.454185637,-0.210703775,0.0387571007,-0.00344053283,-0.111736789
103409.477659,-1.6170953,-0.567998844,-0.304993001,0.0637580603,8.25629104e-05,-0.125165254
103409.487687,-1.58812026,-0.672222677,-0.312296602,0.0826830119,0.00339793228,-0.132260174
103409.497714,-1.62240246,-0.820588215,-0.222208334,0.0935753435,0.00469329394,-0.136250645
103409.507742,-1.63910605,-0.937511298,-0.169884857,0.0982590467,-0.00292680925,-0.133384287
103409.517769,-1.62391287,-1.052029,-0.135584528,0.0981132984,-0.0200546291,-0.120145991
103409.527797,-1.5882015,-1.16299931,-0.0758925686,0.093663685,-0.0282779392,-0.0933490023
103409.537824,-1.60639022,-1.24287912,0.0950046808,0.0798762366,-0.0112012178,-0.0533757508
103409.547851,-1.60600619,-1.24432786,0.285154912,0.0543178767,-0.00184020668,-0.0119476169
103409.557879,-1.70542503,-1.23205378,0.468129553,0.00246906187,0.0136870872,0.0222838558
103409.567907,-1.83341545,-1.23551795,0.618739801,-0.0399095528,0.0251362845,0.0541091636
103409.577935,-1.98578102,-1.23933619,0.702379038,-0.0750369132,0.0590308644,0.0792992041
103409.587962,-2.04779207,-1.20702952,0.662151657,-0.0981603414,0.0854773894,0.0948193073
103409.597990,-2.14664787,-1.12134256,0.362074486,-0.109864935,0.0898638815,0.0874143913
103409.608017,-2.15183521,-1.05606147,0.0770581052,-0.0911418498,0.0888582692,0.0701089054
103409.618045,-2.19545662,-1.00555922,-0.0867956554,-0.0464113951,0.08875148,0.0508174971
103409.628072,-2.15233469,-0.97190252,-0.312267376,0.00674450072,0.0651867613,0.0219823867
103409.638100,-2.11875449,-0.992438966,-0.494594951,0.0541216023,0.0284263529,-0.00244625658
103409.648127,-2.11159395,-1.05552356,-0.445906615,0.0974035636,0.00351301348,-0.0132150147
103409.658155,-2.08667534,-1.13187579,-0.164669753,0.127046674,0.000503375079,-0.00845354982
103409.668182,-2.11031545,-1.18829143,0.100694417,0.129355639,-0.00602935906,0.00893955585
103409.678210,-2.07243551,-1.19447742,0.275863352,0.105008751,-0.0181456767,0.0281923451
103409.688237,-2.06178903,-1.20875773,0.511393525,0.0632924661,-0.0101061258,0.0593262948
103409.698265,-1.96169755,-1.24467098,0.751783997,0.027893994,0.0246981941,0.0965101495
103409.708292,-1.93636598,-1.15681105,0.817802822,-0.00638861209,0.0511561632,0.124701574
103409.718320,-1.93962366,-1.04953916,0.704988344,-0.0537414812,0.0635294765,0.14047201
103409.728347,-1.93192039,-0.954809931,0.529148962,-0.0762824789,0.079551585,0.144743457
103409.738375,-1.91561296,-0.86275672,0.352760714,-0.0679529086,0.102319747,0.135643169
103409.748402,-1.85778621,-0.770686486,0.139387428,-0.0447061732,0.117649704,0.117938474
103409.758430,-1.7638838,-0.795955221,-0.15753391,-0.0212373324,0.116329312,0.1039939
103409.768458,-1.62319157,-0.780033794,-0.410713721,-0.00301145739,0.0973377749,0.0909675807
103409.778485,-1.4963623,-0.749531323,-0.655188248,0.0297696572,0.0791047066,0.0823557153
103409.788513,-1.35446055,-0.798351322,-0.640630146,0.0617441013,0.0816275179,0.0887741968
103409.798539,-1.29833768,-0.776635676,-0.651324558,0.0775433034,0.0744335204,0.101211958
103409.808568,-1.27577149,-0.715392614,-0.633282706,0.0818160847,0.0588409826,0.111044355
103409.818595,-1.33614105,-0.687644337,-0.504122073,0.0804357678,0.0560129732,0.124739923
103409.828623,-1.45008863,-0.649459276,-0.276579976,0.06517452,0.04837396,0.138882905
103409.838650,-1.58757066,-0.608857582,-0.258071675,0.0266670752,0.0190062206,0.144983411
103409.848678,-1.69756745,-0.496249221,-0.329140769,-0.00107294251,-0.00781580806,0.143997237
103409.858705,-1.78050307,-0.400011856,-0.230648246,-0.0104001323,-0.0142076602,0.140645921
103409.868733,-1.80564423,-0.269263808,-0.301634338,-0.00146735669,-0.0245660245,0.121691138
103409.878760,-1.7893425,-0.207198616,-0.392770068,0.00349464524,-0.0443104357,0.10035602
103409.888788,-1.69268128,-0.170276195,-0.388383816,0.000547591073,-0.0734371617,0.0769391134
103409.898815,-1.69503457,-0.121815312,-0.426498735,-0.00424450077,-0.102382794,0.0495354496
103409.908843,-1.63905432,-0.0736509271,-0.320531346,-0.00876548328,-0.129319593,0.0186161511
103409.918870,-1.64239487,-0.0387172687,-0.259815888,0.00892909151,-0.140151739,-0.0141646992
103409.928898,-1.57949271,-0.0965849357,-0.0357803384,0.0296069384,-0.133405685,-0.0369325951
103409.938926,-1.45769121,-0.196555349,0.220976162,0.0296151955,-0.134821683,-0.0521070212
103409.948953,-1.33780592,-0.305520239,0.275124517,0.0122583089,-0.146879941,-0.052813556
103409.958980,-1.25384242,-0.362269424,0.430016972,-0.0187456794,-0.151126355,-0.0576218963
103409.969008,-1.19682749,-0.440094714,0.505597406,-0.0268523414,-0.133880794,-0.0603734702
103409.979036,-1.220163,-0.429220561,0.595675736,-0.0115745859,-0.0879641771,-0.0693158358
103409.989063,-1.22099404,-0.443234985,0.640489861,-0.0147754392,-0.0577516779,-0.085505724
103409.999091,-1.20051188,-0.445942563,0.404838692,-0.0259644445,-0.051240515,-0.104973428
103410.009118,-1.07945426,-0.524228091,0.357585358,-0.0329970531,-0.022502074,-0.116590932
103410.019146,-0.967239277,-0.613910408,0.249072376,-0.00581976073,0.0158945825,-0.1132247
103410.029173,-0.867023292,-0.823148275,0.037438627,0.00512716267,0.0339995474,-0.0947764516
103410.039201,-0.749647132,-0.841733441,-0.189030872,0.00470851408,0.0127358064,-0.0820268393
103410.049227,-0.69855853,-0.935515448,-0.23407822,-0.00559019623,-0.00333290827,-0.0544250384
103410.059256,-0.641796852,-0.993380485,-0.216194773,0.000559841574,-0.00901609473,-0.0150573906
103410.069283,-0.696720866,-1.04263047,-0.276549581,0.00143788569,-0.0243407208,0.0253243875
103410.079311,-0.808007624,-1.0809765,-0.351588748,-0.0156090092,-0.0620058104,0.0673887506
103410.089338,-0.918023192,-1.07127533,-0.197838448,-0.036327336,-0.079219155,0.0998231247
103410.099366,-1.1032584,-0.956222501,0.0970358944,-0.0437639467,-0.0731476769,0.126200408
103410.109393,-1.19930433,-0.83151081,0.175747612,-0.0581572689,-0.0679047108,0.139522597
103410.119421,-1.23416156,-0.711699897,0.0750152012,-0.0670298561,-0.079418622,0.139845639
103410.129449,-1.19499531,-0.504902483,0.0110527244,-0.0638146177,-0.0832101628,0.130477175
103410.139476,-1.10127694,-0.423482821,0.0316255568,-0.041232612,-0.0797475204,0.125519156
103410.149504,-0.960578577,-0.351590574,-0.0836696323,-0.035315603,-0.0929538757,0.11945115
103410.159531,-0.864120556,-0.292156827,-0.0993038393,-0.0251897313,-0.100503668,0.109832078
103410.169559,-0.844604758,-0.218653053,0.0727028326,-0.00904218573,-0.0909253433,0.103024773
103410.179586,-0.868281987,-0.148587802,0.178094467,-0.00251238095,-0.0994927287,0.0916445553
103410.189614,-0.81573303,-0.0863924814,0.0953740987,-0.0106613878,-0.127935812,0.0776096955
103410.199641,-0.733379741,-0.0248685569,0.197138191,-0.0040056156,-0.136195078,0.0691581517
103410.209669,-0.620828225,-0.024774595,0.423507152,0.00183869153,-0.102916494,0.0719528794
103410.219696,-0.538567436,0.0303692732,0.604569237,0.00201898767,-0.0592896529,0.0715771019
103410.229724,-0.563066977,0.0696852384,0.593765519,-0.00584026705,-0.0255932063,0.0697584301
103410.239751,-0.543811365,0.111396867,0.58082888,-0.0248720162,-0.00643842062,0.0630049258
103410.249779,-0.570817737,0.104567459,0.574365822,-0.0534272268,0.00706274109,0.0485705882
103410.259806,-0.583722885,0.0978498411,0.608825141,-0.0609631725,0.0407663733,0.0388005152
103410.269834,-0.566199868,0.0212775466,0.56739949,-0.0658777729,0.0747043639,0.0354028568
103410.279862,-0.515242894,-0.0319890564,0.341858796,-0.0744558126,0.0783164129,0.0306009091
103410.289889,-0.512121109,-0.0316553675,0.0593704729,-0.0676628873,0.0639422685,0.0139207318
103410.299917,-0.572317913,-0.0163758191,-0.15946517,-0.0379510671,0.0436391272,-0.00443776883
103410.309944,-0.630919776,-0.00172623927,-0.18783494,0.00802894309,0.0438292772,-0.0274823681
103410.319972,-0.792241972,-0.00332490664,-0.00860591578,0.0583621562,0.0523426048,-0.0483900458
103410.329999,-0.845263515,-0.0705700584,0.157459676,0.0621358529,0.0450942777,-0.0686793402
103410.340027,-0.855399124,-0.172075792,0.30305005,0.0421014242,0.0273211412,-0.0783282369
103410.350054,-0.871166967,-0.232833481,0.304700155,0.026858557,0.0118393861,-0.0818606541
103410.360082,-0.88491273,-0.282398745,0.264585587,0.0227924418,0.01531348,-0.0821381584
103410.370109,-0.928856136,-0.331093072,0.442346877,0.0263834484,0.0500003546,-0.0776011944
103410.380137,-0.973058266,-0.355503145,0.635261312,0.0277549773,0.0898548216,-0.0818385482
103410.390164,-0.954840691,-0.384116733,0.657445087,0.00697299978,0.117871277,-0.0920259431
103410.400192,-0.88491368,-0.470371414,0.466440285,-0.0287533067,0.124984317,-0.0971386805
103410.410220,-0.772104755,-0.542868641,0.0978846202,-0.0323834606,0.12247695,-0.0992481709
103410.420247,-0.652204994,-0.591036386,-0.218382639,0.00361022633,0.134411111,-0.0896884874
103410.430275,-0.6154024,-0.663077175,-0.286833075,0.050543379,0.152160287,-0.0787263811
103410.440302,-0.607215221,-0.752617306,-0.489874352,0.0641180426,0.135620981,-0.0652198941
103410.450330,-0.550140239,-0.799558944,-0.540912465,0.0571573414,0.118715502,-0.0405955054
103410.460357,-0.595152151,-0.850714912,-0.396762353,0.0574140698,0.11449679,-0.00659333169
103410.470385,-0.722459484,-0.801155712,-0.276906139,0.0536861755,0.0902750716,0.0281595886
103410.480412,-0.845648422,-0.789743287,-0.214146609,0.0264241956,0.0601629764,0.0647037476
103410.490440,-0.924279768,-0.802267546,-0.0474561632,-0.010140474,0.0445259586,0.107071713
103410.500467,-0.954133785,-0.741568162,0.266962837,-0.0370943286,0.0644344166,0.14960745
103410.510495,-1.06648386,-0.613712328,0.302567819,-0.0614729039,0.0702755302,0.172050446
103410.520522,-1.10674551,-0.500410432,0.122727385,-0.0882440656,0.0558847971,0.184747398
103410.530550,-1.14544524,-0.326059535,-0.0168412447,-0.101238698,0.0468367077,0.180034131
103410.540578,-1.19939486,-0.162598427,0.0534434209,-0.0823084116,0.067018941,0.169703469
103410.550605,-1.17030942,-0.0341476227,0.0614092852,-0.0616947524,0.0744204,0.144166946
103410.560633,-1.13895442,0.0768061763,-0.188599495,-0.0630849227,0.0397582911,0.112898514
103410.570660,-1.05973672,0.135763977,-0.429899483,-0.0567178391,-0.00467335526,0.0784824863
103410.580688,-1.00637251,0.178232122,-0.478761422,-0.0140396152,-0.0286061186,0.0522189215
103410.590715,-0.931497664,0.176579898,-0.404800698,0.0302394312,-0.0343987606,0.0236160364
103410.600743,-0.938520037,0.20983839,-0.337991015,0.0663449764,-0.0345961004,-0.00861593522
103410.610770,-0.879174698,0.148957878,-0.125911276,0.0545588844,-0.0252667796,-0.0398486927
103410.620798,-0.803772543,0.0504554181,0.00588321282,0.0443653688,-0.0153417122,-0.058745943
103410.630825,-0.715375517,-0.0198389652,-0.044634676,0.0466295891,-0.00798393041,-0.0693722218
103410.640853,-0.609167525,-0.045055824,-0.362042337,0.056214571,-0.0442702994,-0.0783737078
103410.650881,-0.51890865,-0.174782128,-0.51063014,0.0724079236,-0.0881613269,-0.0691935271
103410.660908,-0.490830483,-0.257987504,-0.252655495,0.0956964716,-0.103069969,-0.0404353812
103410.670936,-0.545015736,-0.283745849,0.0834042594,0.078854911,-0.105487853,-0.0150751658
103410.680963,-0.643908656,-0.262001562,0.314514862,0.0407096483,-0.125832006,-0.00160516426
103410.690991,-0.748107428,-0.276857478,0.439425436,0.00419238536,-0.133561566,0.013421189
103410.701018,-0.77041008,-0.240527762,0.665907795,0.00865744147,-0.110520691,0.0248203184
103410.711046,-0.793935478,-0.197243478,0.784423115,0.00545925088,-0.0813289881,0.0250980854
103410.721073,-0.768695823,-0.0883537716,0.950419733,0.00957809575,-0.0345715992,0.0169858299
103410.731101,-0.770372597,-0.0394362306,1.17588444,-0.0200575609,0.0156835821,-0.00122193526
103410.741128,-0.739690313,-0.060384253,1.09131347,-0.067613624,0.0427844413,-0.018776428
103410.751156,-0.62827328,-0.0958883318,0.665704381,-0.0872834697,0.0443716832,-0.0384153798
103410.761184,-0.451590506,-0.140014474,0.155937581,-0.0610976741,0.0541902259,-0.0521098822
103410.771211,-0.389067122,-0.209940316,0.0453629903,0.00249488628,0.0873734802,-0.0564036965
103410.781239,-0.411482514,-0.2812609,0.00571603956,0.0574180558,0.104185753,-0.0592037439
103410.791266,-0.407094216,-0.373215108,-0.185014622,0.061168585,0.0691478699,-0.065199852
103410.801294,-0.327059871,-0.474051856,-0.378987627,0.0584316552,0.0200106855,-0.0530984476
103410.811321,-0.29210422,-0.59098166,-0.314412571,0.0546225347,0.00705280947,-0.0244265888
103410.821349,-0.349060983,-0.597120748,-0.131474755,0.0600013211,0.0118315853,0.00123483129
103410.831376,-0.498720068,-0.486082997,-0.0062298343,0.0524105132,0.0290268175,0.0192862693
103410.841404,-0.587865574,-0.431125445,0.188149413,0.0339958183,0.0501344986,0.0338300578
103410.851431,-0.703359501,-0.353366059,0.259567467,-0.000613821554,0.0482846685,0.0396072529
103410.861459,-0.71946191,-0.269011733,0.166399353,-0.0303805061,0.0310606752,0.0386820734
103410.871487,-0.662696797,-0.21158538,0.010988427,-0.0360929854,0.0169935916,0.0395835489
103410.881514,-0.626273119,-0.178491431,-0.113740945,-0.021674633,0.0175054502,0.0375582166
103410.891542,-0.663377984,-0.0535332911,-0.16560265,0.00505471695,0.0350415669,0.0227678195
103410.901569,-0.769102577,0.0539987167,-0.130651164,0.0245916657,0.0554602891,-0.00442651659
103410.911597,-0.833770791,0.0427775038,-0.134192782,0.026973065,0.052602984,-0.0335846692
103410.921624,-0.81037523,-0.0420774658,-0.317683555,0.0149046844,0.0210029799,-0.0574319437
103410.931652,-0.682173286,-0.17174108,-0.387294852,0.027928073,0.0218069889,-0.0615209565
103410.941679,-0.649665393,-0.309660992,-0.136522686,0.0643595904,0.043241173,-0.0462256297
103410.951707,-0.66549863,-0.445512867,-0.173817521,0.0564193688,0.016806636,-0.0249834564
103410.961735,-0.688816815,-0.566252731,-0.214257083,0.0145470221,-0.0250486676,0.00523383357
103410.971762,-0.723614865,-0.600337883,0.118543377,0.00269568875,-0.0263663996,0.0504162237
103410.981790,-0.787103075,-0.531448325,0.329698987,-0.00151210581,-0.0223719236,0.082528621
103410.991817,-0.88076679,-0.334433834,0.349143108,-0.0184546039,-0.0341396369,0.0843845829
103411.001845,-0.905956834,-0.181102271,0.525118099,-0.0624095462,0.00625679037,0.0716240406
103411.011872,-0.93302765,-0.0417985758,0.771675277,-0.068883419,0.0895546079,0.0502268746
103411.021900,-0.946264148,0.116097738,0.479421931,-0.0677188188,0.14933911,0.0162870176
103411.031927,-0.840444643,0.135320544,0.00237783505,-0.0727109164,0.173266023,-0.0242854413
103411.041955,-0.752872743,0.0699133481,-0.423291463,-0.0669803247,0.164196894,-0.0597843155
103411.051982,-0.618070377,-0.0601614771,-0.986625019,-0.0360280052,0.108759731,-0.0799503028
103411.062010,-0.514242558,-0.218712382,-1.39640175,0.014384835,0.0189981516,-0.0857618526
103411.072038,-0.431006422,-0.387403646,-1.61226159,0.0799960718,-0.0876246989,-0.0744916201
103411.082065,-0.348304246,-0.506107182,-1.4561621,0.121553905,-0.188622952,-0.0606069639
103411.092093,-0.398163452,-0.549646391,-0.915631913,0.141176865,-0.251775831,-0.0447885841
103411.102120,-0.557990441,-0.422375371,-0.0509416672,0.149890468,-0.260990083,-0.0408694819
103411.112148,-0.73303575,-0.282414016,0.581458995,0.141421616,-0.223564431,-0.0388894156
103411.122175,-0.807100519,-0.225036178,1.10895727,0.114429146,-0.188256502,-0.0330035686
103411.132203,-0.734567344,-0.270365193,1.19517132,0.105857231,-0.137541398,-0.00560496561
103411.142231,-0.606915142,-0.312637305,1.31890584,0.0544057526,-0.0873754248,0.0299341194
103411.152258,-0.694555432,-0.338431233,1.52625154,-0.00806614477,-0.058410354,0.0676490068
103411.162286,-0.781696832,-0.325723581,1.48440328,-0.0599687584,-0.0514278114,0.0932220146
103411.172312,-0.796271739,-0.327030791,1.33628952,-0.0721780136,-0.0437421948,0.117029339
103411.182340,-0.760168672,-0.327961496,1.1419056,-0.0559452549,-0.0350533649,0.127500355
103411.192367,-0.768926271,-0.352514046,1.09426063,-0.0405255519,-0.00435031345,0.134947613
103411.202395,-0.78101886,-0.260064383,1.1328759,-0.0275703389,0.0336103812,0.117671967
103411.212423,-0.769776312,-0.145487644,1.09319797,-0.0174593814,0.0979659334,0.0882181972
103411.222450,-0.713415104,-0.0264836639,0.946080243,-0.0082967747,0.188916609,0.0540479794
103411.232478,-0.604855945,0.0182064686,0.825265998,-0.00503600063,0.290944725,0.019606648
103411.242505,-0.397124464,0.0615284546,0.490160183,-0.0230498891,0.359448403,-0.0220830087
103411.252533,-0.143184555,-0.0451740436,-0.157284319,-0.0484599061,0.379313976,-0.0414497852
103411.262560,0.23672837,-0.234168675,-0.916751272,-0.0482346043,0.365439445,-0.0360259861
103411.272588,0.492139739,-0.402890846,-1.71394035,0.0138849597,0.334127069,0.00274937088
103411.282615,0.597299392,-0.556208015,-2.40178583,0.109466881,0.273271173,0.0527699292
103411.292643,0.455132197,-0.588861526,-2.60812206,0.18388252,0.190158188,0.0934446529
103411.302671,0.171822474,-0.548884248,-2.35404442,0.197643876,0.0790774673,0.119467467
103411.312698,-0.0966340356,-0.467073906,-1.78411161,0.161583871,-0.00116570573,0.138454735
103411.322726,-0.365609674,-0.367813029,-1.31289929,0.119888097,-0.0708089694,0.153886423
103411.332753,-0.552595012,-0.19565672,-0.834367004,0.0723911524,-0.109225862,0.156811908
103411.342781,-0.724186673,0.028087665,-0.404151879,0.0606900156,-0.137574151,0.152294114
103411.352808,-0.799501369,0.208838492,-0.168883571,0.0413330942,-0.161848336,0.142595947
103411.362836,-0.704324181,0.320857802,-0.0897954217,0.0234046951,-0.197276101,0.135341763
103411.372864,-0.620320787,0.400679234,0.00343640419,0.0164450556,-0.229634568,0.133323893
103411.382891,-0.555861393,0.535279135,0.256636089,0.0221953522,-0.234826133,0.138370842
103411.392919,-0.535019827,0.639134647,0.542955369,0.00756687671,-0.225051269,0.141079277
103411.402946,-0.584468187,0.763876294,1.01396603,-0.0387417674,-0.185106784,0.138001189
103411.412974,-0.616914412,0.837341343,1.28020757,-0.0525553152,-0.132880867,0.13688001
103411.423001,-0.748804982,0.943776642,1.67116386,-0.102848575,-0.0496687926,0.110498473
103411.433029,-0.796723794,0.97205413,1.67227563,-0.160681516,0.021658916,0.0716829002
103411.443057,-0.764440138,0.873282864,1.39691321,-0.20481649,0.07528539,0.0307517108
103411.453084,-0.612244375,0.706719406,0.819379278,-0.213298649,0.103762574,-0.00244539138
103411.463112,-0.425599229,0.53500989,0.306176657,-0.203654021,0.117106341,-0.0305153746
103411.473139,-0.278285684,0.364952745,-0.0630009383,-0.149294376,0.123120561,-0.0512885675
103411.483167,-0.189591209,0.178233511,-0.318883579,-0.111465767,0.118439518,-0.0651846677
103411.493194,-0.0794867206,-0.0107941465,-0.466859387,-0.0844144449,0.0947661474,-0.0653348714
103411.503222,-0.0383762732,-0.180157318,-0.677308894,-0.0590049587,0.0551068857,-0.0569901243
103411.513250,0.0222564747,-0.384690222,-0.738821056,-0.0326439254,0.00971170887,-0.0326147452
103411.523277,0.0844572025,-0.539455983,-0.681533819,-0.00819102116,-0.0178098455,0.00573847536
103411.533305,0.0328908275,-0.546857272,-0.323761999,-0.00515102316,-0.0410802811,0.0312952325
103411.543332,-0.134381217,-0.497807118,-0.259873171,-0.0219891258,-0.0803986564,0.0518271402
103411.553360,-0.218428158,-0.41525721,-0.157581256,-0.0491685495,-0.10068129,0.062420398
103411.563387,-0.323095717,-0.28903716,-0.0773182175,-0.0328779928,-0.103770562,0.0657163262
103411.573415,-0.419328697,-0.120542954,0.0348404272,-0.0125199901,-0.0932422876,0.053006921
103411.583443,-0.438013743,0.0210436648,0.163837979,-0.000701680023,-0.105477646,0.0300616585
103411.593470,-0.342450186,0.115388859,0.0441191277,-0.0095939748,-0.127738222,0.0010475833
103411.603498,-0.197704081,0.185816732,-0.00178220724,0.00858209934,-0.126341924,-0.0241046399
103411.613525,-0.0483897177,0.295841945,0.207292505,0.0361016057,-0.0826990977,-0.0431265347
103411.623553,0.0575116932,0.414740566,0.315863354,0.0470168404,-0.0440560952,-0.0710223541
103411.633581,0.158167751,0.499965318,0.302453253,0.0407181978,-0.0255050492,-0.0959873572
103411.643608,0.184638921,0.511096515,0.171828977,0.0436657853,-0.0200322531,-0.114447325
103411.653636,0.23306992,0.39113253,-0.0217997439,0.0672113299,-0.0221065879,-0.112722129
103411.663663,0.186906719,0.157020042,0.0537310057,0.0937350765,-0.0103042591,-0.0840792954
103411.673691,0.0478751192,0.0293848652,0.292089095,0.0991735235,-0.00777372345,-0.0434879251
103411.683718,-0.0484248621,-0.0594892039,0.624710692,0.0726934448,-0.0140787568,0.0111793131
103411.693746,-0.158114559,-0.0991697646,0.930941126,0.00778155308,-0.0238347147,0.0667448342
103411.703774,-0.258820886,-0.0626570202,1.17639414,-0.0695324093,-0.0165166128,0.111310706
103411.713801,-0.371756506,0.0105828419,1.27052964,-0.137086421,0.0163886044,0.129401565
103411.723829,-0.605846344,0.213447666,1.20244044,-0.170971677,0.0764953494,0.10766004
103411.733856,-0.782307146,0.421814669,0.894437734,-0.166264012,0.146950603,0.0466712601
103411.743884,-0.826900613,0.573271816,0.431845941,-0.144952863,0.204301775,-0.037220709
103411.753911,-0.615040435,0.622866014,-0.0214314951,-0.108242251,0.24225688,-0.130315229
103411.763939,-0.304772344,0.568114799,-0.726446143,-0.0589026697,0.234502822,-0.206284836
103411.773967,0.13030783,0.378685867,-1.50491356,0.00101046613,0.182124302,-0.256403923
103411.783994,0.5079702,0.0415219508,-2.33743991,0.0959004983,0.0643185824,-0.249684766
103411.794022,0.784555656,-0.344062005,-2.86971372,0.20010066,-0.0896560699,-0.188777745
103411.804049,0.795901956,-0.656196987,-2.74923266,0.260980517,-0.274062127,-0.107974775
103411.814077,0.477722945,-0.704077074,-1.94299402,0.270919442,-0.442411184,-0.0511176176
103411.824105,0.0446040617,-0.663999185,-0.673648618,0.252746552,-0.524053037,0.00727032544
103411.834132,-0.215667023,-0.542991317,0.705088297,0.23999323,-0.529914916,0.0571718402
103411.844160,-0.495429721,-0.377954411,1.70647542,0.216217846,-0.494193971,0.105105542
103411.854187,-0.60649509,-0.197069728,2.53747499,0.139027193,-0.443120122,0.153124467
103411.864215,-0.500332398,0.0359192354,3.14177359,0.00888570026,-0.366760373,0.193081468
103411.874243,-0.489709005,0.427097505,3.57219038,-0.150665611,-0.251144022,0.182658121
103411.884270,-0.474606786,0.836246241,3.37146673,-0.268286794,-0.113984317,0.134105772
103411.894298,-0.278396049,1.11369467,2.63642987,-0.330181867,0.0332133919,0.0454416797
103411.904325,0.0422371499,1.28196011,1.71859197,-0.314736843,0.165775418,-0.0587584935
103411.914353,0.386244064,1.32540894,0.890690364,-0.268211961,0.303181231,-0.178175971
103411.924381,0.603600173,1.21977436,0.0353840326,-0.17053625,0.391271412,-0.283198774
103411.934408,0.927238764,0.995359164,-0.929656347,-0.0727787986,0.430596441,-0.369018883
103411.944436,1.21826359,0.626308775,-1.68153796,0.0685722008,0.429218531,-0.412214816
103411.954463,1.50206139,0.0613070669,-2.12152687,0.192672044,0.40443036,-0.391508192
103411.964491,1.68451902,-0.509429093,-2.39479963,0.25705421,0.307830572,-0.324434638
103411.974519,1.582471,-0.817033591,-2.51923849,0.234973699,0.137833267,-0.245396271
103411.984546,1.2161192,-0.947983446,-2.07323017,0.177599087,-0.0101623125,-0.172653899
103411.994574,0.736343559,-0.952750514,-1.14133043,0.124150246,-0.0702357665,-0.107187815
103412.004601,0.274032191,-0.904652108,-0.442187887,0.0820459351,-0.0608302839,-0.0531187169
103412.014629,-0.117678577,-0.737511434,0.0108697691,0.0557288378,-0.0283538327,-0.013988358
103412.024657,-0.401768491,-0.615044527,0.198509479,0.0167782437,-0.0147807663,0.0127471164
103412.034684,-0.524011453,-0.510740833,0.498231846,-0.0291564912,0.00139101339,0.0368351415
103412.044712,-0.565986627,-0.276403816,0.694924631,-0.0700783581,0.0180887673,0.0522282124
103412.054739,-0.487049211,-0.131966119,0.734230221,-0.101174489,0.0301952306,0.0675318018
103412.064767,-0.361460446,-0.0395079807,0.519865001,-0.119836323,0.0183822475,0.0784142762
103412.074794,-0.341836073,-0.00991933647,0.0968570307,-0.110725917,-0.0258683041,0.0879949927
103412.084822,-0.409248252,0.0157912972,-0.0468143581,-0.0671917573,-0.0523875281,0.0901103467
103412.094850,-0.65278484,0.0344588806,0.339202729,-0.00179650565,-0.0413479283,0.0839113072
103412.104877,-0.849481644,0.162205701,0.777658443,0.0351841487,-0.0250246134,0.0582418963
103412.114905,-0.95419231,0.242066516,0.992598248,0.0252803843,-0.00613987353,0.0130813429
103412.124932,-0.96128921,0.312465967,1.18657008,-0.0143314721,0.0317872688,-0.0349703394
103412.134960,-0.875385097,0.257070754,1.18727093,-0.046336811,0.0929856449,-0.0703999698
103412.144988,-0.643737976,0.150453523,1.03318979,-0.0630505383,0.172085524,-0.0943327323
103412.155015,-0.427943235,0.00990165468,0.546713845,-0.0742952004,0.216805845,-0.105934799
103412.165043,-0.14640001,-0.124478832,-0.151868139,-0.0827970803,0.218515068,-0.108342029
103412.175071,0.133590651,-0.250276345,-0.79737086,-0.0739090443,0.178540751,-0.0938765332
103412.185098,0.28198147,-0.457175759,-1.33408353,-0.0470231064,0.113058157,-0.0591012426
103412.195126,0.3516453,-0.650038756,-1.56362294,0.0121688452,0.0632282794,0.00412220275
103412.205153,0.312167422,-0.747795293,-1.43539462,0.0493436418,-0.00607116427,0.0736429542
103412.215181,0.171081958,-0.71935012,-1.16024146,0.0269941296,-0.105501883,0.128575444
103412.225209,0.0783311208,-0.644817222,-0.708577308,-0.0157496054,-0.19617559,0.178468168
103412.235236,0.0685217476,-0.542844237,-0.28691257,-0.0415314026,-0.229705065,0.226259932
103412.245264,0.0205781662,-0.409605395,0.0465016389,-0.0398370996,-0.230246753,0.270120621
103412.255291,-0.0895699424,-0.180686822,0.359947411,-0.0368037596,-0.192629606,0.290469289
103412.265319,-0.324476796,0.128807874,0.976439141,-0.0434153229,-0.120996147,0.275781155
103412.275347,-0.465282493,0.518315579,1.37092829,-0.0891367346,-0.0489081107,0.215361744
103412.285374,-0.404760585,0.819579257,1.23276076,-0.139678478,-0.00255286205,0.141361281
103412.295402,-0.0966151848,0.834041498,0.647157502,-0.132283136,0.0383024253,0.0885502622
103412.305429,0.166683869,0.706259095,0.0926975729,-0.0592938885,0.0736271292,0.0695917532
103412.315457,0.232433741,0.631281449,-0.267851311,0.0340440497,0.070953317,0.0666881129
103412.325485,0.141617306,0.528903244,-0.334392114,0.0862710401,0.0257083382,0.0638238788
103412.335512,-0.0159797325,0.350797816,0.143911043,0.0831876323,-0.00634706765,0.0680364668
103412.345540,-0.101722372,0.239316779,0.605582213,0.0388566479,-0.0275341105,0.0741913021
103412.355567,-0.0791370304,0.170571744,0.792357415,-0.0090485597,-0.0180154406,0.0880858079
103412.365595,-0.152632621,0.15173443,0.869290433,-0.0187983923,0.021531703,0.103976093
103412.375623,-0.335372357,0.251023656,0.876883372,-0.0199411549,0.0624857917,0.0963037908
103412.385650,-0.575059503,0.42806065,0.69962068,-0.0158550665,0.0719077885,0.0528924055
103412.395678,-0.614258783,0.617153336,0.625226825,-0.0463551842,0.0821819976,-0.0112426383
103412.405706,-0.4766616,0.673716423,0.426128148,-0.0671238452,0.0919491425,-0.0838976726
103412.415733,-0.192444918,0.633888782,-0.128414783,-0.0504833534,0.0964637324,-0.137442648
103412.425761,0.104064916,0.544770967,-0.741378339,0.0042768335,0.0819130242,-0.180719554
103412.435788,0.245413123,0.444839644,-1.31623867,0.0918719321,0.02161506,-0.218615264
103412.445816,0.325287893,0.342401379,-1.61609138,0.179504305,-0.0550336465,-0.250631243
103412.455844,0.471296858,0.124907871,-1.42283851,0.250103891,-0.128543824,-0.25611949
103412.465871,0.648435632,-0.118911845,-0.961605144,0.273025721,-0.179414734,-0.231902316
103412.475899,0.720761375,-0.167011202,-0.501223429,0.255457133,-0.213647261,-0.203651771
103412.485927,0.742495872,-0.195278096,-0.103599491,0.209762886,-0.215547159,-0.156065866
103412.495954,0.707123968,-0.200910549,0.497276737,0.138253018,-0.175300136,-0.108572394
103412.505982,0.626774931,-0.112544502,0.936716202,0.0402697213,-0.102131382,-0.073038362
103412.516009,0.569551371,-0.013506255,1.11313368,-0.0537140332,-0.00753137562,-0.0511533022
103412.526037,0.617096418,0.0685305154,0.875380567,-0.104428813,0.0725757331,-0.030465886
103412.536065,0.731623691,0.0762117906,0.292244578,-0.121498346,0.123217337,-0.00393787306
103412.546092,0.725356082,0.0354705418,-0.307643223,-0.117070839,0.132257178,0.0273715798
103412.556120,0.652909197,-0.0412682683,-0.601168489,-0.105169438,0.110868528,0.0538548529
103412.566147,0.475595797,-0.101256727,-0.643693625,-0.0995810628,0.0743560567,0.0782057345
103412.576175,0.337894057,-0.0850839561,-0.596467179,-0.0989885032,0.0182789378,0.0921202153
103412.586203,0.184624965,-0.104433019,-0.443268668,-0.098097682,-0.0186910629,0.102833316
103412.596230,-0.0362470061,-0.124052861,-0.128256378,-0.0824944824,-0.0391752981,0.109359652
103412.606258,-0.288825783,-0.123731009,0.0583206715,-0.0704290345,-0.0602603443,0.10046576
103412.616286,-0.53378634,-0.0142512282,0.343249374,-0.0440461673,-0.0661272854,0.0780302286
103412.626313,-0.682609631,0.0541599717,0.686187782,-0.0305399429,-0.0295242704,0.0425848886
103412.636341,-0.665685604,0.121412211,0.948482628,-0.0494694263,0.0302410591,0.0015972415
103412.646368,-0.611928952,0.192418834,0.789718299,-0.0584970117,0.0689407811,-0.0488147996
103412.656396,-0.522701028,0.209768247,0.45903673,-0.0363280587,0.0975918695,-0.0903989971
103412.666424,-0.438971701,0.165358466,0.0841910259,0.0101358471,0.0846931189,-0.126925573
103412.676451,-0.286710471,0.109735948,-0.338242359,0.0503439866,0.0444863066,-0.155573726
103412.686479,-0.118077367,-0.0301001008,-0.569489156,0.105763569,-0.00229930668,-0.154212594
103412.696507,0.0448576711,-0.293191138,-0.579342441,0.152599245,-0.0319237784,-0.123329237
103412.706534,0.112172308,-0.532402557,-0.516491725,0.174269915,-0.0733543113,-0.0629591197
103412.716562,0.0362727981,-0.66992273,-0.257657249,0.152107358,-0.122435838,0.00431206776
103412.726589,-0.167805713,-0.653292571,0.151778707,0.109967642,-0.174848974,0.0712895021
103412.736617,-0.412655759,-0.52784124,0.554749852,0.0754557326,-0.214412615,0.1274039
103412.746645,-0.605401633,-0.402863154,1.05887017,0.06236789,-0.185786039,0.183450669
103412.756672,-0.618798326,-0.270230315,1.5937796,0.0226673521,-0.138960212,0.224396229
103412.766700,-0.648416854,-0.0364019775,1.73282508,-0.0616983958,-0.125540003,0.243136093
103412.776728,-0.643189475,0.205719483,1.59990539,-0.133360073,-0.137363642,0.232442707
103412.786755,-0.584018214,0.532851908,1.4825141,-0.151017889,-0.0880837217,0.187627837
103412.796783,-0.549839393,0.785190519,1.38952661,-0.125747427,-0.0159810297,0.109351933
103412.806811,-0.474789924,1.04109596,0.853742151,-0.0834843814,0.0487223305,-0.00422283076
103412.816838,-0.277558758,1.16544247,0.477812158,-0.0398026854,0.130018532,-0.13502185
103412.826866,0.079174111,1.12363374,-0.0529173512,0.0225645546,0.234777957,-0.2583507
103412.836893,0.588194148,1.00627358,-0.659691405,0.0925212726,0.327110022,-0.358818203
103412.846921,1.15673813,0.781440008,-1.51933956,0.150574714,0.350102156,-0.417231977
103412.856949,1.63651838,0.387626641,-2.51515736,0.21708183,0.309096932,-0.419840813
103412.866976,2.03264857,-0.115720648,-2.84773395,0.257880688,0.277051896,-0.347662747
103412.877004,2.11877801,-0.594352452,-2.98642813,0.28934139,0.170152903,-0.222717077
103412.887032,1.77372437,-0.914784502,-2.96547711,0.224362656,-0.01358312,-0.101479605
103412.897059,1.2751272,-1.23134212,-2.55345056,0.13152805,-0.233461678,0.0324957669
103412.907087,0.770149821,-1.19335361,-1.4621628,0.0484590009,-0.360355735,0.138828337
103412.917115,0.158630911,-0.971973978,-0.351269599,0.0101491632,-0.418265641,0.218748733
103412.927142,-0.178061953,-0.646816141,0.535108163,-0.0297303423,-0.441447109,0.260441065
103412.937170,-0.312537461,-0.266693665,1.0850135,-0.0323247947,-0.449304253,0.277347058
103412.947197,-0.402999713,0.055915364,1.80830088,-0.0194478761,-0.395153642,0.284508318
103412.957225,-0.327898514,0.388116397,2.76503813,-0.0848274156,-0.278452069,0.296006233
103412.967253,-0.220525131,0.714853028,3.15123934,-0.212378189,-0.16329138,0.264822751
103412.977280,-0.303695472,0.990516766,2.8119577,-0.277927876,-0.0542045832,0.214999542
103412.987308,-0.310694391,1.1490589,2.29866156,-0.267170042,0.0756961554,0.138314873
103412.997336,-0.303067659,1.21062163,1.8716198,-0.233526886,0.186153442,0.0373302028
103413.007363,-0.218879117,1.16862935,0.998322471,-0.187174559,0.222641408,-0.079388693
103413.017391,0.00852963568,1.02146216,0.244852712,-0.140611857,0.214303851,-0.186338037
103413.027419,0.270438953,0.659872899,-0.294831672,-0.048924543,0.221778542,-0.262209088
103413.037446,0.531318086,0.237621373,-0.390729502,0.078947939,0.292096108,-0.295699686
103413.047474,0.642516398,-0.15005751,-0.512621021,0.153047994,0.335832655,-0.29027909
103413.057501,0.789790488,-0.52635429,-0.754582104,0.159020394,0.318296552,-0.250919163
103413.067529,0.874820668,-0.851073735,-0.944753962,0.123832323,0.264548361,-0.178020716
103413.077557,0.753816526,-1.06526382,-0.918094504,0.0790358186,0.202039719,-0.0798486173
103413.087584,0.554093288,-1.17750744,-0.840969763,0.0296256598,0.133508593,0.021572547
103413.097612,0.385434246,-1.2288015,-0.67484455,-0.0218516458,0.0744745657,0.133188561
103413.107640,0.254382173,-1.190967,-0.557177956,-0.0647607595,0.0172682684,0.237096846
103413.117667,0.108628059,-0.985916652,-0.522462032,-0.0987387002,-0.0402458906,0.320802391
103413.127695,-0.0706445849,-0.66939666,-0.383001538,-0.108707711,-0.0753263757,0.375273645
103413.137723,-0.236722451,-0.264346152,0.0465413864,-0.103843451,-0.0749854967,0.400914282
103413.147750,-0.339198345,0.186432453,0.440220971,-0.1345734,-0.061578609,0.390096515
103413.157778,-0.397813762,0.540115396,0.623926264,-0.171475232,-0.0356596597,0.346994579
103413.167806,-0.408421007,0.83730956,0.665587477,-0.163376555,0.0030419291,0.282280833
103413.177834,-0.400579865,0.988545904,0.506357869,-0.141764745,0.0590194426,0.200592637
103413.187862,-0.306492299,1.09853634,0.258016145,-0.0708612651,0.0671000108,0.112482741
103413.197890,-0.148768566,1.11809203,-0.185476979,-0.0120091364,0.0627121851,0.0169021618
103413.207917,0.0216133545,1.03931477,-0.315317995,0.0577084236,0.0446530208,-0.0576927103
103413.217945,0.198898697,0.862293194,-0.43684711,0.140066147,0.0491473712,-0.1011049
103413.227972,0.269115997,0.615744638,-0.158779526,0.199178204,0.0502443276,-0.108441114
103413.238000,0.189823776,0.335622313,-0.015406828,0.201063722,0.0188323427,-0.0951383561
103413.248028,0.0853442875,0.101917237,0.306767025,0.166858882,-0.0169248544,-0.065890193
103413.258055,0.0345177712,-0.122172016,0.720717244,0.108919151,-0.0207337085,-0.0125902165
103413.268083,-0.0595477291,-0.204414977,1.03243108,0.0409704559,-0.0197624527,0.0324978977
103413.278111,-0.258650644,-0.205357007,1.11633569,-0.0335985832,-0.0218972433,0.0598203354
103413.288138,-0.462965156,-0.0791293586,1.05355102,-0.0762166157,-0.0132345129,0.0552215874
103413.298166,-0.649261561,0.145684628,1.00470954,-0.0733963251,0.035579633,0.00618773233
103413.308194,-0.710493006,0.460982165,0.759918204,-0.049761042,0.0835045502,-0.0846556276
103413.318221,-0.565869431,0.68967672,0.223029003,-0.0101047093,0.113853931,-0.196422622
103413.328249,-0.198421216,0.657614452,-0.304017434,0.0473324843,0.154172599,-0.300492585
103413.338277,0.318818989,0.472018231,-0.933615313,0.104415745,0.167817578,-0.364313364
103413.348304,0.742499306,0.231210337,-1.59224523,0.163438842,0.141225904,-0.391686678
103413.358332,1.12599528,-0.0414892907,-1.90079563,0.225180507,0.100149833,-0.373192608
103413.368360,1.30217434,-0.300262246,-1.94261291,0.267992169,0.04794522,-0.318190336
103413.378387,1.35041186,-0.532079097,-1.69461488,0.248434961,-0.0256131515,-0.237902433
103413.388415,1.29658178,-0.745752901,-1.5182243,0.190876067,-0.145138204,-0.133160576
103413.398443,1.0981952,-0.82916169,-1.17219903,0.114241213,-0.258935094,-0.0320382155
103413.408470,0.779910095,-0.846359785,-0.473719336,0.0782089084,-0.310819328,0.0795847178
103413.418498,0.516722246,-0.75212682,0.42138826,0.0558788329,-0.284199715,0.179090008
103413.428526,0.169279585,-0.427315458,1.31725983,0.0110951178,-0.212052524,0.250905335
103413.438553,-0.0636018999,-0.146155315,2.01575647,-0.0919103548,-0.120833412,0.295854181
103413.448581,-0.16538287,0.136360043,2.36850023,-0.259803206,-0.0397369601,0.304148048
103413.458608,-0.307121208,0.450078494,2.07981656,-0.347334653,0.0481851734,0.27911222
103413.468636,-0.414257677,0.646406172,1.56421097,-0.336286813,0.145396948,0.232889056
103413.478664,-0.380637659,0.753954839,1.00518242,-0.283289641,0.222369224,0.161085442
103413.488691,-0.300494447,0.850989199,0.306323372,-0.219342887,0.239391088,0.0735001862
103413.498719,-0.227416132,0.816086082,-0.353390829,-0.149114534,0.215691358,-0.0154584404
103413.508747,-0.0772652452,0.652409285,-0.69153265,-0.0443468355,0.197031111,-0.0831240416
103413.518774,0.0520225943,0.406939171,-0.8942162,0.060232304,0.174917817,-0.124238446
103413.528802,0.18817294,0.167617351,-1.09670101,0.125136867,0.113258421,-0.145269901
103413.538830,0.25284415,-0.0869311914,-1.16353992,0.161541745,0.0484336168,-0.145501867
103413.548857,0.178665765,-0.287147913,-0.773130152,0.186942443,0.0228845831,-0.130518928
103413.558885,0.00523622015,-0.376511738,-0.405815428,0.185220435,0.00231725536,-0.111745231
103413.568913,-0.0777867118,-0.444842493,-0.262536838,0.143221587,-0.024776414,-0.085788466
103413.578940,-0.11592903,-0.464775566,-0.0901718538,0.100498617,-0.0365425237,-0.0540209487
103413.588968,-0.110127285,-0.442364193,0.148217216,0.0600262955,-0.0260952115,-0.0141164102
103413.598996,-0.0795903271,-0.354283686,0.185953949,0.0194948483,-0.032735005,0.0214554332
103413.609023,-0.0101638858,-0.181838184,0.044393853,-0.0110532073,-0.0638223514,0.0463304222
103413.619051,0.105914197,-0.0949696826,-0.314245982,-0.0241921768,-0.134023547,0.0679792613
103413.629079,0.122444842,0.0255278245,-0.466869324,-0.00479637599,-0.188768819,0.080715023
103413.639106,0.0237760124,0.11715543,-0.352554962,0.0444175079,-0.224501505,0.0804774687
103413.649134,-0.0571837034,0.279167655,0.00967208371,0.0904872641,-0.234186098,0.0660226345
103413.659162,-0.167050072,0.342525297,0.523689528,0.122991942,-0.226328969,0.0426909477
103413.669189,-0.236476148,0.362509516,1.01370183,0.115473576,-0.195167586,0.0138158891
103413.679217,-0.164388781,0.334433322,1.12826461,0.0906039104,-0.166708514,0.00273048086
103413.689245,0.0354180079,0.267688375,1.12337333,0.0647928193,-0.13173829,0.00897878967
103413.699272,0.125331905,0.208917768,1.136898,0.0496615395,-0.0901919082,0.0252445787
103413.709300,0.209160016,0.181790253,1.2070225,0.0229689423,-0.0567777567,0.0469091237
103413.719328,0.256384087,0.178990101,1.12836398,-0.00933786482,-0.0512780622,0.0617416054
103413.729355,0.305691322,0.113639677,1.11517249,-0.0487473235,-0.0139280269,0.0767197534
103413.739383,0.252162195,0.0854296277,1.02407066,-0.0577493422,0.0396662243,0.0894110426
103413.749411,0.139924823,0.117380179,0.865324452,-0.0481009744,0.0917174444,0.0942068696
103413.759438,-0.00816971632,0.156812318,0.600972674,-0.0519689508,0.0958219096,0.0806364641
103413.769466,-0.050581894,0.187912828,0.288829217,-0.0859673992,0.0522792228,0.0541345477
103413.779494,0.0187025085,0.152160985,-0.0406651879,-0.0807201713,0.0179880951,0.0378724895
103413.789521,0.0666427654,0.132528356,-0.0406745402,-0.0304820314,0.0253871549,0.0280771162
103413.799549,0.0647390142,0.164824213,-0.131761171,0.000339263614,0.0108372401,0.00207481068
103413.809577,0.128852773,0.192684426,-0.415446595,0.0147592155,-0.0599618293,-0.0308788773
103413.819604,0.265246718,0.261722306,-0.637144057,0.0362240262,-0.112205595,-0.0756527409
103413.829632,0.355653367,0.294127177,-0.323579628,0.0940825343,-0.0794521719,-0.118805811
103413.839660,0.440338788,0.385981577,0.135012282,0.12639308,0.0131057212,-0.162766337
103413.849687,0.582021999,0.474213257,0.205928231,0.0873034522,0.0711253509,-0.200845018
103413.859715,0.888691153,0.436865231,-0.0990308676,0.0112140151,0.0836390108,-0.225868076
103413.869743,1.16111664,0.328389804,-0.644839288,-0.0184362885,0.0958852917,-0.230290249
103413.879770,1.3587562,0.153321991,-0.938283305,0.0192088261,0.123470046,-0.198828474
103413.889798,1.45162855,-0.0428004463,-1.29913263,0.0584393181,0.124057271,-0.141395003
103413.899826,1.50049955,-0.238221458,-1.37662562,0.0596585125,0.0985931903,-0.0617315993
103413.909854,1.44115479,-0.446282901,-1.15695236,0.0222901031,0.0624455735,0.0352585986
103413.919881,1.19473929,-0.585975888,-0.851662422,-0.0438154154,0.0225173328,0.134515941
103413.929909,0.796328584,-0.592774608,-0.413329457,-0.0964522585,-0.0300105885,0.221931532
103413.939937,0.284279225,-0.499582676,0.0182172092,-0.138100371,-0.0550221987,0.279539704
103413.949964,-0.163939064,-0.29040085,0.560714313,-0.146567881,-0.0509025566,0.307299167
103413.959992,-0.53185486,-0.142741707,0.962568436,-0.170566425,-0.0232959613,0.310684323
103413.970020,-0.777529556,0.0634356034,1.2880425,-0.212685123,0.00613729376,0.285240203
103413.980047,-0.920777751,0.201958596,1.27130939,-0.226571634,0.0329502672,0.242617369
103413.990075,-0.943915027,0.323279622,1.17726859,-0.21197325,0.0729900971,0.178988069
103414.000103,-0.976116192,0.484805597,0.82041622,-0.149417207,0.0751272812,0.0897037238
103414.010130,-0.915620442,0.558211025,0.380654683,-0.0817627981,0.0721741021,-0.0142980367
103414.020158,-0.748588124,0.502097581,0.168164025,0.0080856001,0.0737307221,-0.102960527
103414.030186,-0.588963306,0.431982062,0.0862941356,0.0891849771,0.083420895,-0.177793756
103414.040213,-0.404598088,0.286620601,0.00527998623,0.142223433,0.0696369112,-0.233247966
103414.050241,-0.155952559,0.124537065,-0.135756962,0.169573039,0.0388465039,-0.261912882
103414.060269,0.19948585,-0.212457121,-0.154876089,0.194903433,0.0287193023,-0.24885276
103414.070296,0.531138017,-0.504352594,-0.150855747,0.216521099,0.0428428426,-0.197187424
103414.080324,0.722483084,-0.773646431,-0.00248947873,0.198006272,0.0586945117,-0.121076956
103414.090352,0.85151293,-0.95849125,0.0506266099,0.134342343,0.0358749479,-0.0274492595
103414.100379,0.888067468,-1.06211178,0.0963087492,0.0570334345,-0.00153926807,0.0741604567
103414.110407,0.883050955,-1.02684086,0.0745206957,-0.00143626588,-0.0247713532,0.172880903
103414.120435,0.805119866,-0.81090824,0.188571438,-0.0264092591,-0.0101492675,0.261562049
103414.130463,0.57973977,-0.525649137,0.413086296,-0.0533082522,0.0345132761,0.328553319
103414.140490,0.420994219,-0.236854407,0.460759901,-0.0717146918,0.0682027936,0.384900481
103414.150518,0.33571759,0.00713116705,0.269011587,-0.136544809,0.0644330904,0.411802143
103414.160546,0.254400074,0.247774153,0.0184089324,-0.18345426,0.0381570123,0.431477845
103414.170573,0.130913176,0.475121165,0.00459668014,-0.183965594,0.0449584574,0.429072738
103414.180601,-0.0798618375,0.718494161,0.154711254,-0.1566405,0.0751685575,0.397316128
103414.190629,-0.296419672,0.938303544,0.127883453,-0.120879576,0.0783811286,0.341047823
103414.200656,-0.413234034,1.03707306,-0.160720139,-0.0805981979,0.0405546576,0.270021826
103414.210684,-0.573323327,1.14471357,-0.205867441,-0.042963203,-0.00730341394,0.178700984
103414.220712,-0.719092784,1.27399819,-0.123517659,0.0417263843,-0.0328761525,0.0818340853
103414.230739,-0.735710303,1.25292384,0.212731481,0.0998988748,-0.00874764565,-0.0125768371
103414.240767,-0.743597549,1.06324188,0.639620677,0.118991613,0.0228102803,-0.085708037
103414.250795,-0.602756196,0.852384233,0.58034022,0.101026461,0.0275373906,-0.148645997
103414.260822,-0.430197955,0.718551736,0.230163093,0.0690328404,-0.00871568825,-0.200633287
103414.270850,-0.335798692,0.55873556,-0.179274617,0.0739232004,-0.0520727485,-0.239265904
103414.280878,-0.240571382,0.37995691,-0.202784672,0.113373138,-0.0540493466,-0.263952345
103414.290906,-0.220214311,0.249470728,-0.150869776,0.153348252,-0.0463030115,-0.276921928
103414.300933,-0.123930112,0.16478768,-0.107936643,0.155348301,-0.0472119488,-0.283404887
103414.310961,-0.0127969377,0.106483814,0.123345225,0.135844365,-0.0423532762,-0.283158809
103414.320989,0.11918321,-0.00912628639,0.282792275,0.102917038,-0.0340873562,-0.275318176
103414.331016,0.347753188,-0.0770849932,0.132852473,0.0737447664,-0.0357550271,-0.26490283
103414.341044,0.553140225,-0.143031776,-0.090523736,0.0511076339,-0.0292814169,-0.24800694
103414.351072,0.750172032,-0.2066507,-0.0678682521,0.0397931933,0.024275817,-0.228488892
103414.361099,0.784481714,-0.226247527,-0.0581581745,0.0504823253,0.0732401609,-0.209537312
103414.371127,0.828450692,-0.30211613,-0.382715707,0.044250261,0.0927510187,-0.184953406
103414.381155,0.887838628,-0.398752942,-0.718153531,0.041574318,0.0865208134,-0.156740412
103414.391183,0.965285148,-0.553013822,-0.8933967,0.069124721,0.0612673908,-0.10259781
103414.401210,1.04233507,-0.678013536,-1.10125152,0.092034027,0.0116993058,-0.0337457731
103414.411238,1.0126613,-0.788390119,-0.94560035,0.0844355002,-0.0573553964,0.0570152923
103414.421266,0.887244827,-0.83558354,-0.587367342,0.0777528286,-0.117553756,0.152813181
103414.431293,0.568213218,-0.720868489,0.0077758947,0.0810476914,-0.158765912,0.234886214
103414.441321,0.118968544,-0.49512029,0.624325492,0.085320197,-0.18404223,0.292473346
103414.451349,-0.194702342,-0.24232071,1.37562784,0.0705377907,-0.178254113,0.319661021
103414.461376,-0.424278027,0.0199922561,2.08444071,0.0257330369,-0.134180397,0.331127256
103414.471404,-0.518727521,0.265100697,2.6495331,-0.064141728,-0.058636643,0.321657598
103414.481432,-0.62750836,0.570220977,2.88324307,-0.164287761,0.0469907187,0.280400187
103414.491460,-0.750686046,0.916353359,2.61618671,-0.215682507,0.165107772,0.203276888
103414.501487,-0.712355439,1.02021588,2.01394153,-0.229561046,0.261936843,0.113886297
103414.511515,-0.549281065,1.00540395,1.07867143,-0.209700778,0.284989953,0.0145234913
103414.521543,-0.285549684,0.872205005,-0.0503214895,-0.149982587,0.242412671,-0.080309011
103414.531570,0.0315216581,0.703984428,-0.779413178,-0.017819006,0.201140597,-0.146932766
103414.541598,0.290688508,0.515808857,-1.13126847,0.127649516,0.160619795,-0.182344019
103414.551626,0.597924465,0.262404151,-1.34745506,0.226378754,0.0890513435,-0.181996733
103414.561653,0.780769634,0.100180184,-1.13716454,0.24868539,0.0201529656,-0.163117588
103414.571681,0.720295292,0.00457987514,-0.506485879,0.228634715,-0.0237425864,-0.132409215
103414.581709,0.538135182,-0.0375204601,0.00687573099,0.168429434,-0.033098802,-0.103600733
103414.591737,0.351936903,-0.0303143281,0.571693388,0.0979954824,0.0189468209,-0.0728633255
103414.601764,0.198882185,0.0610275924,0.946555459,0.0309522618,0.0946226716,-0.0537719205
103414.611792,0.167845022,0.253341724,0.805930014,-0.0397083275,0.158005372,-0.0515457839
103414.621820,0.249012243,0.401325277,0.52687751,-0.100650236,0.21882531,-0.0541996285
103414.631847,0.410935109,0.438145918,0.286352013,-0.12877588,0.28451404,-0.0507047623
103414.641875,0.602377426,0.403694344,-0.22369302,-0.140297785,0.319930106,-0.0411554649
103414.651903,0.633203941,0.38657852,-0.646954673,-0.160207838,0.296644747,-0.0459704548
103414.661931,0.605294556,0.329621684,-1.17861766,-0.150285438,0.249924645,-0.0465166718
103414.671958,0.528427151,0.221525905,-1.61602416,-0.0910498053,0.178342864,-0.0530438125
103414.681986,0.552295737,0.0126554834,-2.0388784,-0.000561189605,0.111450657,-0.0406353474
103414.692014,0.34684053,-0.0609682634,-1.58443368,0.0662569925,0.0561594367,-0.0297054667
103414.702041,0.10201814,-0.130730805,-1.11906073,0.0720355213,-0.00309536397,-0.028066026
103414.712069,-0.0767728586,-0.0787418205,-0.599959697,0.0435053371,-0.0606308281,-0.0298633929
103414.722097,-0.216470668,-0.0523917199,-0.181201201,0.0176295321,-0.0633848011,-0.0245514531
103414.732125,-0.308945392,-0.0903369813,0.356155617,0.0220911261,-0.0237889253,-0.00547416415
103414.742152,-0.487250068,-0.0339298883,0.680789722,0.0110099791,0.0146865631,0.00368178356
103414.752180,-0.513432411,-0.0137898943,0.734335435,-0.0363383628,0.0211583097,0.0133072464
103414.762208,-0.431561717,0.0450863653,0.659991849,-0.0885893106,0.0357636176,0.0231060814
103414.772235,-0.321823724,0.0933411315,0.660431409,-0.105178408,0.0913949236,0.0419066697
103414.782263,-0.263205458,0.139913936,0.476052747,-0.107987776,0.141233593,0.0526693016
103414.792291,-0.303486761,0.170658618,0.0842670137,-0.115888044,0.133870214,0.0488631129
103414.802319,-0.267366742,0.179044608,-0.475779191,-0.121997602,0.0842073187,0.0305437576
103414.812346,-0.163740729,0.216796977,-0.764072986,-0.0799244493,0.0662224591,0.0188346375
103414.822374,-0.152583083,0.182945853,-0.742792297,0.000692360336,0.0944389179,0.016005028
103414.832402,-0.203366198,0.127995242,-0.71356328,0.0353099927,0.0813627988,0.0179384835
103414.842430,-0.240725184,0.0584049888,-0.80133158,0.0239641275,0.00326799299,0.0221018046
103414.852457,-0.161843663,0.00882934927,-0.777441586,0.00275657652,-0.0831324086,0.0365140326
103414.862485,-0.120525564,0.0260628081,-0.580480505,0.00649885042,-0.142962188,0.0576454177
103414.872513,-0.129312316,0.0411187769,-0.276724353,0.016523255,-0.160474598,0.0812026709
103414.882540,-0.180661615,0.141204853,0.183932672,0.0194908157,-0.161719635,0.0993057787
103414.892568,-0.316708865,0.293029591,0.495322096,-0.0161808953,-0.17024973,0.10598179
103414.902596,-0.364610361,0.394032343,0.740598587,-0.0594817661,-0.183118924,0.104747146
103414.912624,-0.300901347,0.469243506,0.928097427,-0.0786695704,-0.185493931,0.110360824
103414.922651,-0.20776078,0.568250554,1.04068043,-0.0827705711,-0.174460188,0.113563009
103414.932679,-0.0825521726,0.665637015,0.998211412,-0.0691413134,-0.167466462,0.11271479
103414.942707,-0.00607771248,0.761578539,0.897556158,-0.0517892241,-0.16190578,0.102874145
103414.952735,-0.0436547981,0.828918675,0.827606423,-0.0378361233,-0.164833665,0.0787861198
103414.962762,-0.137192548,0.901201529,0.860443694,-0.029584052,-0.157698259,0.0331555195
103414.972790,-0.224518584,0.994380309,1.03897305,-0.0141198756,-0.106953584,-0.0237855259
103414.982818,-0.203121064,0.992539942,1.35279233,0.0151131107,-0.00829891395,-0.0826304704
103414.992845,-0.223392649,0.994061891,1.36033675,0.0237665214,0.0689420775,-0.149799123
103415.002873,-0.0772328042,0.844058669,1.00155312,-0.00169729418,0.111084737,-0.197483286
103415.012901,0.19541407,0.572265635,0.699624187,-0.020020375,0.141224802,-0.218729451
103415.022929,0.41617279,0.268050487,0.295808993,-0.0134354429,0.155328363,-0.213640153
103415.032956,0.563842017,0.0312161723,-0.202171509,0.00914789643,0.137704894,-0.193959385
103415.042984,0.708638318,-0.115184861,-0.721302934,0.0376754105,0.0849900246,-0.164375663
103415.053012,0.76026636,-0.143899498,-1.0733178,0.0757924393,0.0222193133,-0.139138222
103415.063040,0.739285604,-0.210872701,-0.946802127,0.102194749,-0.0164175611,-0.105092101
103415.073067,0.674316215,-0.204558988,-0.932787046,0.106125847,-0.0733711272,-0.0786051005
103415.083095,0.466861433,-0.0591976005,-0.606314035,0.0971267596,-0.104691498,-0.0694129318
103415.093123,0.23851971,0.0814094323,-0.211974525,0.0874331146,-0.109979734,-0.0748575032
103415.103150,0.136891958,0.245091928,0.156352591,0.0778249651,-0.0822003037,-0.085710682
103415.113178,0.0944317763,0.245802561,0.302927885,0.0655262172,-0.0536645316,-0.087829493
103415.123206,0.167273287,0.185364605,0.209393861,0.0477261804,-0.0514983162,-0.0796184316
103415.133234,0.232237415,0.157915749,0.0594452917,0.0292712748,-0.0672301427,-0.0663596243
103415.143261,0.236491273,0.168642895,0.129254741,0.0333216749,-0.0754009858,-0.0521892086
103415.153289,0.152013466,0.195030259,0.245991361,0.0535864681,-0.0596348047,-0.0405501276
103415.163317,0.115543026,0.269144565,0.553664395,0.0662338212,-0.0273098908,-0.0405906066
103415.173344,0.0218066851,0.362431629,0.914594387,0.0516034774,0.0179137811,-0.0438095704
103415.183371,0.00703976244,0.442288132,1.12860831,-0.0007790362,0.0701487586,-0.0554577038
103415.193399,0.0467060755,0.503095945,1.02653442,-0.0634144545,0.116966061,-0.064741753
103415.203427,0.16515403,0.399863241,0.610799656,-0.0899736211,0.152854815,-0.0629148185
103415.213455,0.299030366,0.283646992,0.106041039,-0.0597784407,0.203229308,-0.0494743809
103415.223482,0.26039946,0.225183697,-0.192755445,-0.0103789335,0.244368494,-0.0351002365
103415.233510,0.171907084,0.182348179,-0.429706591,0.0077777002,0.242003605,-0.0309776608
103415.243538,0.215041365,0.135230016,-0.727443337,-0.0129757812,0.190244541,-0.0242595691
103415.253566,0.293330547,0.0763785985,-0.860309254,-0.0262447149,0.16936402,-0.00661239959
103415.263593,0.288508972,0.0811501969,-0.820666395,-0.00568244839,0.167312056,0.014890762
103415.273621,0.230482388,0.142396693,-0.951419266,-0.00343367504,0.146354318,0.0302713159
103415.283649,0.110731827,0.217977419,-1.14577104,-0.00969902799,0.0797015131,0.0330687016
103415.293677,0.0755408325,0.19456644,-1.30234166,-0.02110002,0.00739376247,0.0451208353
103415.303704,0.0541979656,0.200476541,-1.28378776,-0.00841272157,-0.0558219589,0.0584757924
103415.313732,-0.071331252,0.278612066,-1.09241238,0.0168569498,-0.103441671,0.0638665631
103415.323760,-0.242715189,0.372777958,-0.493914567,0.0377324037,-0.114985682,0.0574049354
103415.333787,-0.343043038,0.530095011,0.187251587,0.0288052224,-0.103666708,0.0333853513
103415.343815,-0.394274116,0.721502987,0.454047836,-0.00317454943,-0.0942598954,-0.0139398202
103415.353843,-0.312578926,0.826566559,0.451179587,-0.0291781854,-0.0741543621,-0.0674840063
103415.363871,-0.157668861,0.816242149,0.361948814,-0.028861003,-0.0191134792,-0.111607261
103415.373899,-0.00865370045,0.821378197,0.235633633,-0.0133571457,0.053873647,-0.149938673
103415.383926,0.0995862365,0.832371446,0.0957867711,-0.00185948052,0.115173757,-0.184589058
103415.393954,0.173900669,0.789031778,-0.153106157,0.00890102144,0.135176763,-0.208371088
103415.403982,0.315127587,0.571619592,-0.674084672,0.0208346471,0.0962035283,-0.203706563
103415.414009,0.399989425,0.311275734,-1.03872229,0.0415934548,0.0330969952,-0.171365127
103415.424037,0.404463575,0.0304052213,-1.01210199,0.0551177859,-0.0298766438,-0.118859053
103415.434065,0.328869405,-0.131496236,-0.726847125,0.0651991814,-0.0716414005,-0.0564923435
103415.444093,0.00888831292,-0.251577637,-0.174181093,0.064461492,-0.0852232575,0.00997296907
103415.454120,-0.356832859,-0.298803644,0.36283904,0.0324002206,-0.110513963,0.0670293272
103415.464148,-0.704439916,-0.220605283,0.802298379,-0.0279962756,-0.140927523,0.100020565
103415.474176,-0.965564915,-0.106789811,1.16435942,-0.0766314566,-0.141372815,0.111865513
103415.484204,-1.13947428,0.0984616894,1.33670979,-0.101558641,-0.11792741,0.103703454
103415.494231,-1.18879192,0.238195593,1.42229899,-0.107589103,-0.0843643844,0.0808801651
103415.504259,-1.17145106,0.377632267,1.12641869,-0.0952679887,-0.0893934965,0.0387034193
103415.514287,-1.05205457,0.526105357,0.696580581,-0.0699426606,-0.128280178,-0.0223423596
103415.524315,-0.846414292,0.615309973,0.423019661,-0.00736157177,-0.157232463,-0.0903083608
103415.534343,-0.666604691,0.666377312,0.511305847,0.0676347911,-0.132409424,-0.157674387
103415.544370,-0.485701742,0.641107554,0.622218291,0.125008851,-0.0971978977,-0.223065913
103415.554398,-0.27044593,0.55010904,0.466823147,0.142603561,-0.087917313,-0.274258256
103415.564426,-0.00707724491,0.371334189,0.306806188,0.139711902,-0.0735756606,-0.299043477
103415.574454,0.252023408,0.120934802,0.225441325,0.160927713,-0.0335414223,-0.286366045
103415.584481,0.451859532,-0.0318884456,0.131983874,0.174137518,0.0325811356,-0.251158535
103415.594509,0.596548428,-0.123617904,0.0585872135,0.156300202,0.0594537631,-0.201832533
103415.604537,0.780305232,-0.23928178,-0.357968804,0.0893190429,0.0341816954,-0.137548625
103415.614565,0.977510861,-0.324811215,-0.494299182,0.0267448798,0.0126415174,-0.0588130504
103415.624592,1.03846364,-0.397183355,-0.561080224,-0.00487110438,0.00469091628,0.0378290638
103415.634620,1.01372725,-0.399663481,-0.565693855,-0.0405675806,-0.0155437812,0.127132043
103415.644648,0.832944497,-0.315764716,-0.668089815,-0.0758291632,-0.072125569,0.19216004
103415.654676,0.625481457,-0.142813311,-0.552300705,-0.0906680301,-0.105088048,0.237371996
103415.664703,0.380744846,0.0857116596,-0.38607437,-0.0638057962,-0.109749377,0.265346915
103415.674731,0.0499937188,0.451345445,-0.0953869581,-0.046913363,-0.102576688,0.25706926
103415.684759,-0.230760766,0.73077818,0.154898885,-0.0434078425,-0.116918609,0.221003413
103415.694787,-0.35599955,0.84019191,0.43289925,-0.0600414127,-0.121887267,0.171857163
103415.704814,-0.413764999,0.978265918,0.643790656,-0.0728088766,-0.126814365,0.117343597
103415.714842,-0.432816101,1.02996644,0.835912479,-0.0571526848,-0.106956787,0.0613682121
103415.724870,-0.433665485,1.12435036,0.906187208,-0.0180183314,-0.0692818463,-0.00227281451
103415.734898,-0.426014605,1.20724141,0.865392256,-0.00163429836,-0.0455096699,-0.0701479986
103415.744925,-0.311282895,1.13591322,0.689261198,0.00592268724,-0.0363188349,-0.137093484
103415.754953,-0.145938968,0.986364176,0.490052631,0.0278442316,-0.000307304435,-0.190590799
103415.764981,-0.0219097071,0.855589532,0.458054149,0.0569544472,0.0417256318,-0.239084303
103415.775009,0.0337776934,0.65660396,0.0787123022,0.0575968027,0.041937355,-0.276095301
103415.785036,0.140706255,0.422528954,-0.133479081,0.0609590411,0.0371332765,-0.293259889
103415.795064,0.204143393,0.177177791,-0.257810394,0.0786807835,0.0395045578,-0.290564507
103415.805092,0.278455268,0.0375520243,-0.376961089,0.116752535,0.031390436,-0.274303526
103415.815120,0.366195657,-0.0885743555,-0.510209284,0.128375888,0.0185100585,-0.242293134
103415.825148,0.462907654,-0.19255627,-0.483528782,0.100039601,-0.00421096617,-0.202540129
103415.835175,0.496327912,-0.314277108,-0.326276612,0.061939884,0.00503180083,-0.150081456
103415.845203,0.507921173,-0.324540436,0.00797638571,0.0229938179,0.0561330691,-0.0965790749
103415.855231,0.410157183,-0.235363146,0.193643334,-0.0291476808,0.110180326,-0.0545509309
103415.865259,0.3600394,-0.0824053115,-0.0475105237,-0.0978111625,0.132676303,-0.0423563197
103415.875286,0.398320615,-0.0208266611,-0.429040236,-0.118473567,0.156765938,-0.0314394906
103415.885314,0.483433432,0.000203705879,-0.851900907,-0.108000681,0.171186954,-0.0208736621
103415.895342,0.543738044,0.011352438,-1.29766899,-0.0811381787,0.127530277,-0.0109469965
103415.905370,0.546520222,-0.0547362372,-1.71120946,-0.0390445217,0.0522954538,0.00872337818
103415.915398,0.533294757,-0.0978007413,-1.59830613,0.0262500644,-0.00855964143,0.0338372514
103415.925425,0.421707701,-0.103465781,-1.22946172,0.0679138899,-0.0671036467,0.0627003238
103415.935453,0.269836639,-0.086631697,-0.724388626,0.0641580299,-0.112728924,0.0933543742
103415.945481,0.0503406326,-0.0360546253,-0.0635199938,0.0563717484,-0.126717985,0.130376846
103415.955509,-0.216092993,0.0508328,0.648916913,0.0282114819,-0.119892292,0.158490762
103415.965536,-0.49570883,0.215520673,1.11852764,-0.0122331465,-0.101427794,0.167565748
103415.975564,-0.606556611,0.380902959,1.48514737,-0.0625985786,-0.0732062757,0.165375039
103415.985592,-0.693707218,0.557918837,1.6371178,-0.114134207,-0.0221377686,0.141998336
103415.995620,-0.750230996,0.743265175,1.64082075,-0.139234245,0.0509803854,0.0996234566
103416.005647,-0.775089981,0.897664295,1.35864807,-0.126818582,0.114898384,0.0335704051
103416.015675,-0.731711662,1.02930476,0.808753254,-0.104456283,0.141549975,-0.0430282354
103416.025703,-0.634763665,1.01073362,0.209259421,-0.0573971607,0.131490946,-0.134903297
103416.035731,-0.416799252,0.89491748,-0.220777425,0.0113041373,0.127213359,-0.207688287
103416.045759,-0.195801974,0.73836659,-0.456969861,0.0897145271,0.126155019,-0.256348759
103416.055786,0.0540029545,0.456841558,-0.666630264,0.148459062,0.110820018,-0.27186805
103416.065814,0.257510461,0.149122786,-0.797149326,0.162631065,0.0836381987,-0.25308159
103416.075842,0.323302857,-0.123105717,-0.645868631,0.158161491,0.0547130704,-0.210090458
103416.085870,0.27949126,-0.259271698,-0.490866285,0.130318671,0.0233351737,-0.152677774
103416.095897,0.225431315,-0.381395418,-0.368560341,0.077407524,-0.0126625076,-0.0810102373
103416.105925,0.22307445,-0.443821479,-0.342677711,0.0218838118,-0.0640058592,0.00241168588
103416.115953,0.159093487,-0.394780093,-0.274399125,-0.025709806,-0.09888421,0.0820010528
103416.125981,-0.0112603758,-0.200030405,0.0908271029,-0.0522689782,-0.109349102,0.140063018
103416.136009,-0.259634102,0.0106093646,0.437622186,-0.0861814022,-0.112389371,0.170287773
103416.146036,-0.421569535,0.253471195,0.698639852,-0.128676146,-0.123649217,0.172377557
103416.156064,-0.531619663,0.483066571,0.701476537,-0.159941927,-0.12941736,0.142895564
103416.166092,-0.534561562,0.738363667,0.687508801,-0.141495004,-0.128176063,0.0921985656
103416.176120,-0.511772003,0.915249636,0.471352022,-0.086706847,-0.115163319,0.0247164592
103416.186148,-0.474850459,1.03219858,0.409344771,-0.0262347162,-0.101169206,-0.0515298396
103416.196176,-0.449954283,1.03935065,0.330175373,0.0483817309,-0.0844490826,-0.1296345
103416.206204,-0.369241747,0.978983418,0.394959687,0.0917893946,-0.0690757185,-0.197645247
103416.216232,-0.17994236,0.841121592,0.422310636,0.110110343,-0.063539274,-0.255885899
103416.226260,0.0231843301,0.643142275,0.405436073,0.09414123,-0.0572382323,-0.291784793
103416.236287,0.259310642,0.361093366,0.329171164,0.0938472152,-0.0267825872,-0.293520629
103416.246315,0.437663468,0.0708722562,0.447127681,0.120165907,0.0394816548,-0.263458878
103416.256343,0.487378662,-0.100011111,0.334509018,0.113872059,0.06966912,-0.229932085
103416.266371,0.492424475,-0.175527393,-0.152815065,0.0649756193,0.0302545987,-0.198501185
103416.276399,0.565012303,-0.261315041,-0.363161696,0.0343234353,-0.00505811768,-0.158788919
103416.286426,0.558357521,-0.413070514,-0.307217106,0.0310802385,-0.013768252,-0.0989940315
103416.296454,0.550178379,-0.527483951,-0.307837284,0.0181564521,-0.0359803475,-0.0363152027
103416.306482,0.507871123,-0.484828759,-0.390165439,-0.00550760003,-0.0893988311,0.00521785906
103416.316510,0.389672102,-0.36853506,-0.439652816,-0.00299916836,-0.131144136,0.0406030118
103416.326537,0.327183205,-0.297876593,-0.0195832369,0.0139454603,-0.121276602,0.0698117688
103416.336565,0.123383145,-0.197750916,0.296885098,0.0199128054,-0.101845644,0.0874600038
103416.346593,-0.0344207405,-0.0742272657,0.512949522,-0.00577151915,-0.081664741,0.0974604413
103416.356621,-0.154809673,-0.00702770668,0.957038859,-0.0277468581,-0.049168054,0.10077554
103416.366649,-0.217940521,0.0462891652,1.01327571,-0.0660721436,-0.0269290619,0.0924566239
103416.376676,-0.164378004,0.143575235,1.06216571,-0.084595494,-0.00340882177,0.0792947486
103416.386704,-0.0985606197,0.278016877,1.14371645,-0.0988503322,0.059875343,0.0532927066
103416.396732,0.021381007,0.432733099,1.04404085,-0.0902914628,0.12318667,0.0251604076
103416.406760,0.129103861,0.432374349,0.554339517,-0.0799434856,0.164448619,-0.00512239616
103416.416788,0.265405963,0.378731168,0.152520466,-0.0576685369,0.209192127,-0.0195852257
103416.426815,0.389188483,0.3259164,-0.138079852,-0.021754479,0.234896153,-0.0311750378
103416.436843,0.470711094,0.273230373,-0.57979603,0.0092191482,0.232882798,-0.0445760638
103416.446871,0.524750216,0.149797032,-0.87639062,0.0348869599,0.20744136,-0.0454522446
103416.456899,0.506115512,-0.0188408941,-1.14308925,0.0547802411,0.160601139,-0.0365279913
103416.466927,0.435286802,-0.198691119,-1.31336983,0.0756559595,0.0934607312,-0.00512559246
103416.476954,0.343117199,-0.302587255,-1.42797412,0.0807692334,0.00760681136,0.0339863896
103416.486982,0.220132186,-0.313998876,-1.15260469,0.0910032243,-0.0632380694,0.0748760328
103416.497010,0.007927432,-0.290775675,-0.577518148,0.0863355026,-0.117838196,0.112621814
103416.507038,-0.181535256,-0.174348413,-0.153141812,0.0518190749,-0.169754654,0.13528052
103416.517066,-0.347763198,-0.0392997447,0.450810169,0.0312179253,-0.17129156,0.154162854
103416.527093,-0.494935581,0.124375737,1.0493109,0.0246108882,-0.129159033,0.160742462
103416.537121,-0.627857466,0.396041199,1.45403853,-0.0121407211,-0.0767853037,0.140716076
103416.547149,-0.688576211,0.64003028,1.59060272,-0.0656348392,-0.0429453142,0.0979718119
103416.557177,-0.566566839,0.921205621,1.3650632,-0.0983690768,0.00489677722,0.0316308737
103416.567205,-0.434141286,1.02511082,1.10475631,-0.0932456926,0.0958365351,-0.0374989286
103416.577232,-0.267154049,1.06218383,0.725181822,-0.0504268594,0.173454627,-0.109208532
103416.587260,-0.150395583,0.924471784,0.216317523,-0.0263281781,0.219173372,-0.174010172
103416.597288,0.0649739189,0.816927501,-0.346531464,0.00819357857,0.223908752,-0.228511497
103416.607316,0.31736426,0.572070843,-0.767217129,0.0546164699,0.218645811,-0.257187068
103416.617344,0.528294318,0.331632147,-1.02959965,0.104545951,0.203852206,-0.26294136
103416.627371,0.657956032,0.0110986094,-1.33777421,0.134340331,0.182201251,-0.235374466
103416.637399,0.770171229,-0.298369929,-1.36071727,0.140618458,0.143223226,-0.175845355
103416.647427,0.719700322,-0.477230997,-1.25654963,0.123026423,0.106521137,-0.102410287
103416.657455,0.503356788,-0.572775046,-1.04257779,0.0699693337,0.0513473675,-0.0311528798
103416.667483,0.25769517,-0.59582932,-0.733792414,-0.00390169933,-0.00556252152,0.0394842699
103416.677510,0.00505976761,-0.558518557,-0.465097053,-0.0689443424,-0.0590758137,0.0951070487
103416.687538,-0.211821673,-0.431037255,-0.458757329,-0.0957107097,-0.11490313,0.12815395
103416.697566,-0.309166341,-0.307495777,-0.431191277,-0.0668630823,-0.157297194,0.151874453
103416.707594,-0.406397539,-0.163659261,-0.167740247,-0.0274794623,-0.181015313,0.162424833
103416.717622,-0.575619548,0.0402782344,0.255220962,-0.0154259969,-0.210552692,0.150913596
103416.727649,-0.723359356,0.316486455,0.736396459,-0.0205435269,-0.228425696,0.112208009
103416.737677,-0.757655374,0.561836595,1.03384971,-0.0159881897,-0.226109281,0.0527891591
103416.747705,-0.708750838,0.655032765,1.12908879,0.00652164686,-0.19364135,-0.0100055169
103416.757733,-0.600325535,0.670629271,1.25465227,0.051335454,-0.114679955,-0.0660181865
103416.767761,-0.52313847,0.57275108,1.42276135,0.0893475562,-0.0302399024,-0.111714572
103416.777788,-0.381171693,0.433835361,1.41156483,0.0789377913,0.0268761124,-0.154886812
103416.787816,-0.143128733,0.230742062,1.08752694,0.0419203825,0.0434979647,-0.175259992
103416.797844,0.145382869,0.0553090686,0.591139262,0.0216444079,0.0577501394,-0.168863341
103416.807872,0.312195479,-0.106877343,0.32297114,0.0481260791,0.100130886,-0.144148141
103416.817900,0.342634749,-0.252589444,0.135585113,0.0764325559,0.123840205,-0.10135594
103416.827927,0.414987015,-0.407659887,-0.0601274287,0.0526686348,0.113282904,-0.0588569492
103416.837955,0.53023873,-0.504100738,-0.17208909,0.0291191023,0.0897533447,-0.00316625368
103416.847983,0.595304273,-0.565713583,-0.0736748925,0.0111488886,0.0963542536,0.0692810491
103416.858011,0.617033363,-0.528607256,-0.149959675,-0.0212426055,0.0792786032,0.135335162
103416.868039,0.533495759,-0.438168422,-0.522076247,-0.0495908931,0.0291496534,0.195079982
103416.878067,0.337667409,-0.290892287,-0.494624761,-0.0561995246,-0.00461283838,0.238082588
103416.888094,0.0623735271,-0.0467225882,-0.211059164,-0.0556911305,-0.0256081354,0.256804079
103416.898122,-0.194801637,0.231570037,0.0287882876,-0.0789959133,-0.0726464838,0.242495701
103416.908150,-0.285594253,0.475104653,0.203914553,-0.110653445,-0.111164577,0.208482876
103416.918178,-0.317990722,0.71496964,0.519753357,-0.0926864296,-0.0983667597,0.16748485
103416.928206,-0.312153102,0.891859554,0.836895645,-0.0509376526,-0.0367590562,0.1184659
103416.938233,-0.333006943,1.06989747,0.738324212,-0.0187437609,-0.0167113114,0.0507728755
103416.948261,-0.264767446,1.20717185,0.356005395,-0.0135996006,-0.0443583876,-0.0287653562
103416.958289,-0.139156323,1.26357719,-0.0199397952,0.0157526955,-0.081434384,-0.11001654
103416.968317,0.0167583887,1.18418772,-0.127609896,0.0717757568,-0.0700256675,-0.180070192
103416.978345,0.0678511548,1.01391138,-0.047678866,0.140371323,-0.030651629,-0.228118405
103416.988373,0.104068716,0.803336198,0.22789281,0.181757644,0.0099051185,-0.259548753
103416.998400,0.135640643,0.650489277,0.309777312,0.159405202,0.00410981337,-0.287054688
103417.008428,0.257157044,0.410010834,0.395646501,0.107422963,-0.0069031571,-0.291558892
103417.018456,0.412357178,0.233359405,0.392760716,0.0961793661,0.0130098313,-0.279880911
103417.028484,0.551476018,0.0177288412,0.382991602,0.0911534429,0.078392297,-0.250317693
103417.038512,0.602551906,-0.191249571,0.539981322,0.0688049942,0.144877583,-0.218473509
103417.048539,0.546202607,-0.291674377,0.324632936,0.0161524359,0.164581507,-0.193090916
103417.058567,0.590984071,-0.280605724,0.0249888953,-0.0317407884,0.161558285,-0.178080544
103417.068595,0.661573638,-0.293054872,-0.406626744,-0.0320334695,0.16866599,-0.153305963
103417.078623,0.740558108,-0.317105609,-0.70405194,-0.00508094672,0.182830021,-0.127178222
103417.088651,0.658445423,-0.389360698,-0.849343623,0.0351700671,0.185397834,-0.102248363
103417.098679,0.586792173,-0.433332965,-1.02225572,0.0402412601,0.153704092,-0.0824956968
103417.108706,0.546843974,-0.458981931,-1.01114279,0.0497748442,0.124935299,-0.0668967664
103417.118734,0.410493064,-0.406851785,-0.61011635,0.0895142704,0.138763219,-0.0510573462
103417.128762,0.293520224,-0.407446975,-0.35979485,0.0964483395,0.133395627,-0.0441389829
103417.138790,0.261224805,-0.383533015,-0.51374681,0.104394414,0.0829353854,-0.0401543677
103417.148818,0.176309045,-0.293089651,-0.464089922,0.144524783,0.0553540923,-0.0500386879
103417.158846,-0.103504579,-0.143747377,-0.0523199698,0.206978306,0.0746910423,-0.0770159811
103417.168873,-0.288738908,-0.0584621258,0.571955838,0.243708625,0.116596147,-0.113784909
103417.178901,-0.34277708,0.0103739484,0.794713623,0.246322259,0.131008372,-0.159405395
103417.188929,-0.281851121,0.0250621067,0.75293609,0.22306779,0.133375913,-0.191479445
103417.198957,-0.11782215,-0.109504185,0.681774057,0.212365612,0.155726761,-0.190826163
103417.208985,-0.0653643795,-0.256387375,0.714621849,0.212923288,0.20354408,-0.168544829
103417.219013,-0.151881364,-0.370423504,0.682997461,0.181641266,0.238565981,-0.14715299
103417.229040,-0.261600141,-0.437656819,0.652941346,0.14454183,0.27488324,-0.109510273
103417.239068,-0.208923394,-0.526380812,0.598048311,0.0956296846,0.305800676,-0.054327175
103417.249096,0.0160842888,-0.588275835,0.0223386731,0.0343013443,0.275487781,0.0227755979
103417.259124,0.231632508,-0.621876053,-0.713156453,-0.0250226967,0.212218001,0.11268045
103417.269152,0.324522608,-0.494679122,-1.09213122,-0.0287252888,0.153239906,0.204170153
103417.279179,0.232501619,-0.318383959,-1.12039695,-0.0125604356,0.11343497,0.282836229
103417.289207,-0.00556172578,-0.0613965719,-0.92913846,-0.0224386305,0.0646264181,0.328011423
103417.299235,-0.290102598,0.213744896,-0.851021201,-0.0569958128,-0.0112385163,0.346213341
103417.309263,-0.448037051,0.444149542,-0.630176556,-0.0776203945,-0.0583386496,0.351293296
103417.319291,-0.548125904,0.620192046,-0.257906255,-0.0748917162,-0.065985918,0.344356835
103417.329319,-0.666617258,0.854209914,0.0101642511,-0.0726072565,-0.0659800619,0.317717224
103417.339346,-0.677123747,1.04951855,0.229285725,-0.082340315,-0.0580555573,0.272722334
103417.349374,-0.685472766,1.2269756,0.468991138,-0.0977767929,-0.0464055575,0.212474957
103417.359402,-0.568225346,1.26451666,0.464559878,-0.10299845,-0.0449919514,0.15411897
103417.369430,-0.431198218,1.31874086,0.21467034,-0.10775166,-0.040081881,0.0927922353
103417.379458,-0.287826177,1.25327017,-0.0216202957,-0.0592230111,-0.0259093381,0.0396208912
103417.389486,-0.224020498,1.17175114,-0.262349206,0.00030795933,-0.0386821255,-0.0162482336
