t,ax,ay,az,gx,gy,gz
87098.828374,0.00238532423,-0.0123855668,0.0625578707,9.52066621e-05,0.000306445872,0.000362723134
87098.838403,0.0135784983,-0.0129578639,0.0625584552,-9.78725147e-05,0.00073228532,-0.000924116001
87098.848431,0.0032434389,-0.018074732,0.0939829366,-0.000387624459,-0.000571598415,0.000189351849
87098.858459,0.00358337491,0.000402139644,0.0680950466,-0.000571116223,-0.00143286458,0.000204531476
87098.868488,-0.00309204773,-0.00141719844,0.0803635765,-0.000861400797,-9.83546488e-05,0.000377637334
87098.878517,-0.00594889847,0.013170518,0.0603127221,0.00046804914,1.72265572e-05,-0.000511059538
87098.888545,-0.0174797801,-0.00731362922,0.0640542468,0.000537557702,-0.000197424204,0.0009880336
87098.898573,-0.0175480047,-0.00721431758,0.0640554158,0.000660862017,0.000930424547,-0.00144130178
87098.908602,-0.00816494882,0.001281119,0.0652536857,-0.000287755916,0.00120952376,6.76456839e-05
87098.918630,-0.00567601808,0.00691459484,0.0707914461,0.00118417316,-0.000547363539,0.000875381753
87098.928659,-0.00653840706,0.0131078531,0.058972998,0.000818254834,0.00027075957,-0.0014202632
87098.938687,-0.00571183831,-0.00879130512,0.0775257228,0.00280896784,-8.95662233e-05,0.00785339624
87098.948716,0.00103491427,-0.0152519753,0.0742307729,-0.00769214286,-0.0013585625,0.000376571901
87098.958743,-0.010727164,-0.00909291841,0.0547737927,-0.000937300909,-0.0025575175,-0.000276435167
87098.968773,0.00867439617,-0.0107215562,0.0716805039,0.00107098883,0.0008396107,0.000291350298
87098.978801,0.00863612826,-0.0106350904,0.0716810884,0.000739159004,0.00144255045,-0.000623445027
87098.988829,-0.0044795383,-0.0186735153,0.0535772764,-0.000298941217,0.00210407958,0.000389621593
87098.998858,0.000949190484,-0.0083638438,0.0643541065,-0.000116514682,1.96234323e-05,-0.0011504842
87099.008886,-0.00879973959,0.00464404468,0.0642050534,-0.000718389056,-0.000244029565,-0.000522777438
87099.018915,-0.00660226608,-0.00118757495,0.0564256516,0.000631833624,1.8824474e-05,-0.00015179906
87099.028943,-0.00691991719,-0.00200538957,0.0519365235,0.000714391528,-0.000784384902,-0.000627705827
87099.038972,-0.0152480572,-0.00736839389,0.0582236409,-0.000162321026,0.0015293695,0.000280964188
87099.049000,-0.00110600675,-0.000279136602,0.0651093088,3.76823591e-05,0.000851594959,-0.000804806128
87099.059029,-0.00687036069,0.00287339316,0.0760305158,0.00117139006,-0.00138253078,0.000798683148
87099.069056,-0.00897652093,0.000354341279,0.0670522595,-0.000419049757,0.00026010687,-0.000234090723
87099.079084,0.00642625192,-0.0103513392,0.0751332747,3.18234088e-05,0.000648662099,0.000804009382
87099.089113,-0.00431649323,-0.0121565666,0.0565770427,-0.000221975846,-0.00110929052,-0.00101892464
87099.099141,0.000251965467,-0.000526282047,0.0700426735,-0.00124915713,0.000889411836,0.00182852754
87099.109170,-0.00110850923,-0.00943382026,0.0689957948,0.000122903555,0.000298722764,-0.000296409242
87099.119198,7.83989985e-05,-0.0163210134,0.0571744241,0.000730104221,0.00138502615,0.000159524381
87099.129227,-0.00296922507,-0.00171116728,0.0658551587,-0.000240617956,0.00102123828,-0.000919056125
87099.139255,0.005335735,-0.00538297853,0.0670545976,0.000185221492,0.000396727002,-0.00115421321
87099.149283,-0.00185801242,0.00223803613,0.0613689532,-0.000620651059,-0.000268796925,3.1426549e-05
87099.159312,-0.00512167213,0.00683635339,0.0847118349,0.00109575619,0.000299787964,4.12799418e-05
87099.169340,-0.00610874694,0.0064552748,0.0856073224,-0.00019028422,0.000329881674,0.000302003697
87099.179369,-0.0170613354,-0.0120371757,0.0609177023,0.000422775454,-0.000505551812,-0.000141412951
87099.189397,-0.00511076714,-0.0186120926,0.0601700988,-0.000229432713,0.000399656477,0.00079841679
87099.199426,-0.0130220517,-0.0227891385,0.0666080229,-0.00107818213,0.00063614524,0.00024980586
87099.209454,-0.005002247,-0.0136391607,0.0519458758,-0.000506135169,0.000327484799,-6.25830144e-05
87099.219483,-0.00201386057,-0.0184225476,0.0670592738,-0.000756472291,-0.000425657141,-0.00127698481
87099.229511,-0.010692732,-0.00239922718,0.0719973147,-0.000353802345,1.34981237e-05,-0.000460726209
87099.239539,-0.00952807213,-0.00966602158,0.0818745656,-0.000770320708,-0.00119397917,0.000927580055
87099.249568,-0.00877188347,-0.0066887091,0.0743926854,0.000307194248,-0.000877329265,-9.53404233e-05
87099.259596,-0.0191857437,0.000246668237,0.0700514413,0.000430498563,-0.00154658163,-0.0015121419
87099.269625,-0.0128774191,-0.0119258403,0.0612216537,0.00128350919,0.000347991241,0.000976582058
87099.279653,-0.00886655775,-0.00542046328,0.0715472329,0.00197193632,0.000370361726,-0.00104981754
87099.289682,-0.0111580845,0.00421845566,0.0660118106,0.000932504481,-2.40524532e-05,-0.00100374408
87099.299710,0.00268618861,-0.011112026,0.0579290419,0.000810797967,-4.9352413e-05,-0.00191774126
87099.309738,-0.00825909337,-0.0187423587,0.0663093322,3.95465759e-05,0.00118821848,0.0012237234
87099.319767,0.00590942497,-0.0190643846,0.0655623132,-0.000671517453,0.000238535227,0.000300139189
87099.329795,0.00348661827,-0.000828598595,0.0654132602,0.00144889136,-0.000189967337,0.000495082699
87099.339824,0.0178241548,0.00303718716,0.0684071813,-3.76850949e-05,0.00125586276,-0.000180294737
87099.349852,0.00884681187,-0.0041903461,0.0740934102,0.00104622147,-0.000359078054,-0.000344878063
87099.359881,-0.000722633452,0.00468939308,0.070202248,0.000440085947,0.000555185135,-0.000114780851
87099.369909,-0.00298962854,-0.0011262344,0.0670604428,-0.000497080386,-0.000850963988,-0.000842623413
87099.379938,0.00544730562,-0.00016140339,0.071697455,0.000860332802,0.000529885059,0.000833304133
87099.389966,0.00468413923,0.0137930909,0.0516466006,-0.000768722792,-2.99114035e-05,0.000397876836
87099.399994,-0.00416895625,0.00235310931,0.0540413868,-0.000327703368,0.000377818593,0.000443950295
87099.410023,-0.000896857508,-0.00423821524,0.0565858106,-7.94967054e-05,-0.000576125807,0.000123305246
87099.420051,-0.00824669055,-0.00407378193,0.0544914686,0.000195874076,0.000560511486,-0.000745683908
87099.430080,-0.0159500863,-0.0119871101,0.0574859743,-1.13198184e-05,0.000248388969,0.00022317376
87099.440108,-0.009126122,-0.0175084741,0.0684112729,-0.00113783695,7.39519019e-05,-0.000685497187
87099.450137,-0.021596933,-0.00901135249,0.0673649787,0.000153529865,0.00129208178,0.00044022128
87099.460165,-0.00908365283,0.00834693377,0.0800859286,-0.000951149326,-7.89135229e-05,-0.00141733326
87099.470193,0.00461271796,0.0195399389,0.0803875419,0.00100227934,-0.00039742759,-0.000595748425
87099.480222,-0.00713882064,0.00220368177,0.0669178195,0.000523442926,-0.00154924474,-0.000848748721
87099.490250,-0.00890340089,-0.000358008241,0.058238254,-0.000937034609,0.00159035588,0.000449276529
87099.500279,-0.0113235042,-0.00518967303,0.0657207187,-0.000446480321,0.000464904006,-0.00016804412
87099.510307,-0.0122880018,-0.00695767365,0.0723065268,0.000496811292,0.00229795766,-0.000109188259
87099.520336,0.00118420482,-0.0183541403,0.0758978293,2.72960169e-05,-0.000169727369,-0.000978977419
87099.530364,0.00298836816,-0.0149165922,0.0607844313,0.00108350581,0.000861981302,0.000830374658
87099.540392,-0.01337998,-0.00352909886,0.0778442872,8.82823952e-05,-0.000340968603,0.00101067079
87099.550421,-0.000246905699,-0.00638033727,0.0654255351,0.00148883881,-0.000365735963,0.00164610101
87099.560449,-0.00949279989,-0.00393513151,0.0645265404,-0.000278701191,-0.000444831909,0.000297741964
87099.570478,0.00116259577,-0.00835959232,0.0494119734,0.000321841624,-0.00104004832,0.000737163704
87099.580506,-0.000362787164,-0.00393559045,0.0748474435,0.000820918067,-0.000250154757,0.000727843028
87099.590535,-0.00612798136,-0.0129940974,0.0824766232,0.000526372402,0.000133340363,0.000804542098
87099.600563,-0.0014589301,0.00184580596,0.0564390956,-1.37166353e-05,-0.000717805815,-0.00100267958
87099.610591,0.00490191016,0.0100838383,0.0338414793,0.000272839505,0.000442799763,-0.000116645359
87099.620620,-0.0109373361,0.00107108613,0.059428925,-0.00106752943,6.35655597e-05,0.000404534861
87099.630648,-0.00949687327,-0.0158446097,0.0685585724,-0.000839829212,-5.94288576e-06,-0.00035579782
87099.640677,0.000338182446,-0.0133581769,0.0672130031,-0.000695752213,0.0010574573,0.000500675291
87099.650705,-0.00969356489,-0.0110356066,0.0669143124,-0.000857406063,-0.000707952189,0.000746218488
87099.660734,-0.0030051001,-0.00126197819,0.06002806,0.000332494325,-0.000881057582,-0.00183571596
87099.670762,-0.0115659346,-0.0109386445,0.0812771842,0.000335777702,-0.000973580172,-0.000200204551
87099.680790,-0.00719190253,-0.000145712631,0.065115154,-0.00101630925,0.000960407313,0.00116439862
87099.690819,-0.00318431086,-0.00377934958,0.0624228462,0.000131513283,0.000934574637,-0.000766126439
87099.700847,-0.00670464874,0.00357356362,0.0573375057,-0.000618166639,-7.18339579e-05,0.0004330948
87099.710876,-0.00139176489,-0.0081399331,0.0564414337,-4.71848762e-05,0.00111726741,3.8147904e-05
87099.720904,-0.00126222022,-4.51885653e-05,0.0697597649,-0.000485541183,-0.000425501727,-8.91508535e-05
87099.730933,0.0101884723,0.002992421,0.0709545277,-9.48554371e-05,-0.0008606622,-0.000373310409
87099.740961,-0.00773543482,0.000271499001,0.0712532184,0.000217000663,0.000370250782,0.00168451434
87099.750989,-0.00604967369,-0.00636990492,0.0805295807,-0.000675957184,0.000150540029,-0.00110514741
87099.761018,0.004154124,-0.00184086493,0.0857663124,0.00153926015,0.000290089636,0.00233539054
87099.771046,-0.00908772622,-0.013271211,0.0547930819,-0.00069593091,-0.000122433994,-0.000386360101
87099.781075,-0.00982734734,-0.00980606024,0.0586830751,0.000398361997,-0.000860928558,-0.000435894355
87099.791103,-0.00128647788,0.00177033871,0.0589817658,0.00026041019,-5.37243905e-05,0.00102458289
87099.801132,-0.00805334167,0.00670434278,0.0672130031,0.000174922694,-0.000569046009,-0.000181030482
87099.811160,-0.00638526232,-0.00595209507,0.0630260728,0.00103006372,0.00153538375,0.000670116395
87099.821188,-0.00290151186,-0.00388094222,0.0624310295,9.4228948e-05,0.00092658517,-0.000707536936
87099.831217,-0.00873427314,-0.00162666505,0.0616822569,0.000348294561,0.000695689057,0.000466117635
87099.841245,-0.024695374,-0.00160111505,0.0742547383,0.000997306779,0.00033562968,-0.000782637857
87099.851274,-0.00568027413,0.00130457751,0.0714110393,-0.00100991759,-0.000336552155,0.000410191715
87099.861302,-0.00171621107,-0.000130138319,0.0579454085,0.00145244109,0.000891431409,0.00104162702
87099.871331,-0.00814518467,-0.0104429676,0.0515109915,-0.00138276024,-6.46434492e-05,0.0017263256
87099.881359,-0.00290288183,-0.0116615519,0.0554015692,0.000279851316,0.000780111295,0.00164270261
87099.891387,0.00311011311,-0.000524841291,0.0567471386,0.00104551017,0.000643757463,-0.000354135409
87099.901416,-0.0080684479,-0.00840675365,0.0630348406,0.00122527359,0.00074788701,-0.000546948053
87099.911444,0.00332974721,-0.00805830554,0.0714133774,0.000153351168,-0.00133177545,-0.000720053911
87099.921473,0.00740874189,-8.35249814e-05,0.0744049604,0.000525661104,0.00106400426,0.0012546801
87099.931501,0.00352579951,0.00650248408,0.0700654699,0.000812483544,0.000448547769,0.000614722259
87099.941529,0.00503740965,0.00836265878,0.0742541537,0.000856425671,3.92198563e-05,0.00045360066
87099.951558,0.0102652821,-0.00477258926,0.0613859043,-0.000246389303,0.000390224508,0.000783300493
87099.961586,-0.0111897948,-0.0149197226,0.0595914221,0.000538976921,0.000293019111,0.000429633074
87099.971615,-0.00584311827,-0.0182610666,0.0750046798,0.00117334188,-0.00151553354,-0.000250538811
87099.981643,-0.0057120027,-0.0112233637,0.0678226594,-6.84901606e-05,0.000142550562,3.86806205e-05
87099.991672,-0.0180351489,0.0013068608,0.0664776745,-9.77849704e-05,0.0014368468,1.68429688e-05
87100.001700,-0.0172833442,-0.00040845522,0.0588461567,-0.00123495469,-0.00093842647,0.000357194804
87100.011728,-0.0146096132,0.0140158257,0.0622889907,0.000399160956,0.000890366151,-0.000778909773
87100.021757,-0.00681203637,0.0117121039,0.0699199239,-0.000264498813,-0.000935496995,0.000216313638
87100.031785,-0.00455063078,-0.0113883678,0.0682739103,-0.00180939864,0.000371848699,0.00124882115
87100.041814,-0.00693051165,0.00887845368,0.0672258625,0.000196760695,0.000612332136,0.000343346037
87100.051842,-0.0110070038,-0.0114961802,0.0705190589,-0.000534010702,-3.10875475e-05,0.00125095155
87100.061870,0.00250376298,-0.00502636538,0.0769517223,0.00042153144,-2.04349635e-05,0.000982771162
87100.071899,-0.00510559778,-0.00990088521,0.0423848513,-0.000653586641,0.000189422164,-0.00109129865
87100.081927,7.41064158e-05,-0.00316022216,0.0513648611,-0.000484475924,0.000845092407,0.00185708702
87100.091956,0.00101290337,0.0034427563,0.0582470218,-0.000239731453,-0.000137347728,-0.000713129528
87100.101984,0.0036453525,0.00836792404,0.0756067374,3.40415281e-05,0.00108823902,-0.000779442489
87100.112013,0.00614851269,0.00988703935,0.0715671066,-0.000332942058,0.00135455513,0.000243743882
87100.122041,-0.00401765641,-0.00419789008,0.0762058723,0.000691575988,0.000366256107,-0.000100336038
87100.132069,-0.0237127379,-0.00825529855,0.0914671543,-0.00141312019,-0.0022340545,0.00101073459
87100.142098,-0.00534612853,-0.000348107901,0.0958037222,0.000127784791,-0.000926176086,0.000884500798
87100.152126,0.00125215549,-0.00731351048,0.0772480749,0.00157627813,0.0019969095,-0.000575977378
87100.162155,-0.0127189041,-0.00708127491,0.0691688133,-6.39627688e-05,-0.000511521939,0.00154096959
87100.172183,-0.0117820068,0.00102980199,0.0561491727,-0.000732149929,0.00109489693,0.00124882115
87100.182211,0.00451471921,-0.0113915439,0.0402881712,0.00158240343,-0.000317909988,-8.11619684e-05
87100.192240,-0.0063353405,-0.000760376214,0.0559977816,0.00108678918,-0.00180422026,0.000852808822
87100.202268,-0.0172756723,0.000981457919,0.0546516276,0.000147225859,-0.000675039832,-0.000695552677
87100.212297,-0.00219820416,-0.00933335327,0.0628822804,-0.000554783386,0.000849353499,-0.000183160417
87100.222325,-0.00310443229,-0.0138596259,0.068120181,-0.00114067877,-0.00100766867,-0.000507000834
87100.232353,-0.00532539627,-0.00503848964,0.0579442394,9.18321311e-05,-4.83981567e-05,0.000140413642
87100.242382,0.000489701479,0.023241289,0.0643792409,-0.000511906459,0.00121101073,0.000631766394
87100.252410,-0.00526248711,0.00842768227,0.0729103379,-0.000124150247,0.000416856143,0.000993689988
87100.262439,0.00923217619,-0.00375589563,0.0880237359,-7.77008245e-06,-0.000849743374,9.19438899e-05
87100.272467,0.0078833006,-0.0139323121,0.0823375069,0.00099863857,-0.000486754347,0.00048023276
87100.282496,-0.0165983576,-0.0230738806,0.068719316,-0.00177877222,-0.000446807127,5.43929636e-05
87100.292524,-0.00911280586,-0.0269849645,0.0419341849,0.000103550032,-0.000333889038,0.00053775683
87100.302552,-0.01437248,0.00713909235,0.0631833091,-7.80775445e-05,0.000627778471,-0.000784236006
87100.312581,-0.00992280707,-0.00542426495,0.0546545503,-6.39627688e-05,0.000331102288,0.00108157471
87100.322609,-0.0103974023,0.0103759599,0.057049921,0.000226321805,0.000546552008,0.000832036138
87100.332638,-0.0125540506,-0.00603676398,0.0627338118,-0.000351850525,-0.00184496655,1.28475949e-05
87100.342666,-0.00335994142,-0.00131303938,0.0693161128,-0.00180140906,-0.000592215685,0.000429633074
87100.352694,-0.000791935829,-0.00789552761,0.0829325502,0.000198092253,0.00103524211,0.000434959307
87100.362723,0.00234870028,-0.00947020446,0.0815852273,0.000567472714,0.000374245574,0.000308725052
87100.372751,-0.00823352054,0.00667779726,0.0492629203,1.53994188e-05,-0.000544545008,0.000457063317
87100.382780,-0.00610147695,-0.0104372069,0.0471662403,0.000930461509,0.000667193264,0.000286621042
87100.392808,0.0112472058,-0.000986707199,0.0604845716,2.25899275e-05,-0.00111073302,0.000890625641
87100.402836,-0.00175102665,0.00180225223,0.0515057308,-0.00167171308,0.00089729036,-0.000713662244
87100.412865,-0.0108764363,0.000445691091,0.0651227528,0.00102740061,-0.000179159339,0.00109755341
87100.422893,0.000347443464,0.00347701248,0.0761959355,0.000982659403,-0.00147531973,0.000742287375
87100.432922,-0.00010590806,0.00681032619,0.0660205784,0.00019969017,0.00136946887,-0.000201003626
87100.442950,-0.00572256063,0.000291555409,0.0738034874,0.000274791324,-0.000141608762,-0.000747217797
87100.452978,-0.000484020657,-0.00617402616,0.0630295799,0.000943511084,-0.00061511877,-0.000171442516
87100.463007,-0.0137951002,-0.0091491855,0.0757446846,0.00109824073,-0.00121672684,0.00074015744
87100.473035,-0.00562319191,-0.00987747009,0.0902607012,0.000454554625,0.000173709472,9.06120986e-05
87100.483064,-0.0007644633,-0.00555547642,0.0694593207,0.00071314763,0.000143615762,0.00152578996
87100.493092,-0.00650503451,0.00670442269,0.0657201341,-0.00118728413,-0.000179159339,0.000562524423
87100.503120,0.00677742171,0.00178823284,0.0497094951,2.5785761e-05,0.00031032972,2.24355608e-05
87100.513149,-0.000892583192,0.00914482213,0.067517539,0.000632187526,-0.00181007921,-0.000601010397
87100.523177,-0.00181183519,-0.0189783412,0.0714046095,-0.000420560071,-0.000215111999,0.00095720496
87100.533206,0.00108927481,-0.00829446608,0.0600303981,-0.000466100115,-0.000439882744,0.000342546962
87100.543234,0.00982250676,-0.00713183606,0.0899561653,-0.000421891629,-0.00120687322,-0.000297676772
87100.553262,-0.00049870677,-0.000250892321,0.0764846893,-0.000186468184,-0.0012180584,-0.00133231468
87100.563291,-0.0158414017,0.00767518797,0.0701981563,0.000589576957,-0.000636424171,0.00131513365
87100.573319,-0.00559758255,-0.0014257699,0.061816697,0.000523530587,-0.000394875417,-0.000576243736
87100.583348,-0.00668503072,-0.0101389455,0.0642120677,0.000255616556,0.00023309805,-0.000649480149
87100.593376,-0.00175705453,-0.00998397865,0.0634638797,-0.000890874304,0.000693558541,0.00034148246
87100.603404,-0.00114845765,-0.0060835988,0.0706464846,0.000454022025,0.000811802922,0.000268245116
87100.613433,-0.00679537749,-0.0139303234,0.0722907447,-3.33364587e-05,-0.00124682067,-0.000122973695
87100.623461,-0.0063832713,-0.0102339736,0.0467038835,-0.000623759232,0.000377707649,-0.000488891266
87100.633490,-0.0034084202,-0.0113951949,0.0710953974,0.000544569513,5.81282657e-05,0.000284756534
87100.643518,-0.00100461047,-0.00238098142,0.0836643716,0.000250556564,3.53355426e-06,-0.000870523043
87100.653546,-0.000500533401,0.00438429092,0.0678010321,0.000329652394,-0.000771979103,-0.00081033539
87100.663575,-0.00170044724,-0.00833020183,0.0731879858,-7.88765028e-05,0.00017930218,0.00107305218
87100.673603,0.00585219663,0.00367061937,0.0694452921,-7.73739885e-05,-0.00162907061,0.00034148898
87100.683632,-0.000179594351,0.000409293187,0.0562742604,-0.000452347042,-0.000473791501,0.000867995899
87100.693660,-0.0108604898,-0.0190391886,0.0478963082,0.00101691904,-0.000350220827,-0.000322436914
87100.703688,-0.0032417036,-0.000163492599,0.0685462975,0.000466976198,0.000512643426,0.000452276319
87100.713717,-0.0135393353,-0.00360678775,0.070790277,0.000184681034,-0.00146049261,-0.000718981959
87100.723745,-0.00734882839,-0.0179664493,0.0767740276,-0.000449417566,-0.000164332101,-0.000378630124
87100.733774,-0.000588960603,-0.00437294069,0.0731821406,0.00110080838,0.000914248114,-0.00158424303
87100.743802,0.00136743416,-0.0121300325,0.078867785,-0.00033410266,-0.000686844345,-0.00024334155
87100.753830,0.00643628013,0.00147499989,0.0790180071,0.000890418771,-0.000246091164,-0.000255325809
87100.763859,-0.0056660812,-0.00743562533,0.0734814158,-0.000260865781,-9.37583391e-05,0.00156334694
87100.773887,0.00229293324,-0.0110709062,0.0595645341,-0.00108697836,-0.00102985953,-0.00117917638
87100.783916,-0.00123798083,-0.00862853632,0.0734796622,-0.00133065763,-0.00134304725,-0.000968785957
87100.793944,-0.00148541625,0.00296780258,0.0448977109,-0.000343157444,0.00109294616,0.000340689905
87100.803972,-0.0045851541,-0.00583595331,0.0419037897,0.0008137197,0.000911584939,0.000679177232
87100.814001,0.00409906935,0.00177608118,0.0535755228,0.00056125212,-0.000286837574,-2.22986564e-05
87100.824029,-0.000408617334,-0.00240058574,0.0656961687,-0.000219853071,-0.000397358672,-0.000271837227
87100.834057,0.0116700526,0.00267180389,0.075423782,-0.00124943117,-0.000537973596,0.000993164256
87100.844086,0.000865165462,-0.0128857074,0.0956260276,-7.60423718e-05,3.44705768e-06,-0.000716851093
87100.854114,-0.00949727513,-0.0204822224,0.0887432823,0.000857928186,0.000988017651,0.00183685403
87100.864143,-0.00841713348,0.00264678818,0.0695885,0.000475498266,-0.000866607763,-0.00102870725
87100.874171,-0.0112402646,0.00125004344,0.0879939253,-0.000989772961,0.000392801128,-0.000558925793
87100.884199,-0.0104855007,-0.0111048542,0.0704857411,0.000407853979,0.000172291417,-0.000470242463
87100.894228,-0.0144725428,-0.00150825827,0.0498339982,-0.000971130794,0.000418900163,9.72766429e-05
87100.904256,0.00230875187,-0.0133612982,0.0514800119,0.000213443185,0.000233544153,-0.000342410989
87100.914285,-0.00991029465,-0.00054229475,0.0553729277,-0.000182835152,-0.000400820863,0.000201939605
87100.924313,-0.0176613472,-0.00242443697,0.0543248799,0.000859792461,-0.000693502137,-9.15415585e-05
87100.934341,-0.0115925304,-0.00661047906,0.0797609345,-0.000719195814,0.000197857735,-0.00102551188
87100.944370,-0.0109188324,-0.00144262971,0.0621019436,0.000995080918,-0.00143732317,-0.00128836557
87100.954398,-0.00124820996,-0.00271082301,0.0640443099,0.000857661944,-0.00162454345,0.00214045402
87100.964426,-0.00359488269,0.00776805389,0.0565606761,-0.000455809175,0.000198124093,0.00131087936
87100.974455,0.000564118422,0.000548187918,0.0507259786,0.000860325061,-0.000101215206,-0.000357057899
87100.984483,0.0156164156,-0.00448173026,0.0592570756,0.00146459625,0.000567238196,0.000876784325
87100.994512,0.00993044238,-0.00549211973,0.0664390961,0.000291740173,0.000492669758,0.000131632201
87101.004540,-0.00979919895,-0.00559551389,0.0769131438,-0.000747957907,-0.000103878323,-0.000129890628
87101.014568,-0.0014354579,-0.0135613028,0.0767599991,-0.000608408242,-0.00187354884,0.00129703106
87101.024597,-0.0199092174,-0.0131142601,0.0818453395,3.98050761e-05,-0.00111641223,0.000860805158
87101.034625,-0.00945539048,-0.00722048474,0.0860357769,0.000864319736,0.00132144545,0.000332167372
87101.044654,-0.0093726989,-0.00106594188,0.0712234077,0.00114927813,-0.000687643187,0.000405937433
87101.054682,-0.010809271,-0.00240370927,0.0662836132,0.000265374896,-0.000256743864,0.000120978802
87101.064710,-0.000605564678,0.00658705252,0.0634399143,6.93661859e-05,7.98797701e-05,0.00118491193
87101.074739,-0.00206597435,0.00167109785,0.0433873063,-0.00124596898,-0.00123199332,-6.89039007e-05
87101.084767,-0.0135780234,-0.0111347927,0.061043959,0.000152723165,0.00128895487,0.000371849164
87101.094795,0.00332602088,-0.000138561371,0.0526648377,6.21756772e-05,-0.00137074408,0.000517257489
87101.104824,-0.0103229123,-0.00852890274,0.0640378801,-0.000771926367,0.000649529917,0.000323645771
87101.114852,-0.00958338251,-0.0112325357,0.0770569362,-0.000264594157,-0.00023064483,-0.000134684145
87101.124881,0.00321852366,0.00599636347,0.0686748923,0.000435817172,-0.000553420046,0.000361728482
87101.134909,0.00786061384,-0.0082729986,0.0667255118,0.000419305521,-0.00119710597,0.00140755204
87101.144937,-0.00259273817,-0.0138547671,0.0462245756,-0.000406008039,0.00208976748,-0.000859863125
87101.154966,-7.66271665e-05,-0.0167596354,0.0668757339,-0.000592961907,-0.00134464516,0.000608869828
87101.164994,-0.00733746675,-0.00985458697,0.0698661479,0.000406256062,-0.000996037386,0.000940433703
87101.175022,-0.00714075687,-0.0159777323,0.0695657037,-0.00041772594,-9.10952222e-05,0.000791030005
87101.185051,0.00195696102,-0.0159712478,0.0704600221,0.000642478466,-0.00149431475,0.000307667069
87101.195079,0.00398488665,-0.00472339581,0.0641729047,0.000703997444,-0.00110283005,-0.000343210064
87101.205108,0.00869618788,0.00638976954,0.0680617288,-0.000171649852,-0.00147354207,0.000480771996
87101.215136,0.0051689636,-0.000716735718,0.0718003308,0.00116099603,-0.00109244371,0.000810737722
87101.225164,-0.0108918713,0.00663445131,0.0547428131,0.000252059079,-0.000321724918,0.000849353615
87101.235193,-0.0146094488,0.00615728737,0.0656651891,0.0003356823,-0.00099923322,-1.19125471e-05
87101.245221,-0.00904145765,-0.00820752986,0.0629711277,-0.000151942484,-0.000300685992,0.00105494959
87101.255249,-0.0231725483,-0.00575509521,0.0578811111,0.00113809272,-0.00052918517,-0.00177172944
87101.265278,-0.00683127079,-0.000667857358,0.0602741437,-0.000957815035,-0.000764342258,-9.7932294e-05
87101.275306,0.00216406443,-0.00615557719,0.0602735592,0.000342872809,-0.00104290899,-0.000431627035
87101.285334,0.00118341936,-0.0136683594,0.0595236176,0.000740749063,-0.000602688408,-0.000331225805
87101.295363,-0.00206011087,-0.0154024692,0.073138886,0.00017456105,-0.000176582718,-0.000485156663
87101.305391,-0.00763012955,-0.0182566941,0.0626654227,0.000134879956,-0.000310805975,0.000295949169
87101.315420,-0.00244045195,-0.00737664113,0.0614700755,-0.00092559075,0.000898002821,0.000567590818
87101.325448,-0.00310129048,-0.000587544964,0.0689496176,-0.000908812857,-0.000255412189,-0.000533625484
87101.335476,-0.004804843,0.0143085479,0.0593745645,4.53977846e-05,0.00111877883,-0.000153592788
87101.345505,0.0113235772,-0.0116755804,0.0623679011,0.000385217136,-0.000820801361,0.000553476624
87101.355533,0.000743109985,-0.00609392611,0.0771808548,0.00123902666,-0.00152574014,0.00119103724
87101.365561,-0.00414977662,0.00253376311,0.0767301885,-1.37244351e-05,0.000267099938,-0.00140394736
87101.375590,-0.0042652197,-0.0106260691,0.0723901134,-0.000872061239,-0.000363003928,-0.000513119623
87101.385618,0.00204031019,-0.00987970086,0.0774772074,-0.00139936712,-0.000436773524,-0.00072164461
87101.395647,-0.0214313307,-0.00110651135,0.050990767,0.000100525212,0.00145833194,0.000573716126
87101.405675,-0.00105853261,0.00354351554,0.053085109,0.000505858334,-0.00122906384,-0.00155201834
87101.415703,0.00395891196,0.000572429593,0.0716378338,-5.52697456e-05,5.77755272e-05,-0.00107637793
87101.425732,-0.00295181728,0.00207197255,0.0601163228,0.000802001799,-0.000726791797,-0.0008574659
87101.435760,-0.00247691151,0.00286153376,0.0729845722,0.000423033955,-0.00113931531,-0.00112857576
87101.445788,0.00296761763,-0.00777029151,0.0595154343,-0.000164991943,-5.51425619e-05,-0.000830035657
87101.455817,-0.0107682632,-0.00533835622,0.0610106413,0.00137271732,-0.00096594356,-0.000520576723
87101.465845,-0.00426518316,-0.0110863504,0.0705856944,0.00146086793,-0.000452219858,0.000483701937
87101.475873,0.00168700324,0.00131673145,0.0720779787,0.00140520791,0.00089906808,-0.000299267471
87101.485902,0.00172422998,-0.0155680966,0.0687888741,0.000750869163,0.000846603827,-3.24193388e-05
87101.495930,-0.00862268425,-0.0125575715,0.0726800363,-0.00039375748,-0.000636244193,0.00063097477
87101.505958,-0.00703822807,-0.00887630282,0.0358668477,-0.00126168167,-0.000510809477,-0.000828970224
87101.515987,0.00302051686,0.00332783382,0.0669908847,0.000881896704,0.00045059179,-0.000695546158
87101.526015,-0.00495530259,0.000884888509,0.074473934,-0.00109523418,0.000688145752,-0.0010111304
87101.536044,-0.0146000964,0.00637200098,0.0625011721,0.00025072752,-0.000100948848,0.00114895916
87101.546072,-0.00845224132,-0.000830728903,0.0737234079,0.000874439836,5.35144936e-05,0.000208064914
87101.556100,-0.00684170085,-0.00786023025,0.0557639728,-0.00146754412,-0.00144957355,0.00207547285
87101.566129,-0.00459806838,0.0125228746,0.0663882427,0.000641945866,-3.25056026e-05,0.00168265682
87101.576157,-0.00101233711,-0.00652879898,0.0674357059,-0.000504811294,4.97860601e-05,-0.000486221164
87101.586185,-0.00894157748,-0.00419909566,0.0648924511,-0.000571922981,0.00117417262,0.00212154584
87101.596214,0.00894327624,-0.00330396203,0.0589046089,0.00204862747,-0.000505216653,9.88747925e-05
87101.606242,-5.4378802e-05,-0.00251989442,0.0533686021,-0.000125843508,0.000160307158,0.00111220777
87101.616270,-0.00628753757,0.00337876942,0.0635422056,0.000866450369,-2.5048852e-05,-0.000201263465
87101.626299,0.00275834053,0.00859186671,0.0624929888,-0.000880849664,-0.000729188556,-0.00145667791
87101.636327,-0.00349569663,-0.00290122873,0.0574041412,0.000783892348,0.000932623923,-0.000202328898
87101.646355,-0.00168139548,-0.00707971543,0.0596481208,-0.000251012039,-0.00024129753,0.0002203146
87101.656384,0.0102452074,-0.0196025535,0.0677297204,-0.000457673334,0.000557384512,-0.00110593904
87101.666412,-0.00215310465,-0.00228901055,0.0711708008,-0.000928253925,-0.000721199205,0.000471717678
87101.676441,0.000657550593,-0.00631244368,0.0669821169,0.000113657326,0.00058902509,0.000847921707
87101.686469,0.00089422716,-0.00898923656,0.0606990911,0.000222048024,0.000555202947,-0.00186717045
87101.696497,-0.0129297155,-0.00525047016,0.0601017097,0.00105961214,0.00032590481,0.000137124211
87101.706526,-0.0114083512,0.00556436526,0.068480831,-0.000513250823,-0.000390751869,1.91461295e-05
87101.716554,-0.0137547682,0.00246792905,0.0586029956,0.00104709528,-0.000450939289,-0.000366479158
87101.726582,-0.00670446607,0.00921664526,0.0752121851,-0.000111113477,0.000285424758,-0.00100084487
87101.736611,0.00320274156,-0.005138468,0.0609960282,-6.10460411e-05,-0.000679704943,-0.000120935962
87101.746639,0.000577324964,-0.00674075666,0.0623404286,0.000830047647,0.000222041504,-0.00123919733
87101.756667,0.000230466021,-0.00862566623,0.0624912352,0.000229238532,0.00151287566,0.000440724194
87101.766696,-0.00651822279,0.00185500305,0.0644371086,-0.000714319467,-0.000850413577,0.000770956278
87101.776724,-0.00906518559,-0.00484858168,0.0565063156,0.00097732048,0.00127825118,0.000142450444
87101.786752,0.00719025856,-0.00377535839,0.0615951632,-0.000195003056,0.0013099428,-0.000494577922
87101.796781,0.000291895619,-0.000932001887,0.0659352382,-0.00055666035,0.000720318931,-0.000589652918
87101.806809,0.00072056936,-0.00463483389,0.0642898091,0.00204391638,-0.00056199322,0.000139521435
87101.816837,0.00264576527,0.00274798353,0.0817974087,-0.000729233143,-0.000625908957,-0.000565151684
87101.826866,0.00312595,0.00187921504,0.0674316142,-0.000524169765,-8.66189366e-05,-0.000592848286
87101.836894,0.00206000127,-0.000617168351,0.0609971973,0.000543491566,0.00151473982,0.000259363092
87101.846922,0.00259308523,-0.0222807734,0.0602507628,0.000767463353,-0.000265317038,0.00159760192
87101.856951,0.000628561961,0.00826986136,0.054714756,0.00132433022,-0.000827776617,-0.00140857417
87101.866979,-0.000994070805,0.00592990151,0.072819737,-6.10460411e-05,-0.000762262964,-0.00017872639
87101.877007,0.00716320616,0.00637376368,0.0487263292,0.000394354458,-0.000518317218,0.000165353529
87101.887036,-0.0109507071,-0.00948658477,0.0660842913,-0.000462384429,0.00016531616,0.000536331907
87101.897064,-0.00819501516,0.000800680824,0.0605459464,-0.000192606181,-0.00106479798,0.000214089639
87101.907092,0.00795726088,-0.00570827638,0.0892763663,0.000684106373,-0.000584629946,0.00157922599
87101.917121,0.0023174649,0.00311535554,0.0672784695,-0.000848276482,0.000497412286,-0.000319873914
87101.927149,-0.00735841821,0.00135769822,0.0780506234,-6.10460411e-05,-2.53662001e-05,0.000190920196
87101.937177,-0.0142967113,0.00197137314,0.0743114369,0.000243353308,-0.000377968769,0.000432468951
87101.947206,-0.00157448278,0.00431319159,0.0568032527,0.000218053232,-0.000436291914,-0.00111615937
87101.957234,-0.0022847682,0.0020905745,0.0569517213,-0.00036597799,0.000379434321,0.000164554454
87101.967262,0.00528451627,0.00816762483,0.0572527501,0.00041006715,0.000669718836,-0.000745980069
87101.977291,-0.00737211794,0.000926983218,0.0639846887,-0.00151166995,-0.000288486481,-0.000192841515
87101.987319,-0.00274562718,-0.00180225908,0.0559048426,-0.000180888281,0.000945356034,0.000588529743
87101.997348,0.00152174794,-0.0001532452,0.0723626409,0.000396484975,-0.000266382238,0.00128654437
87102.007376,-0.00697577556,-0.016952998,0.0775993725,0.000739500159,0.000310192117,-0.000340913422
87102.017404,-0.00222531137,0.00550557058,0.0620382308,0.000307002803,0.000459595467,-0.000853572041
87102.027433,-0.0039738538,1.66817067e-05,0.0662263301,0.000599417952,-0.00160089217,-0.000767018646
87102.037461,-0.00885072086,-0.00335305502,0.0563484947,0.000693161157,0.000754673674,0.000440990552
87102.047489,-0.00200215187,-0.00279697377,0.0499105706,0.000511267222,-0.00119715708,-0.000413085334
87102.057518,-0.00536622147,0.00474539986,0.0605319179,-0.000344140048,-0.000924182939,3.48584726e-05
87102.067546,-0.00239973635,-0.00109457204,0.0615805501,0.000534436782,0.00147266197,0.000706507824
87102.077574,0.0119708074,0.000670519673,0.065022215,0.000277708052,0.000233759405,0.000954448245
87102.087603,-0.0036383017,-0.0024773773,0.0671183105,0.00064975163,0.000125635066,0.000286794268
87102.097631,0.0016482056,-0.00827982107,0.0651712681,0.00123617961,-0.000922318897,-0.000602435321
87102.107659,-0.00478749,-0.0109309201,0.0624777912,0.000318454346,0.00117225735,-0.000799509697
87102.117688,-0.00222806958,0.00402617308,0.074448215,-0.000453329674,-0.000779573456,0.00143994251
87102.127716,-0.00409159843,0.00351652479,0.0739975486,9.63467755e-05,0.000615390367,-0.000723076984
87102.137744,-0.000814257259,0.00412338181,0.068760817,0.000268653268,0.000207926729,0.00109053589
87102.147772,-0.00741749145,0.0110445822,0.0588847352,0.000669725356,0.000655604119,0.000104367733
87102.157801,-0.00556826512,0.0101702288,0.0654717123,0.000916067744,0.00125375006,-0.00072067976
87102.167829,0.0030304172,0.00696159634,0.0689110391,0.00177573622,0.000934170734,0.00023912359
87102.177857,-0.00279216974,0.0186243835,0.0876145706,0.000378908124,-0.00104375894,-0.000875942409
87102.187886,-0.0102761688,0.00556724677,0.073847911,0.00166521501,0.000601275591,-0.000474603847
87102.197914,-0.00252524416,0.000721108216,0.0509533576,0.00158159179,3.08265444e-05,-0.000766485929
87102.207942,0.00545808274,-0.00913918241,0.0555909543,0.000185296405,-0.00140914472,-2.666004e-05
87102.217971,0.00187989546,5.04104464e-05,0.0454150127,0.00114776287,0.00100714131,0.000266287476
87102.227999,0.00826106613,-0.0102342842,0.091803839,0.000326443929,0.00104868668,-0.000293242745
87102.238027,-0.00237379819,-0.00166801084,0.0882125365,0.000711004366,1.37822935e-05,-0.000611756928
87102.248056,-0.00166457221,-0.0049052255,0.0443698876,0.00130888401,0.00116160465,-0.000365681015
87102.258084,0.00493411367,-0.00981809088,0.0609790771,0.000260397443,-0.000646415283,0.000480672345
87102.268112,0.00633988881,-0.00476772129,0.078933836,0.000387696549,-0.00138917088,-0.000681265257
87102.278141,0.000528718316,0.00800790422,0.0584328997,0.00189957302,0.000214850996,-0.000169672072
87102.288169,-0.00342319765,-0.00712212066,0.0386819051,0.00125775137,0.00079914846,-0.00211484451
87102.298197,-0.000453515921,0.00821048216,0.0769891317,-0.000370771682,0.000907805457,0.00195260113
87102.308226,-0.0121768148,0.00483570393,0.072351535,0.000187426922,-0.00136227312,-0.0014109714
87102.318254,0.00716548945,0.00709715519,0.0608282705,-0.000449601241,0.000325372093,-0.00166503713
87102.328282,-0.00279759483,0.00223046703,0.0781885706,0.000983445672,0.000805806369,0.000112622976
87102.338311,-0.00548529954,-0.00239134298,0.0499064789,-7.25017162e-06,-0.000542285736,3.51248309e-05
87102.348339,0.00816339618,0.00077621767,0.0653185676,-5.49207907e-05,0.0006191188,0.00129666459
87102.358367,0.00448341076,-0.00731853829,0.076543726,-0.0012466854,0.00199730461,8.06655735e-05
87102.368396,-0.00328444676,-0.00861315837,0.0267184956,-0.000789154263,0.00205988903,0.000381335616
87102.378424,0.00566381618,-0.00477620599,0.0612859511,-0.00160088576,0.000940296042,-0.00034410879
87102.388452,0.00709925581,-0.00617268815,0.076251465,1.8045539e-06,6.30507711e-05,-0.000284720212
87102.398481,-0.00660201035,0.0163134123,0.0778957251,0.000112325768,-0.000658932258,-0.000399769284
87102.408509,-0.00567104964,0.000461726627,0.0793909321,0.000889169867,-0.000742289121,0.000268418342
87102.418537,-0.00325958632,-0.00373954272,0.0620323855,-0.00221820641,0.000545349205,0.000818360597
87102.428565,-0.00188703759,-0.00575598341,0.0695142657,7.77046662e-05,-0.00151993206,-0.00117794517
87102.438594,-0.0043929012,0.00089486648,0.0684656335,0.00203379639,0.00048169971,4.92399558e-05
87102.448622,0.000690192488,0.00182469011,0.0594873772,-0.000141739845,-1.92408916e-05,0.000592258759
87102.458650,-0.00081672321,-0.00498624571,0.0481149193,0.000415659742,-0.000564389979,-0.000923879445
87102.468679,0.00117024936,-0.00149599245,0.0662193158,0.000371717615,-0.000237087486,-0.000268475153
87102.478707,-0.0090683274,-0.00788642413,0.0693634591,-9.38074663e-06,0.00251981686,0.000929148402
87102.488735,0.0111333336,-0.0109894956,0.0552975243,0.000138158444,-0.00203552004,0.000469220802
87102.498764,0.00651698068,-0.00109110144,0.0569423689,0.000722189667,0.000538691296,0.00063034147
87102.508792,0.0107671124,-0.00466024233,0.0737041186,5.61330235e-05,0.000716057839,-0.00182988681
87102.518820,0.0176725261,0.00347461731,0.0859738176,-0.000503663439,-0.00046265719,0.00121304113
87102.528849,-0.00162886158,0.0114563185,0.0698129564,0.000260663801,-0.000300204381,-0.000261550769
87102.538877,0.00285995601,0.0126938244,0.0618815789,0.00049502193,-0.000448276172,0.000929681119
87102.548905,0.0113354321,-0.00247884774,0.0760983203,0.00100102264,0.000444681733,0.000100905076
87102.558933,-0.00470271606,-0.0117143347,0.0635252544,8.94225668e-05,-0.00112285477,-0.00166503713
87102.568962,-0.00573136499,-0.00658295402,0.0552946017,0.00104256789,-0.000926846289,0.00023326464
87102.578990,0.00701429921,0.00373051003,0.039133156,-9.54008428e-05,0.000307262642,-0.00136676244
87102.589018,-0.0122212933,0.00310985282,0.0650227995,-0.000274365244,0.00159942836,2.97985971e-05
87102.599047,-0.0070690068,0.00251451727,0.0763975955,1.21908961e-05,0.000722449447,0.000392521732
87102.609075,-0.00593592939,-0.000254317254,0.0515595068,-0.000845080649,0.00115894154,0.00016242452
87102.619103,-0.00935123599,0.00166911139,0.0555991376,0.000945362495,-0.000783035415,0.000535000116
87102.629132,-0.00322088001,0.00628706265,0.082085578,-0.000864521717,-0.000326303416,0.000293451361
87102.639160,-0.00656229939,-0.00222949892,0.0698164635,0.000870261341,0.00132405758,0.0007307427
87102.649188,0.005577654,0.0117134807,0.0677209526,8.67593917e-05,-0.00116413378,0.00138774468
87102.659217,-0.00161874204,0.00166925295,0.0518593666,5.71982819e-05,-0.000332162366,-0.00142322201
87102.669245,-0.00419767089,0.00934483365,0.0496118799,0.00120502082,-0.00033056445,-5.08949161e-05
87102.679273,-0.0091206421,8.98839403e-05,0.0548486115,-0.000506361888,0.000638506259,0.000840758905
87102.689301,0.00739301459,0.00907699476,0.0552957708,0.000875552418,0.000431578606,-0.000476973131
87102.699330,0.00729718954,0.0066349308,0.0446703319,-0.000810494879,-0.000591874123,0.00126420148
87102.709358,0.00370939418,-0.00273509209,0.0647223553,0.000677146832,-0.000501060393,0.000544082373
87102.719386,-0.00689257253,0.00461165395,0.0608306085,0.000637998455,0.000655017793,-0.00234198477
87102.729415,-0.00523245729,0.00502927657,0.0796890383,-0.00115031423,0.000548757729,-0.00061306078
87102.739443,-0.00434465987,0.00499886317,0.0757990451,0.000206033699,-5.36493026e-05,2.6896596e-05
87102.749471,-0.000722889181,-0.00653598677,0.0708598351,-0.000705566374,0.00112373417,-0.00132598914
87102.759500,0.0111342287,-0.00680441475,0.0681651892,0.000776216504,-0.00089094718,0.00193824759
87102.769528,-0.00534874062,-0.0023937724,0.069213237,0.00152483094,-6.13725279e-05,4.52622771e-06
87102.779556,0.00294264759,-0.00289862122,0.0475181225,0.000169814681,0.000983119244,0.000594682992
87102.789584,-0.0114708402,0.00578720053,0.06697218,0.000256633735,0.000488303951,0.000990694854
87102.799613,0.00712590636,0.00326787922,0.0552992779,-0.000215012056,-0.00197618525,-0.00139922556
87102.809641,0.00436276179,-0.0055795537,0.0599357055,-0.00121103437,-8.13461374e-05,-0.00014194753
87102.819669,0.00748936937,-0.00798638194,0.0551478867,0.000317353872,0.00078764325,-0.000955543481
87102.829698,0.00457026706,-0.00122346825,0.0713105015,0.000921092462,-0.000166567392,-0.000175236724
87102.839726,0.0057789122,-0.00118362029,0.0734048434,-0.000580131426,0.00117619848,0.0019465033
87102.849754,-0.00595823255,-0.00454422387,0.0720598586,7.47398008e-05,-0.000239271671,-0.000720386393
87102.859782,0.000222300981,-0.000187252501,0.065474635,5.82282664e-05,-1.31692505e-05,-0.00111772958
87102.869811,0.00680653821,-0.00122482909,0.0744528912,0.000891264994,-0.000271229539,-0.000953678973
87102.879839,0.00710199576,-0.0132778577,0.0512584781,0.00149473734,-0.000250989571,0.000651407987
87102.889867,-0.00890162906,0.000436806815,0.0642763651,0.000100306235,0.000770066399,0.000802143011
87102.899896,-0.00540962222,0.002012381,0.0560445433,0.000647319481,-0.000432883389,0.000500939786
87102.909924,-0.0019153869,-0.00662529989,0.0534989505,0.00101510203,-0.000898404047,0.00231162272
87102.919952,-0.00334306335,0.00284363963,0.057238137,0.000842795474,-0.00112210959,-0.000913465396
87102.929980,0.00802281866,0.00366191091,0.0576870498,0.000995927257,0.000233972096,0.0023124218
87102.940009,0.00638186479,-0.000359362231,0.0537958876,0.000456370879,0.000943438208,0.00050919503
87102.950037,-0.00411149044,0.00500844841,0.0690595077,0.000667825807,-0.000843276503,0.000226633623
87102.960065,-0.00773048465,-0.0011169026,0.0695095896,0.000877949176,0.000238499488,0.000969123095
87102.970094,-0.0115434488,-0.00537943715,0.0665139149,-0.000112746726,-0.000487744575,0.000505466945
87102.980122,0.00346482657,-0.00597531612,0.0650163698,0.000457968679,0.000898963423,0.000347008929
87102.990150,0.00362423665,0.000480152766,0.0624725305,-0.000318875362,0.000539170345,0.000169375911
87103.000178,-0.00144471892,-0.00267723812,0.07908172,0.000609502546,-0.000274425372,-0.00088923052
87103.010207,-0.00154246194,0.000740383738,0.0775841749,0.00101403682,-0.00072556478,0.00019174628
87103.020235,0.00515981218,-0.000418882999,0.0608253478,-0.000203560514,0.00111947313,0.000364319421
87103.030263,0.00312521935,0.008706965,0.057386021,6.24893e-05,0.000713607413,0.00130175194
87103.040292,-0.00870990588,0.00266124597,0.0671124653,0.000995394541,-0.00111012533,-0.000946488231
87103.050320,-0.00408721451,0.00808762296,0.0618757337,-0.00106429413,0.000260337372,-0.00119442865
87103.060348,0.000181530579,-0.00254283462,0.0618774872,0.000307766488,0.00103132252,4.63379547e-05
87103.070377,0.00245639844,-0.00202285673,0.0698071112,0.000539727742,0.000587639865,0.000251933932
87103.080406,-0.0126633379,-0.0108327387,0.0570879149,0.000142650446,-4.99208691e-05,-0.000325439498
87103.090434,-0.00583451484,-0.0120404705,0.057384852,-0.000303961686,-0.000945275649,-0.00145515241
87103.100461,-0.0139524827,0.00215188994,0.0657616352,-0.000797179062,0.00036979327,0.000784832053
87103.110491,-0.00389485201,0.0084280202,0.0524427194,-0.000247768941,-0.00105020427,-0.0012996234
87103.120518,0.00283626461,0.000193189051,0.0579793108,0.000356768607,-0.000926100882,0.000806137919
87103.130547,-0.000945920814,-0.015803522,0.0647100803,0.000934408279,-0.000571367797,-0.00116566662
87103.140575,-0.00154649879,-0.0127879324,0.0570785625,0.000864633359,0.000190029969,0.00173052121
87103.150604,-0.00400229444,-0.0154594121,0.0645621963,0.000962105114,0.000520261936,0.000740890391
87103.160632,-0.00164035109,0.000485532194,0.0677051705,-0.000659227371,0.000203878386,1.27824023e-05
87103.170659,0.00456338066,0.00135796308,0.0558861379,-2.37970962e-05,0.00150483253,0.000352335162
87103.180688,0.00281730418,-0.00215030534,0.0524433039,-1.63402874e-05,-0.000929030357,-0.000238620676
87103.190717,-0.00383802553,0.0117436065,0.0747410605,-8.47835327e-05,-6.77770004e-06,0.000351536088
87103.200745,0.00489991914,0.00767397783,0.0614262363,0.000585267786,0.000899762323,-0.00108417403
87103.210773,0.0117775864,0.00783635618,0.0584334843,-0.000348170113,0.000383109087,0.000730504282
87103.220802,-0.00119905533,-0.00176251159,0.0516986231,-0.00125684065,-0.000162306242,0.00134782493
87103.230830,0.00224467365,-0.00398572234,0.0663631082,4.86408826e-05,-1.71640422e-05,0.000415185466
87103.240858,0.00739087744,-0.00586138915,0.0618728111,-0.000698375807,-0.000174024142,0.000176033936
87103.250886,0.00886909676,-0.00911530378,0.0579828179,-0.000895449717,0.00025048363,0.000825312454
87103.260915,0.00523419259,-0.00189973267,0.0534954433,-0.000563087233,0.00116554578,0.000555800274
87103.270943,0.00553995234,-0.0111678113,0.0771381847,0.00107955048,0.00044649234,-0.000228499994
87103.280971,0.00896983546,-0.00546492804,0.0719008686,-0.000824077055,0.00153732311,0.000136086717
87103.290999,-0.0007849033,-0.000844556499,0.0681610976,0.000382601283,-0.000414241338,-0.000442352146
87103.301028,0.00249826482,0.00385729648,0.0774392135,-0.000942853978,0.000595096732,-0.000271110795
87103.311056,-0.00714402654,0.000289141973,0.0564917026,-0.000435255526,0.000342895393,0.000198670663
87103.321084,-0.0182102132,-0.000454648432,0.0841740747,0.000557304593,0.000768468482,-0.000420248136
87103.331113,-0.0105582554,0.0098531759,0.0494622423,0.000200174749,0.00220950507,-0.000312656164
87103.341141,-0.00600612681,-0.00199679527,0.0597895751,1.5029218e-06,5.73915895e-06,0.000752608292
87103.351169,-0.0125058276,0.000531933186,0.0621855303,-0.000220604707,-0.000352988718,-0.000131827779
87103.361197,-0.000473188736,0.00692340606,0.0412391884,-0.000252562633,0.00216130167,-0.000782171264
87103.371225,0.00214276592,0.0110267315,0.0702712216,-0.000461354502,0.00248407689,-0.0010657981
87103.381254,0.0112439361,0.000819280494,0.0566547842,0.000649716356,-0.000806524884,-0.000154997222
87103.391282,0.0103778026,-0.00413794462,0.0698223088,-9.5968775e-05,-0.000103716739,-0.000886833295
87103.401310,-0.0167239384,-0.0136457274,0.0689250677,-0.00138357654,0.000218209112,-0.000615879893
87103.411339,0.0029233949,-0.0164251382,0.070121584,0.00158504897,-0.0010545156,-0.000237444416
87103.421366,-0.0125723169,-0.0196819663,0.0668278031,0.00124682754,-0.000851849094,0.00023872871
87103.431395,0.00675210461,-0.00306557528,0.0829874953,-0.000682099955,0.000908500457,0.000346054323
87103.441423,0.00876507013,0.0100289252,0.0728150608,-0.0010722531,0.000167875318,-0.00017619133
87103.451452,0.004352076,0.0161409966,0.0603968933,-0.000548675598,0.000777739217,-0.000860890374
87103.461480,0.00278917406,0.0120858806,0.077158643,0.000469450955,0.000180392177,-0.00126276165
87103.471507,0.00378945541,0.0212570381,0.0859884307,-0.00116013736,9.22415638e-05,-0.00149019528
87103.481536,-0.0177555283,-0.000188074485,0.0665349577,-0.00038702169,0.00173834141,-0.000449698418
87103.491565,-0.0163929895,-0.00551023306,0.0520201101,-0.000764125318,-0.00092668389,8.02706927e-05
87103.501593,-0.024269495,-0.0330607864,0.056357847,0.000281964312,0.00049997156,0.000865903217
87103.511621,-0.0152848821,-0.0199197616,0.0467810404,-0.00061418931,0.00223954837,0.000179872848
87103.521648,0.0142886741,0.00848780126,0.049027358,-0.0010035435,0.000904505723,-0.000841715373
87103.531678,0.0310557393,0.013975311,0.0481336241,-0.00188318559,0.000927142566,-5.36860898e-05
87103.541705,0.0209531187,0.0235698999,0.0548696543,-0.00144083449,-5.10364771e-05,-0.00197169464
87103.551734,0.00806695007,-0.0109600092,0.0408095648,-0.00147439039,0.00182968786,0.000184400007
87103.561762,-0.00581049464,-0.0241540702,0.0565250203,-0.000987031846,0.000356959761,-0.00049230922
87103.571791,-0.010778127,-0.0348927282,0.081216394,-0.00104508875,0.00104272377,-0.000647038221
87103.581819,-0.00598422551,-0.0457809874,0.090348964,-0.00240330095,0.00104725105,-0.000335182063
87103.591846,-0.00632679187,-0.0191910912,0.0608721096,-0.00342728617,0.000310887117,0.00147017464
87103.601875,0.00842049448,0.00380705957,0.044714171,-0.00171647174,0.00172848767,-8.03181902e-05
87103.611904,0.0074711944,0.0209986338,0.0442716879,-0.00418974925,0.00168055086,-0.000683790073
87103.621932,3.14728505e-05,0.0068225532,0.0118096803,-0.00576873729,0.00338231074,-0.00102920178
87103.631960,-0.00808483278,0.00544048087,0.0134673843,-0.00893310551,0.0039319871,-0.000823339447
87103.641987,-0.00382565924,-0.0167487213,0.00495148493,-0.00532825058,0.00349709298,-0.000662218779
87103.652017,-0.00267603254,-0.0168527136,0.046263154,-0.0057823197,0.00307365041,0.000439797528
87103.662045,-0.00959123702,-0.0211979695,0.081738372,-0.00540281925,0.00486755557,-0.00107926968
87103.672073,-0.0059197637,-0.030875307,0.0872872383,-0.00597087154,0.00413731672,-0.00108752493
87103.682101,0.0012157142,-0.0120233984,0.0751782828,-0.00601614499,0.00417566672,-0.00115383789
87103.692130,0.00156502083,-0.00348047394,0.0781803873,-0.00815785956,0.0015183643,0.00036869105
87103.702158,0.0101866456,0.00577992141,0.0530500377,-0.0109611033,0.00287631014,-0.00132667739
87103.712186,-0.0159124759,0.00160181831,0.0545551815,-0.0103863925,0.00371600478,-0.0016369354
87103.722214,-0.00353252151,-0.0166510559,0.0331704482,-0.0125723155,0.00367951952,0.000663236715
87103.732243,0.00157303974,-0.0161784928,0.0484445897,-0.012770188,0.00185259106,-0.00137567893
87103.742271,0.00306870339,-0.00681762586,0.0673065266,-0.011711848,0.00149173266,0.000638469122
87103.752299,-2.74725288e-05,-0.0198753837,0.109061263,-0.0106372628,0.00255886139,-0.000147962011
87103.762327,0.0122804213,0.0066774913,0.14767361,-0.00969077554,0.000875477213,0.000874958001
87103.772356,0.0121407388,0.00322446934,0.100992523,-0.0087474836,0.00110211223,0.00120066246
87103.782384,0.0137558276,0.00819952009,0.0846849469,-0.00566700473,0.000139113166,-0.000413745642
87103.792412,0.0141426715,0.0336748358,0.0932172129,-0.00303633418,0.000467214617,0.000974560156
87103.802440,-0.00544368889,0.0136890551,0.0577531008,-0.0018032908,0.000348171336,-0.000656359829
87103.812469,-0.000418298477,0.00239443684,0.0374041402,-0.0016094126,0.00120118191,1.02296472e-05
87103.822497,0.000648673167,0.0263345355,0.063445175,-0.00106586143,0.00146989478,0.00157137448
87103.832525,0.00672669617,0.0242930517,0.068534607,-0.00107651413,9.19752056e-05,-0.000577796251
87103.842553,0.00414858931,0.00316894204,0.0598567951,-0.00136813021,0.000574806356,-0.000879266299
87103.852582,0.00457004786,0.00155574839,0.096519177,0.000452406704,-0.000333864242,-0.000573801808
87103.862610,0.0134988024,-0.0306535609,0.0591068535,-0.00193511718,-0.000339190476,-0.00120949838
87103.872638,-0.00570011134,-0.0337448665,0.050280573,-0.00359000545,0.000339116552,0.000698656775
87103.882666,0.00416612497,-0.027089893,0.0225987853,-0.00272234762,-0.00054531917,-0.00118446443
87103.892694,0.00866975653,-0.00674096673,0.0505851089,-0.00257374323,0.00164379925,-0.000371401198
87103.902723,0.0141945478,0.0135847454,0.0957762497,-0.00139422924,-9.84407961e-05,0.000156703405
87103.912751,0.000348210649,0.00837477619,0.0827601163,-0.0013609397,0.00112794491,-0.0016166959
87103.922779,-0.00980436832,0.0225062664,0.0604641133,-0.000364651147,-0.00086276792,0.000112761743
87103.932807,-0.019465821,0.0114145731,0.0733311937,-0.00198811409,-3.45249427e-05,-0.00186809804
87103.942835,-0.0133948854,-0.00779231154,0.0646539662,-0.000323904795,0.000218741712,-0.00068272464
87103.952864,-0.00903327435,0.0290761007,0.0754278737,-0.000640288286,-0.000557303429,-0.00128699653
87103.962892,-0.0135166486,0.0197462819,0.049989481,-0.00188345183,-0.000956511358,-0.000336780213
87103.972920,-0.00276007583,0.00209393322,0.0258984114,-0.00181234558,-0.000222810428,-0.00224227179
87103.982949,0.00414155678,-0.00834533547,0.0484936895,-0.000976379262,-0.00107289129,0.00164061692
87103.992977,-0.000328537835,-0.010308402,0.0612123013,-0.00203898037,0.000201431219,-0.00232988968
87104.003005,-0.00409992787,-0.018664163,0.0499912346,-0.00380705297,-0.000690195244,4.48506325e-05
87104.013033,-0.00228781868,-0.0213746115,0.0540314499,-0.00154043676,0.000946583634,-0.000342905521
87104.023061,-0.00187843416,-0.00848368221,0.0510404514,-0.00371943507,-0.000240387279,-2.8652139e-05
87104.033090,-0.001310973,-0.0120918011,0.0229103355,-0.00474821404,0.000210219645,0.000561770052
87104.043118,0.000202810829,-0.024940138,0.0232107797,-0.00767183257,5.17615117e-05,-0.000249162316
87104.053146,0.000126074065,-0.0312282715,0.0303968918,-0.00502731372,0.00133300829,-0.000149560161
87104.063174,0.0146115311,-0.0243924387,0.0751397044,-0.00201687636,0.000320208143,-0.0011407882
87104.073202,0.00961889222,-0.00276621331,0.093995796,-0.00234604301,0.000466149417,-0.00138260331
87104.083230,0.0078644863,-0.0181975136,0.0705026922,-0.00558844162,0.000242976472,-0.000565545633
87104.093258,-0.00698699108,0.000737119777,0.0154418993,-0.00481133116,0.00306166615,0.000828885473
87104.103286,-0.0101064748,0.0005852514,0.0869727655,-0.00251941476,0.000925544649,0.000710641034
87104.113314,-0.00159930669,0.00175781259,0.106875736,-0.00262487587,0.000438985182,0.000514632091
87104.123343,-0.0129713444,-0.00851349054,0.0706634358,-0.00385472365,-2.46712007e-05,0.000853918958
87104.133371,-0.0230144169,-0.0104527778,0.0437298361,-0.0051186597,0.00133726932,0.00154634099
87104.143399,-0.0219678487,-0.0440827915,0.0724614251,-0.00407390203,-0.000582869863,0.00288830791
87104.153427,-0.0486272163,-0.106269897,0.0509147792,-0.00563691091,-0.000253436738,0.0027189306
87104.163456,-0.0249866851,-0.0444658953,0.0507657261,-0.00318254204,-0.00070484262,0.000229674391
87104.173484,0.003926197,0.0567039388,0.0747071582,-0.00281289499,0.00213302183,0.000702651683
87104.183512,0.0540505747,0.123126312,0.118701198,-0.00150075566,-0.000377540011,-0.000619874336
87104.193540,0.0534761724,0.101421343,0.0943096843,-0.00176281063,-0.000116550247,-0.000613482669
87104.203568,0.0306214761,0.0465626027,0.0832359171,0.000210058992,-0.000722951954,-0.00129152369
87104.213597,-0.0162262546,0.00488028628,0.078746789,0.0015469658,-0.0003234779,-0.000229987316
87104.223625,-0.0352163661,0.0141559203,0.0577969399,0.000676378491,1.98036432e-05,0.000563900918
87104.233653,-0.0283873056,0.00117028132,0.0495639491,0.000741359661,0.00106296386,-9.09706578e-05
87104.243681,-0.0164274763,-0.0130823591,0.0545025746,0.00108117901,-0.000320282066,0.00152450288
87104.253709,0.0102859596,-0.0322429649,0.0518108513,0.00117012847,0.000242443872,-0.000602297485
87104.263738,0.0257073458,-0.0302595109,0.0562993948,0.000430568703,0.000241911272,-0.000480058603
87104.273766,0.0385679781,-0.0170585327,0.0622854835,0.000841760891,-0.000496583292,0.000210233033
87104.283794,0.0333370735,-0.0102603822,0.0542044684,-0.000399005949,-6.16891775e-05,0.000311433338
87104.293822,-0.0037745501,-0.0116631228,0.0473211386,0.000500609865,0.000473073567,-0.000941850245
87104.303851,-0.0255051377,-0.0212258027,0.0485194085,-0.000633896736,-0.000553574879,0.00023872871
87104.313879,-0.0388602939,0.0131738699,0.0685720164,0.000322977081,0.000150298467,-0.000329855829
87104.323907,-0.0256396691,0.0219749589,0.0745598587,-0.00124349433,-0.000199907226,0.000289595686
87104.333935,-5.34837529e-05,0.0313213223,0.0811444978,0.000856408267,0.000130058499,-0.000401228666
87104.343963,0.0171746048,0.0152340218,0.076504563,0.000260659028,0.000273602782,0.000323417597
87104.353992,0.00284424698,0.00119451158,0.0530108747,-0.000758266309,-0.000637997175,0.00113514904
87104.364020,0.00045322366,-0.0142349974,0.0425362424,0.000626044814,0.00112341752,0.000397186726
87104.374048,0.00865441283,-0.0211277675,0.0573509497,0.000441221404,-0.000557569787,-0.000933062285
87104.384076,-0.0159114713,-0.00525697182,0.049121466,-0.000196871988,0.00132208935,-0.00187661964
87104.394104,0.00784517881,-0.00385525979,0.0697726244,-0.00112125522,0.00159293285,-0.000320535153
87104.404133,0.00569567262,0.00240154928,0.0744131437,0.000371846021,-0.000637906254,0.000459549017
87104.414161,0.00429230863,-0.000436895863,0.0765051475,4.42771707e-05,0.000121094752,0.000844376162
87104.424189,0.0185496195,0.0155185516,0.0802455031,-0.000647079432,-0.00149224827,0.000974338036
87104.434217,0.00990395624,0.00593444183,0.0577986935,0.000341219595,0.000102985185,0.000847305637
87104.444245,-0.0137367759,0.0230140539,0.0497182629,-0.000294476922,-0.000654151547,0.000427058898
87104.454274,-0.00557816546,0.00640515091,0.0628881256,0.000307397451,0.000664645864,-0.0015375549
87104.464302,-0.0144760682,0.00839314981,0.0738134242,0.00088770024,-0.000166526646,0.00157781038
87104.474330,-0.0156897183,-0.0199257987,0.0675251377,0.00040327129,0.000171694788,-6.26966357e-05
87104.484358,-0.0187551337,-0.00921544767,0.077399466,0.000548679847,-0.00101687398,0.0021256227
87104.494386,-0.000125562608,-0.0146113462,0.0642290188,-4.45870683e-06,-0.000910613802,0.00218394585
87104.504415,-0.00736778882,-0.00285960895,0.055701429,0.00026452064,-0.000654950389,0.000658487435
87104.514443,-0.00240496052,0.00956540618,0.0726098937,0.000112454058,-0.00151461887,-0.00154687651
87104.524471,0.00524155392,-0.0112078476,0.0679705434,-0.000476637157,0.000749334402,0.000912552699
87104.534499,-0.00679554189,-0.00289711082,0.0473223077,0.000479171402,0.000408183434,0.00111122476
87104.544527,0.0114097212,0.00951539645,0.0574994183,0.000712197972,-5.4407632e-05,-0.000378015451
87104.554556,-0.00231532774,0.00795685446,0.0685714319,-9.95334703e-05,0.000526960474,-0.000590534881
87104.564584,0.0123192737,-0.000535202855,0.0557031825,0.00157106749,-0.000660276855,-0.00019638706
87104.574612,0.0141495214,0.00765923577,0.0742570763,0.000623514759,0.000791944971,0.000967946835
87104.584640,0.00875838466,0.00397806304,0.0658773705,0.00143790932,-0.000338833197,0.00112187723
87104.594668,0.00415925684,0.00350107263,0.0772486594,-0.000778373273,-0.000278912135,-0.000566832721
87104.604696,0.0121718464,-0.0029693849,0.079494977,0.000183560536,-0.000215795124,0.000205749646
87104.614725,0.00807122438,-0.0211152254,0.0800911893,0.000499677728,-0.00018197298,0.000432917848
87104.624753,0.000789816937,-0.00360352037,0.052257426,-9.42072365e-05,-0.00268321391,-0.000501586124
87104.634781,-0.00212247205,-0.00765552771,0.0555471152,0.000171842636,0.0013594646,-5.71040437e-05
87104.644809,-0.000600614508,0.00625607385,0.0464227285,-0.000435624446,0.00107077789,-0.00199561939
87104.654837,-0.00247654618,0.0180458176,0.0396913744,-0.00060633308,0.00128755928,-0.000291462056
87104.664866,-0.0220668338,0.0237144138,0.0568991143,0.000966529944,-0.00020620774,0.000213473104
87104.674894,-0.0133019464,0.0319746443,0.0655798489,0.00157666008,-8.55665421e-05,0.000912286341
87104.684922,-0.00745431633,0.0100600989,0.0836854144,-0.000341881183,-0.00125149859,0.000452091917
87104.694950,0.00761916977,0.000208253048,0.0973036054,0.00113963534,-0.000483176555,0.000835853629
87104.704978,-0.00426730206,-0.00127608778,0.0724614251,0.00069542008,-0.000902624452,-0.000891472213
87104.715007,0.00299382979,-0.0258694342,0.0756014767,-0.00028968323,-0.00221289974,-0.000555647537
87104.725035,-0.00490077765,-0.032016054,-0.0107440969,-0.00180182606,0.000144796795,0.00056980364
87104.735063,0.00134127681,-0.0183554806,0.0676677611,-0.00119862007,-0.000830186415,0.0010875226
87104.745091,0.0212350957,-0.0067540671,0.0191810858,-0.000127230422,-0.000889042276,-0.00158362836
87104.755119,-0.0125112892,0.0170699366,0.0562935496,-0.00127425382,0.00228171726,-0.000650456175
87104.765147,2.53901696e-06,-0.00193587028,0.0983434699,-8.00924608e-05,0.00014080212,0.00119910901
87104.775176,0.00284740705,0.0205508672,0.0477659598,0.00136014505,-3.49665061e-05,-0.00153595768
87104.785204,-0.016459625,0.0322788537,0.11959201,-0.000425770762,-4.82823234e-05,-0.000657646917
87104.795232,-0.00652821446,-0.00600215161,0.0715565852,0.000959871919,-0.000736443209,-0.000212366693
87104.805260,0.00298792977,-0.00253343888,0.0730506232,0.000314321718,-0.00112872676,-0.000166027807
87104.815288,-0.0076923994,0.00292549096,0.0847235253,-0.000621779414,0.000657987955,0.00114557939
87104.825317,0.00724348659,-0.0190009206,0.00242401228,-0.000838560751,0.000661183789,0.000155149959
87104.835345,0.0179383557,-0.011728055,0.0325029242,-0.0015642721,0.00128276553,-0.000739405863
87104.845373,-0.0134399301,-0.0107317979,0.0940028103,-0.00120474538,-0.00123818277,-0.000452850014
87104.855401,0.020873021,-0.0212804236,0.0314537074,-0.0008217828,0.000608186878,-0.00044166483
87104.865429,-0.0082523531,-0.00507130849,0.101636082,-0.000820717542,-0.000148949795,-7.36154616e-05
87104.875457,-0.015152287,0.00721385521,0.0945996071,-0.000609795214,-0.000453349086,0.000323994085
87104.885486,0.00314154943,0.0118926356,0.0675140318,0.00206375215,-0.00101767306,0.000307216309
87104.895514,-0.000594002104,0.0157717957,0.0872621039,-0.000914460805,-0.00142300606,-0.000971367583
87104.905542,0.0127243474,0.0140290768,0.0271036955,0.000266118441,-0.000719398842,0.000280318782
87104.915570,0.00652821446,-0.00508924715,0.040722471,0.000211523729,0.00111525273,0.00109258248
87104.925598,-0.000501848575,0.0079449003,0.0559855066,-0.00101033458,-0.000222453033,0.000693108421
87104.935626,-0.00575686476,-0.0212857573,0.0410223307,0.0002887554,-0.000154276146,0.000771671534
87104.945655,-0.00467858627,-3.75258487e-05,0.0808247643,-0.00103856414,0.000687815365,-0.000204376876
87104.955683,0.00552747645,-0.00369841498,0.0713970107,-0.000938429264,-0.0011273952,0.000395366922
87104.965711,-0.000693900548,-0.0150917056,0.0640630146,0.00080221286,0.000287808594,0.00050482247
87104.975739,0.000310143661,0.0115008894,0.0746884535,-0.000910732371,-0.00114949944,0.000330385752
87104.985767,0.00453811835,0.00670348084,0.0350333195,0.000634966302,0.000771438645,0.000615077559
87104.995795,-0.00710395025,0.0025075384,0.0643617053,0.000815528561,6.99619995e-05,0.000407351181
87105.005824,-0.00861736876,0.00829627673,0.0588256985,0.000758803333,-0.000519928173,-0.00132982899
87105.015852,-0.00955187313,0.0048092155,0.0534393292,-0.00128677068,0.00172991026,0.00084677292
87105.025880,0.00461436193,-0.00278087431,0.0728939713,0.00108637207,-0.000179842464,0.00210724678
87105.035908,0.0019257987,-0.00817540057,0.0627186142,0.000179033144,-0.000671195681,-0.000705850311
87105.045936,-0.00571980242,-0.0063197582,0.0721457833,2.88308365e-05,0.00137970468,-0.00195460673
87105.055964,0.0124150988,-0.0022538559,0.0649625938,0.000582768349,0.000812451355,0.000818543136
87105.065993,0.0174827209,-0.0146660218,0.0426671753,0.000603807275,-0.000256275176,0.000331717543
87105.076021,0.00528119181,0.00750643924,0.0676543171,-0.000370643334,-0.00121767644,0.000538645312
87105.086049,-0.0061938862,-0.0121967354,0.0529892474,-0.00076745433,-0.00120862166,8.00490379e-05
87105.096077,-0.00187390411,-0.00165718463,0.0374234295,-0.000220441027,-0.000886645517,0.000835321378
87105.106105,0.000518543981,0.0187242808,0.0763292064,0.000521515612,-0.00131914287,-0.000487737358
87105.116133,-0.00101111327,0.0044007911,0.0676467183,0.000325773261,5.47820237e-05,-0.000983085483
87105.126161,0.00707689785,-0.00794879673,0.0710883832,-0.000156258873,0.000939484104,0.000989518128
87105.136190,-0.0120220626,0.00573468604,0.0682476068,-0.000100598787,-2.13844469e-05,0.00114717754
87105.146218,0.00557767227,0.00033533861,0.0664537091,-2.84271082e-05,0.000133078895,-0.00108907931
87105.156246,-0.00369131053,-0.00190916266,0.0595697948,-0.000552270911,-0.00089330331,-0.00100465678
87105.166274,0.000115917997,-0.011672482,0.0520861611,-0.00100926938,0.000532286824,-0.000644863583
87105.176302,-0.00741000226,-0.00827764167,0.0604670359,-8.19566194e-05,-0.000105007668,-0.00215540826
87105.186330,-0.00103095048,-0.000432932074,0.0692933165,0.000495682936,-0.00161954726,-0.000940208323
87105.196359,-0.00757445384,0.00613106494,0.0664496175,-0.000254795828,-0.000252014142,-0.000662174076
87105.206387,0.000418791668,0.0050167847,0.0718389093,-0.00079754804,0.000807923963,-0.00131757837
87105.216415,0.0149660985,0.005622435,0.0640565848,0.00150075986,-0.00132873014,0.000931194983
87105.226443,-4.98670237e-05,0.00594107021,0.0571750086,-0.000729903753,0.000793276588,-0.00117696356
87105.236471,0.0106932252,0.0153001961,0.0510404514,-0.000293145364,-8.29034252e-05,-2.51457095e-05
87105.246499,0.00267594121,-0.00132460994,0.0586702156,-0.000462256081,-0.00115482567,0.000837984495
87105.256527,-0.00186637839,0.0112193531,0.0595697948,-0.000622312073,0.000209245365,-0.00115645677
87105.266556,-0.015043712,-0.00246149474,0.0682487758,-0.000725642662,-0.000279977336,-0.000662174076
87105.276584,-0.0139414133,-0.00306016731,0.0633095659,-0.000330163282,-0.00122726371,-0.000410239212
87105.286612,-0.00563844428,0.00176700967,0.0558253476,-0.00047530554,-0.00110156264,0.000507486053
87105.296640,-0.00588034501,0.00317068305,0.0648024348,-0.000832968042,-0.000874927617,-0.00100678764
87105.306668,0.00705459469,0.00943261468,0.0685416213,-0.0008220491,-0.00113937946,-0.00112156942
87105.316696,-0.00114586383,-0.00809962164,0.079015669,-0.0003549307,-0.00106880569,-0.000554050319
87105.326724,0.00560468814,-0.00648879805,0.0619563977,0.000334029086,0.000218832749,-0.000323686749
87105.336753,-0.00485047224,0.00314603723,0.0668938541,0.00042084814,0.000725898601,0.00050349161
87105.346781,0.00867518163,-0.0040230952,0.0650964493,-5.87871764e-05,-0.00049409538,5.71459532e-05
87105.356809,0.0110871016,0.00600906769,0.0734755706,-0.0009773114,-0.000334039563,-0.00140945707
87105.366837,-0.00498284818,-0.00361925337,0.0621007746,-0.000407927553,-0.00205763755,0.000800167676
87105.376865,0.00794021841,-0.00842434182,0.070628949,-0.000142410398,-0.000397689058,0.00104411319
87105.386893,0.00297010185,0.0038961592,0.0471364297,0.000132427784,-3.60318227e-05,-0.000340730883
87105.396922,0.00926695524,0.00109663956,0.0567126518,0.00137186295,0.000319500221,6.1406754e-05
87105.406950,0.00681335154,-0.00318008335,0.0757183811,0.000592344208,-0.000981125631,0.000249646604
87105.416978,-0.00759387093,-0.000477214174,0.0788578481,0.000828300253,-0.00051720289,-4.33009118e-05
87105.427006,-0.00604748174,0.000770646446,0.06568857,-0.000394623319,-0.000864479109,-0.0004704725
87105.437034,0.00284033799,0.00850832346,0.0679313805,0.000943082385,-0.000235973159,8.6305663e-06
87105.447062,0.00812985924,-0.00681232292,0.0544622425,0.000298064901,6.12356234e-05,-0.00019430276
87105.457090,-0.00453826448,-0.00113386287,0.0596983896,-0.000188228325,-0.000507615623,0.000429942273
87105.467118,-0.00329343379,0.00345583726,0.0680769264,-3.56292585e-05,-0.000417068019,-0.000859560445
87105.477147,0.0110935496,0.00389997115,0.0686748923,-0.00195789896,-0.00098352239,-0.000364478678
87105.487175,-0.00773077692,-0.00738023046,0.0622398908,-0.00013070408,0.000622097345,0.00025310833
87105.497203,0.0120299719,-0.00439518563,0.0647831456,-0.000558940344,0.0013771035,-0.000890452415
87105.507231,0.00377537209,0.00239680233,0.0514665679,-0.00122446427,0.000828226039,-0.000807361677
87105.517259,0.00943378144,0.00093232383,0.0620914223,-0.000409803353,-0.000792840146,0.000237395987
87105.527287,0.000512406502,-0.00248201352,0.0598451046,0.00106079411,-0.000979527715,-0.00041720923
87105.537315,0.00924715456,-0.00669822356,0.0561029955,0.000661320053,-0.000358212274,0.000831014477
87105.547343,0.00663388506,-0.00364703414,0.0602905103,0.000153455185,-0.00240884628,0.00101929996
87105.557372,0.00271811812,0.00744055152,0.0686708006,0.000756661175,0.000332079129,-0.00284068566
87105.567400,-0.00232360238,0.0122229076,0.0580453617,-0.000660939433,-0.000649029505,-0.00152588263
87105.577428,0.0101393176,-0.00248165961,0.062832596,-0.00105242408,-0.00106448249,-8.27163458e-05
87105.587456,0.00851522356,-0.00408181682,0.0622334611,-0.000834311242,-0.000474059838,-0.000296833925
87105.597484,-0.00299987594,0.00427336761,0.0537041177,0.000432021916,-0.000357413315,0.000173213892
87105.607512,0.0071119509,-0.0115915977,0.0671732556,0.000204587937,-0.000102282502,-0.00027393084
87105.617540,0.00583473404,0.00799431295,0.0552004937,-0.000274248479,-0.000777660054,0.00103341462
87105.627569,-0.00736150521,0.00213046356,0.0550514406,-0.000348018017,-3.5170815e-05,0.00153835025
87105.637597,-0.00972132968,0.00348926689,0.0640285278,0.000854931888,1.09019456e-05,-5.44860959e-05
87105.647625,0.00460584983,-0.00101820288,0.0566974543,-0.000304608489,-0.000660747406,-0.00138952956
87105.657653,-0.0170767157,0.000719858115,0.0589420183,-0.000839637534,0.00130093715,0.000305039808
87105.667681,-0.00412477005,0.0101013557,0.064929276,0.000192603678,-0.000235706801,-0.00105769932
87105.677709,0.00426638874,0.000676211911,0.0718120213,-0.000708077394,4.28598141e-05,-0.0022364147
87105.687737,-0.00218834036,0.00111116355,0.0571481206,0.000587756396,0.00122267951,-0.000184398144
87105.697765,0.00354110667,-0.016537984,0.055355392,0.00120214757,0.000571270357,0.000986860134
87105.707793,-0.00376340765,-0.0097791083,0.0640378801,0.000296939164,0.000596304075,-0.000461366959
87105.717822,0.00508990702,0.00187529578,0.0664314973,-0.00100747717,0.000848239055,-7.20126554e-05
87105.727850,-0.00259746915,0.0037970188,0.0516185436,-0.000463659642,0.00121975003,0.00167475501
87105.737878,0.00114546197,-0.00252885632,0.0635895519,0.00114009588,-0.000634076307,-0.000382004306
87105.747906,0.00309409356,-0.0135834519,0.0632902766,-0.000158727693,-0.000497988891,-0.00210773293
87105.757934,-0.00051963996,-0.0114700502,0.0641886868,0.000232756953,0.000978467637,0.00149552384
87105.767962,0.00682317882,-0.0109800222,0.0647872372,0.00165941229,-0.00120319379,0.000583391637
87105.777990,-0.00745765906,0.00510108029,0.0650876815,0.000218908535,0.0013931219,0.000843049493
87105.788018,0.0040282326,0.00222887444,0.0522200166,-0.000101736048,9.00371233e-05,0.000380724669
87105.798047,-0.00150899806,-0.000804157131,0.0519207414,-0.00107352354,-0.000512636267,9.15052369e-05
87105.808075,0.00790511057,0.00934594219,0.0748158793,0.00040080247,0.00112121308,0.000837989617
87105.818103,0.00784959926,0.00233310086,0.0583569119,0.000483094133,5.22201881e-05,0.000299498439
87105.828131,-0.016050003,-0.00985518862,0.0697287853,-0.00090068439,-0.00208922755,0.000552232377
87105.838159,0.00200054443,-0.0128354648,0.0683791242,-0.000947555993,-0.000617831014,-0.000206768513
87105.848187,0.00163647863,0.00273045473,0.0603004472,-0.000381101621,2.02623196e-05,-0.000799055211
87105.858215,0.00311709084,-0.00682228263,0.0555126284,-0.000251671998,-0.00088281557,-3.0733645e-05
87105.868243,0.00907486673,0.00380956548,0.0595534282,-0.00126180903,5.32855047e-05,-0.00107655674
87105.878271,0.00811857066,0.00765973353,0.0665881492,6.9238944e-05,0.00198514247,-0.000442991033
87105.888300,0.0178179808,0.00681736214,0.0638958413,-0.00122026366,-0.00041756127,0.000498170033
87105.898328,-0.00253720859,0.01545335,0.0588081628,-0.000494552311,-0.000432208646,-0.000239791349
87105.908356,-0.00763319829,0.0063188563,0.0615016397,-0.000137688708,1.01423357e-05,0.000493642874
87105.918384,-0.00507228003,-0.0101591868,0.0537198997,-0.00119522994,-0.000342726475,-0.000199311413
87105.928412,-0.00236475637,0.0039132987,0.055515551,-0.000211458304,-0.000765636563,0.000200695358
87105.938440,-0.00027035964,-0.00951176374,0.0659901833,0.00115580868,-0.000523022609,-0.00101849996
87105.948468,0.00482535606,-0.00566869899,0.0703290892,0.000284688664,-0.00109080854,0.00110403961
87105.958496,-0.00564816195,-0.00182966311,0.0511760605,-0.000572050281,0.00138619763,-0.000196648762
87105.968524,0.0117130332,-0.000832005261,0.0638987639,0.000795482891,0.00190844352,0.000494175591
87105.978553,0.00264309839,-0.00337155993,0.050883215,0.000520112109,0.000155018293,-0.000485868193
87105.988581,-0.00463995303,-0.0255262171,0.0540279428,0.00118457072,0.00141389447,-0.00111304224
87105.998609,-0.00346049745,0.00328447416,0.0683937373,0.000692418544,0.000976869836,-0.000242721289
87106.008637,0.00197889886,0.00361178359,0.0706406394,-0.000304402609,0.000360614271,0.00119964685
87106.018665,0.0155232026,-0.00802745602,0.0712374363,0.00046684884,-0.000352580333,-0.000223812647
87106.028693,0.00142100925,-0.0014012999,0.056569444,0.000857800827,-0.00198563072,-0.00192104559
87106.038721,0.00207286075,-0.00775338832,0.0627034167,-0.000711866247,0.000602163025,0.00164253032
87106.048749,0.00716753528,-0.00419704184,0.0755722506,-0.000425576465,1.25390943e-05,0.000262480229
87106.058777,-0.00496660943,-0.0127077582,0.0583639262,0.000879106112,0.00102533936,0.000321069732
87106.068805,-0.00559312557,-0.00289167203,0.0612082097,-0.00016085821,-0.000752587104,0.000414280221
87106.078834,-0.00286664148,0.0015627558,0.0695867464,-4.20812285e-05,-0.000902789412,0.00134558789
87106.088862,0.009360771,-0.00558168857,0.0689893651,0.000872714561,0.000609353534,-0.000745791942
87106.098890,0.00880874488,0.00985058208,0.0552256281,0.000980839017,0.000925470726,-4.05870378e-05
87106.108918,-0.00495336636,0.00525617039,0.0594148965,0.000600006897,-0.00166072487,-0.000330871902
87106.118946,-0.00868601355,-0.0127343345,0.0531301172,-0.000915331766,0.000212276238,0.000893916003
87106.128974,-0.00572811359,0.0112635051,0.0574707767,-0.00137685752,0.00025861524,-0.000229405239
87106.139002,-0.00542869225,-0.0222250931,0.0654015697,0.000225033844,-0.000605047913,0.000687520951
87106.149030,-0.0078083174,0.00363039696,0.0529810641,-0.000336360536,-0.00057601952,-0.000678680837
87106.159058,0.016790647,0.00298137331,0.0652501785,-0.000699349388,-0.000227145385,-0.000506107695
87106.169086,0.0150215367,-0.00965141196,0.0582166266,-0.00137392804,0.000144898193,-0.00103927311
87106.179114,-0.00529724789,0.000300554991,0.0625549481,-0.000353671086,-0.0015315616,0.000864354894
87106.189142,-0.00456376425,-0.000346009559,0.0694388624,-0.000603741908,0.0013142922,-0.00034738332
87106.199171,-0.0111919502,-0.00809301152,0.0763233612,0.000625573215,-0.000955253607,-0.000518358313
87106.209199,0.00967391034,-0.00489538224,0.0715332043,1.97041081e-05,-0.000679882709,-4.96422872e-05
87106.219227,-0.00727428359,-0.00727507018,0.0739244834,-0.00042264699,-0.000608510105,0.000421737321
87106.229255,-0.00689375984,-0.00830263911,0.0629986002,0.000991491484,-0.00205913396,0.000784992706
87106.239283,0.00938163113,0.0107200127,0.047732642,-0.000546750263,0.000154485577,-0.000160962343
87106.249311,0.00414802306,-0.0139613853,0.0649403819,0.00090360723,0.000150490901,0.000290709548
87106.259339,-0.00117021282,-0.0163846817,0.0453401939,-0.0011614078,0.00150577351,-0.000187593512
87106.269367,-0.00993462537,-0.000177967507,0.0516273114,-0.000964333944,-6.1496743e-05,-0.00115804933
87106.279395,0.00341819268,0.00622575178,0.0543202037,0.000416781404,0.00104451412,0.00115357433
87106.289423,0.0107271457,0.00794270263,0.0649450581,0.00041252037,-4.50504012e-06,-4.99086455e-05
87106.299451,0.00337013402,0.0122938071,0.0809568662,0.000781368115,-0.000924627297,0.000563950278
87106.309480,-0.0043672553,0.00750196628,0.0604553455,0.000177629525,9.74939903e-05,0.000348767266
87106.319508,0.00201817142,0.000489152348,0.0668909315,4.55367845e-05,0.000433052308,8.13854858e-05
87106.329536,0.000581325286,0.00052216756,0.0604588526,0.000108387321,0.00123226689,-0.000489862636
87106.339564,0.00597803323,0.00440410758,0.0589665682,8.46852781e-05,0.00050469127,-0.000860041939
87106.349592,0.00593954612,-0.00324639348,0.0625584552,-0.000239155139,0.00161629473,-0.00047308486
87106.359620,0.00349377867,-0.0108061133,0.0577718055,0.000570445787,0.000925470726,-0.000155902468
87106.369648,-0.00728182757,-0.00510600991,0.0607645576,0.0021441076,-0.000789605081,-0.00122116692
87106.379676,0.00320566417,-0.00898646122,0.0689940412,-0.000144346617,-0.0010311536,0.000412683003
87106.389704,0.00232615966,-0.0127913334,0.0694429541,-0.0011960289,0.00105490047,0.000418808311
87106.399732,-0.000863484962,0.00600815552,0.0706412239,-0.000263656257,0.00140457344,-0.00217883941
87106.409760,0.00097083606,0.00629617183,0.0646545507,0.000880704029,-0.00117336656,-0.000115156174
87106.419788,-0.00481448761,-0.000386204572,0.0556751255,0.00106606015,4.1035004e-05,0.000136779621
87106.429816,0.00443133351,0.0118158805,0.0712380208,-0.000151270826,0.00046873861,-0.00156338234
87106.439845,-0.00528009583,-0.00661690538,0.0541787494,0.000644215383,-0.000220487476,0.000514681451
87106.449873,0.00476926023,-0.0159092496,0.0516343256,-0.000657804077,0.000447965926,-0.000317289494
87106.459901,0.000255490865,0.0029663173,0.0770733028,-0.000191750878,0.000883925415,0.000445972197
87106.469929,-0.00365167264,-0.0128900868,0.0553764348,0.000188015867,-0.000350183342,-0.00080384966
87106.479957,-0.00480942784,-0.00685453636,0.0758756175,0.00075313868,-0.00131478044,9.52342525e-05
87106.489985,0.00371430782,-0.0101039415,0.0791682293,-0.000819724286,-5.77683095e-05,0.000378328376
87106.500013,-0.00589632803,-0.00925091057,0.0749789609,0.000440217205,-1.70218991e-05,-0.00113487989
87106.510041,-0.00306698636,0.00563342789,0.0604646978,-0.000945159176,0.000632789335,0.00059750583
87106.520069,0.00554497557,-0.011676294,0.061364277,0.000882035703,0.000227722572,-0.00146271568
87106.530097,-0.00675592227,0.00215556375,0.0579237812,-0.000567789248,0.000140637159,-0.00127682649
87106.540125,0.00187744778,-0.00284139401,0.0686988577,-0.000661266153,0.000372332172,0.0001737969
87106.550153,0.00682553517,-0.0158728221,0.0526870496,0.000479365699,0.000966749736,0.000930135138
87106.560181,-0.00352453913,-0.00681345772,0.0594213263,0.000170971616,0.000484983902,0.00126782386
87106.570209,-0.00496766888,-0.00332784409,0.0589753361,0.00097657775,0.000890583324,0.00104784686
87106.580237,0.00229981964,0.00469124026,0.0565823034,-0.000365388987,0.00113719213,-0.000411032699
87106.590266,-0.0104932639,0.00328058116,0.0615226825,-0.000425310107,0.000321199535,0.0001929719
87106.600294,0.00162202998,0.00818913455,0.0465589221,-0.000240220455,0.00140963343,0.000844114926
87106.610322,0.0110115339,0.0131647082,0.0573339986,0.000354641466,0.000735304435,0.00126503361
87106.620350,0.00406766956,0.00747189993,0.0717009621,0.000759175629,0.000252473401,-0.00118320994
87106.630378,3.20573724e-05,0.0119591706,0.0711059188,0.000744262012,0.00154996547,-0.00159120653
87106.640406,-0.00657998118,-0.00323588921,0.0706581751,8.9390669e-05,0.0012727303,0.000226667151
87106.650434,-0.00223796992,-0.00978725507,0.0540478165,0.00140419323,-0.000499070622,-0.00102155656
87106.660462,-0.0138398526,-0.000835507826,0.0465682744,-0.000354291988,0.00157206971,4.82350588e-05
87106.670490,-0.00246980591,0.00377131697,0.0402834951,0.000548253302,-0.000472172862,0.000273538753
87106.680518,-0.00512070401,-0.0117124533,0.0700602092,-0.000121798017,0.000139288954,1.60112977e-05
87106.690546,-0.00499919653,-0.00370051561,0.0748497815,-0.00101182645,0.000221048016,-0.000122739933
87106.700574,-0.00644177828,-0.00361453838,0.0673661478,-0.000731928216,0.000555807375,-0.000334727578
87106.710602,-0.00526564718,0.00478723656,0.0595861614,-0.00132261729,-0.000266576768,0.000494580716
87106.720630,0.00217255827,-0.00382324352,0.0660176558,-0.000320469844,-0.000601868611,-0.000222342089
87106.730658,-0.000850899475,-0.0191017621,0.0784381614,-0.000776136701,0.000353140873,-0.00125351828
87106.740686,-0.00255056127,-0.00883576189,0.0636257922,0.000917101162,0.000903083594,-0.000900383107
87106.750715,0.00761670382,-0.0145304013,0.0592863017,-0.000573470141,0.000577379018,0.000100166537
87106.760743,-0.00778897338,-0.00167745224,0.0621294162,-0.000398234115,-0.000682029873,-0.000270279124
87106.770771,-0.00766563926,0.00492993182,0.0492611668,0.00069952081,-0.000344607397,-0.000223939307
87106.780799,-0.00191860177,0.00330733787,0.0540478165,-6.82685059e-05,-0.00021251454,-0.000468950719
87106.790827,-0.0046499995,-0.00239540952,0.0736515117,0.000437199487,0.00113717548,0.00107222097
87106.800855,-0.00120716557,0.000152223428,0.0667681819,0.000490196398,0.000516126282,0.00022533536
87106.810883,0.0146017404,-0.00692241168,0.0723059423,0.000181269716,-0.000513984356,-5.37633896e-05
87106.820911,0.0079306286,-0.0157781752,0.0781400553,-0.000326062494,-0.000226895674,0.00237557199
87106.830939,-0.00860768761,0.00640735885,0.0693137747,-0.000542311114,0.000447683036,-0.000184791163
87106.840967,-0.00366705287,0.00396049656,0.0682663115,0.000215091859,0.00060667377,0.000229862519
87106.850995,-0.00249366171,-0.00203513968,0.0494125579,-0.000379858306,0.000157664763,-0.00151903462
87106.861023,-0.0051945547,0.00267804412,0.0453729272,-0.00137907639,0.000190688064,0.00101735955
87106.871051,-0.0017279563,0.0124812423,0.0697632721,-0.00030475721,0.000623718021,0.00141017605
87106.881079,-0.00702105774,-0.00650915927,0.0616840105,-0.000480792136,0.000723320234,-0.00104153063
