t,ax,ay,az,gx,gy,gz
85769.910102,-0.133093296,0.00101239191,0.362168594,0.0558369495,0.116459601,0.00484467065
85769.920126,-0.153537972,-0.00214228186,0.269131414,0.0752266273,0.199291095,0.0119004492
85769.930150,-0.21867848,0.0561107313,0.117113052,0.07875292,0.261970729,0.0159569755
85769.940173,-0.282889671,0.0641264991,0.00513970098,0.0455507562,0.255870223,0.0099222539
85769.950197,-0.243813359,-0.00127261375,-0.105984925,-0.0158508196,0.183631703,-0.000389772467
85769.960220,-0.12668774,-0.0476743086,-0.29415012,-0.0519571602,0.0909611657,0.0027122777
85769.970242,0.039092897,-0.0801061038,-0.486021183,-0.0280997641,0.00732991518,0.0153540373
85769.980267,0.0657618544,-0.0692239638,-0.571209404,0.0155180218,-0.0438906625,0.0196446553
85769.990290,-0.0468248795,-0.044989184,-0.490907786,0.0413360372,-0.0652683824,-0.00189818721
85770.000314,-0.105886725,-0.0556260622,-0.308194427,0.0528198518,-0.0666689426,-0.0116376327
85770.010337,-0.173367293,-0.0775410299,-0.0938946737,0.0379069485,-0.0600914694,-0.0227960125
85770.020360,-0.117210302,-0.0459591341,0.0392681805,0.0296412967,-0.0388567559,-0.0266011357
85770.030384,-0.104816173,-0.044893158,0.143317169,0.00897303689,-0.0165722221,-0.0253723525
85770.040408,-0.0608673604,-0.0188301535,0.202490073,-0.0124808559,-0.00176398084,-0.0281833187
85770.050431,-0.0425320047,0.0317360908,0.171664142,-0.0221811552,0.00200545741,-0.0393408984
85770.060455,-0.0417475032,0.0615616765,0.088735099,-0.0273077395,-0.0073510264,-0.0487330705
85770.070478,0.0239713158,0.0284445796,0.0485018728,-0.0166636184,-0.018031368,-0.0549062751
85770.080501,0.105665922,-0.0723910222,0.0997527521,-0.0110459449,-0.0285242219,-0.052457232
85770.090525,0.103514516,-0.118975138,0.16860417,-0.0204796605,-0.0291229021,-0.0487061702
85770.100547,0.0981740316,-0.122973697,0.193791218,-0.0211523753,-0.0229323842,-0.0386932194
85770.110572,0.0637578942,-0.139158122,0.228467395,-0.0240096804,-0.0154510308,-0.0335551798
85770.120595,-0.0101600864,-0.110645098,0.223092132,-0.038770251,-0.00974787213,-0.0358588174
85770.130618,-0.0207429283,-0.10749226,0.149674429,-0.0183661766,-0.0048074415,-0.040050365
85770.140642,0.00970240578,-0.102184802,0.114612468,-0.0212660935,-0.001167699,-0.0375504568
85770.150666,-0.0218789466,-0.10438285,0.106489367,-0.024221668,-0.00344976177,-0.0348572023
85770.160689,-0.0869753959,-0.120261506,0.0785790312,-0.0327800028,-0.0071678008,-0.0360108837
85770.170713,-0.107943365,-0.105170083,0.00353168126,-0.031825792,-0.00516110891,-0.0331200212
85770.180736,-0.0876883665,-0.109936274,-0.101672322,-0.0218141712,0.00493014092,-0.0285044983
85770.190759,-0.106420028,-0.142939047,-0.236408125,0.00491970591,0.0114996266,-0.030034218
85770.200783,-0.103196901,-0.184462998,-0.281066766,0.0235032421,0.00110291201,-0.0325594246
85770.210805,-0.100519864,-0.209165477,-0.250292858,0.0201332793,-0.0152630117,-0.0344758369
85770.220830,-0.0706465577,-0.264791156,-0.236175485,0.0106614809,-0.0366423354,-0.025492195
85770.230853,0.0232254658,-0.329803507,-0.19129531,0.00443154853,-0.0584735982,-0.0135050425
85770.240877,0.100001685,-0.374707502,-0.0866436797,-0.0100091761,-0.0794350728,0.00752727268
85770.250900,0.129103131,-0.36365686,0.0399614235,-0.0256848093,-0.0914672315,0.0255395621
85770.260923,0.065058017,-0.255195225,0.0960328548,-0.0267005395,-0.0886517391,0.0293643959
85770.270947,-0.0163825411,-0.142627524,0.129763275,-0.0213728845,-0.0718959272,0.0264104158
85770.280971,-0.0718208622,-0.0687772293,0.1575456,-0.0225169789,-0.052576296,0.00697812904
85770.290994,-0.0935901378,-0.0357765573,0.154725867,-0.00619126856,-0.0286355428,-0.0114205861
85770.301018,-0.0329030294,-0.0311181553,0.204220842,-0.00723442901,-0.00611372199,-0.0243731365
85770.311041,0.0152693923,-0.0298955273,0.170137955,0.00743612647,0.0114820488,-0.0272157937
85770.321063,0.10210443,-0.0725122237,0.124696639,0.02241401,0.023246564,-0.0263694413
85770.331088,0.145193338,-0.0887299297,0.143842069,0.032511916,0.0315420441,-0.0261814222
85770.341111,0.0502927748,0.00470483039,0.0815606774,0.0674374253,0.0434027389,-0.031631127
85770.351135,-0.00507693794,0.0489272358,0.0427513465,0.103971735,0.0531749427,-0.0379372276
85770.361158,0.00930346959,0.00529394169,0.105175362,0.111195557,0.0540260896,-0.0470186062
85770.371181,0.068774261,-0.101797949,0.220499192,0.0839865729,0.0454341993,-0.0463642664
85770.381205,0.0737500036,-0.230427114,0.292118322,0.0451281182,0.026966773,-0.035124395
85770.391229,0.0387674645,-0.30013566,0.280636558,0.0106745381,0.0100554358,-0.0208967254
85770.401252,0.00294314078,-0.25335789,0.17494331,0.00670243287,0.0108663682,-0.0151341753
85770.411276,-0.0302833485,-0.213272346,0.118731593,0.00720150955,0.0297447164,-0.0209308118
85770.421299,-0.00395224476,-0.220457089,0.116900286,0.0137422336,0.0543025248,-0.0242712162
85770.431322,-0.0466952618,-0.251175413,0.0510948119,0.0120055862,0.0722274631,-0.0214506611
85770.441346,-0.0609396949,-0.280817431,0.023418285,0.00510773202,0.0783095956,-0.0125224134
85770.451368,-0.0255596809,-0.302124715,-0.0313601839,-0.00258054747,0.0711627379,-0.000583728775
85770.461393,-0.00437054323,-0.287408043,-0.0379500837,-0.021293249,0.051019378,0.0100332294
85770.471416,-0.00789630621,-0.260156062,-0.0591156213,-0.0182330105,0.0292504337,0.020971898
85770.481439,-0.0504963346,-0.156266539,-0.152307115,-0.000801023212,0.010446121,0.0256859586
85770.491463,-0.0637464229,-0.0869482887,-0.0852636235,-0.00943179522,-0.00921626296,0.0249964669
85770.501487,-0.0762046302,-0.0701555958,0.0324883112,-0.0212575626,-0.024577111,0.02623244
85770.511510,-0.08248203,-0.062545267,0.0633224254,-0.0315152593,-0.0331727304,0.0328093804
85770.521534,-0.139979476,-0.0191906254,0.0783972449,-0.05480114,-0.0336310603,0.0316522382
85770.531557,-0.1923899,0.0207038475,0.0324234292,-0.05677481,-0.0285963528,0.0224089399
85770.541580,-0.227228135,0.0225780987,-0.0529553451,-0.0399894379,-0.0136112776,0.0129890721
85770.551604,-0.207573148,0.00265277953,-0.0616869331,-0.0246709362,0.00710305525,3.86517495e-05
85770.561626,-0.195375053,-0.0422272176,-0.106416886,-0.00878784247,0.0267443992,-0.00743417721
85770.571651,-0.182872203,-0.0715953509,-0.0666004241,-0.0093511017,0.0353687815,-0.00404716935
85770.581674,-0.137680259,-0.0763534184,-0.108805827,0.0037085074,0.0270392112,0.00598735455
85770.591698,-0.0855807267,-0.0400289358,-0.203912215,0.0301222708,0.0177772697,0.0168162994
85770.601721,-0.0325035087,-0.0772236163,-0.276149768,0.0502400547,0.0199663881,0.0228691325
85770.611744,-0.0148988054,-0.109531301,-0.3506389,0.0640671924,0.0131761273,0.0398342684
85770.621768,-0.037822731,-0.109814401,-0.386339158,0.0864643753,-0.00405958435,0.0547916442
85770.631792,-0.119442007,0.000947085291,-0.462474304,0.112766288,-0.0238583237,0.0545982979
85770.641815,-0.163965477,0.114131424,-0.373171049,0.103501953,-0.05199169,0.0462285168
85770.651838,-0.27184418,0.131104241,-0.159659232,0.0690305233,-0.0791825652,0.0327846147
85770.661862,-0.315659429,0.175372915,-0.0311865809,0.0338347182,-0.0871422142,0.0230978988
85770.671884,-0.357562123,0.239850228,-0.0234498492,0.00774905505,-0.0723060146,0.0120849283
85770.681909,-0.420230468,0.311474106,0.00172726218,0.00549362414,-0.0431950018,-0.0172841437
85770.691932,-0.502209736,0.330461423,0.0698825145,0.00463741785,-0.0021125474,-0.0570488721
85770.701956,-0.473049254,0.23489319,0.0412327586,0.0154658305,0.0502643734,-0.0847651884
85770.711979,-0.432135279,0.0721839462,-0.100294604,0.0664512515,0.107291445,-0.100135885
85770.722002,-0.424684306,-0.0848801498,-0.102483054,0.073649779,0.108738072,-0.0990405306
85770.732026,-0.290659136,-0.224198705,-0.0525187073,0.102250263,0.0470968112,-0.0563236922
85770.742050,-0.159738361,-0.248338582,-0.634905923,0.209450483,0.0575281456,-0.072784692
85770.752073,-0.33321496,-0.0334177603,0.027117724,0.144309565,0.0867659301,-0.100584097
85770.762096,-0.540198399,-0.049565278,0.147214761,0.164511248,0.077527158,-0.105521068
85770.772120,-0.616340339,-0.131957506,0.227086754,0.123333707,0.0692447275,-0.104559131
85770.782143,-0.468136202,-0.149306728,0.456572386,0.0709370822,0.0677637383,-0.0980120152
85770.792167,-0.348080301,-0.212973345,0.354952087,0.0416849181,0.0688100979,-0.0887772366
85770.802189,-0.282261017,-0.303508571,0.36032735,-0.00371318986,0.0629990771,-0.0745751336
85770.812214,-0.336374373,-0.167770678,0.569821749,-0.0720248669,0.0614389963,-0.0682546496
85770.822237,-0.415010249,-0.419248216,0.228134217,-0.0298246853,0.0829373673,-0.0711274073
85770.832260,-0.237089604,-0.477325361,0.261249721,-0.0240951609,0.123317279,-0.0400073007
85770.842284,-0.37649676,-0.345875046,0.348702379,-0.0943794399,0.147342712,-0.0298260376
85770.852308,-0.352415992,-0.446650967,0.201201787,-0.141473711,0.14465265,-0.0219577253
85770.862331,-0.227007917,-0.458305055,-0.0211380651,-0.168692559,0.114504084,-0.00329722371
85770.872355,-0.179168234,-0.447661788,-0.186011232,-0.189390108,0.0819173753,0.0227548834
85770.882378,-0.124820558,-0.411349864,-0.293335296,-0.213451505,0.0370945074,0.0566750318
85770.892401,-0.167916042,-0.336077765,-0.328433497,-0.240091905,-0.0288674626,0.0813303143
85770.902425,-0.133202602,-0.268777394,-0.348575537,-0.228541508,-0.0920019522,0.103190869
85770.912448,-0.10882402,-0.168948106,-0.264344764,-0.217970893,-0.139958039,0.118580744
85770.922472,-0.145560125,-0.0446811546,0.0218038355,-0.231229693,-0.164776295,0.123779237
85770.932495,-0.209122058,0.0102839685,0.321778716,-0.250987947,-0.173285902,0.130196929
85770.942519,-0.236789744,0.070008479,0.445299881,-0.243656546,-0.148840204,0.12920782
85770.952542,-0.278824686,0.185663222,0.530656444,-0.228859484,-0.0952579379,0.124502279
85770.962566,-0.326668314,0.267696796,0.623797669,-0.233616158,-0.0416048318,0.107664712
85770.972589,-0.318218977,0.279963189,0.625885581,-0.244775608,0.00125262293,0.0923507363
85770.982613,-0.244519243,0.222412716,0.513399604,-0.254642069,0.0199866295,0.0838147774
85770.992636,-0.15503106,0.11537852,0.363904039,-0.239562735,0.0359179229,0.0852371678
85771.002659,-0.133311469,0.0814296349,0.176959326,-0.217936799,0.0471625887,0.0857120082
85771.012683,-0.225988876,0.072326638,0.0617886399,-0.174810365,0.0522447005,0.0707937777
85771.022706,-0.325894261,0.173075872,0.107975806,-0.175083876,0.0560892373,0.0428423062
85771.032730,-0.590803162,0.136449438,-0.0215519066,-0.116474889,0.0596181937,-0.0222330987
85771.042753,-0.674948668,0.210118522,-0.107423433,-0.0425940119,0.0729603693,-0.0720288828
85771.052777,-0.669205083,0.187861317,-0.0793926857,-0.0043989541,0.0857922807,-0.113651961
85771.062800,-0.637720615,0.0643907487,-0.0155745858,0.0286439508,0.092278406,-0.143729165
85771.072824,-0.602333368,-0.000417787021,-0.0377998616,0.0575693399,0.0980462804,-0.161040783
85771.082847,-0.450323116,-0.021447606,0.0236684604,0.0497375168,0.097390607,-0.16680786
85771.092871,-0.317477073,-0.0273440436,0.0378904625,0.035257645,0.0847999826,-0.169304833
85771.102894,-0.302752309,0.00233374018,-0.0867804578,0.0299909767,0.0621742941,-0.173549116
85771.112918,-0.269674361,-0.0368103208,-0.220395148,0.0106724072,0.0331687443,-0.1769308
85771.122941,-0.262638325,-0.100912188,-0.373155852,0.00242007012,-0.00278685987,-0.18497248
85771.132964,-0.147206869,-0.0774602015,-0.329086993,-0.0331613608,-0.0381206162,-0.184131458
85771.142988,-0.0417615317,-0.135025287,-0.375914795,-0.0530226827,-0.0703714937,-0.182545274
85771.153011,-0.075897464,-0.0985355949,-0.312923209,-0.0891633704,-0.0916195214,-0.185488865
85771.163035,-0.141084587,-0.0793099758,-0.195663442,-0.14507857,-0.118209586,-0.193383813
85771.173058,-0.19468634,-0.062732935,-0.0985357776,-0.172667593,-0.135144904,-0.188293174
85771.183082,-0.176657128,-0.0158185871,-0.179177586,-0.178348377,-0.142653689,-0.170853466
85771.193105,-0.114577689,0.0230029091,-0.205084766,-0.144303858,-0.158255279,-0.14448604
85771.203129,-0.0310148045,0.190395365,-0.258868378,-0.143821284,-0.132146448,-0.113364607
85771.213152,-0.197095155,0.313719511,-0.0456458989,-0.145172581,-0.109164961,-0.0955424681
85771.223176,-0.39373884,0.36559265,0.0192424606,-0.145237833,-0.100666814,-0.0864208713
85771.233199,-0.474940475,0.38661498,0.0523743304,-0.124394067,-0.084717676,-0.0734749809
85771.243223,-0.508000887,0.406363709,0.0566384175,-0.0939583927,-0.0558916256,-0.0689800978
85771.253246,-0.566437294,0.375238722,0.0868979467,-0.0649299398,-0.0231661685,-0.0777498856
85771.263270,-0.649662032,0.235027082,0.0638648617,-0.0279391669,0.00282308902,-0.0853478834
85771.273293,-0.701270054,0.0354901964,0.235309808,-0.107559159,0.000400677731,-0.0717806742
85771.283316,-0.817099642,-0.200159292,0.294965528,-0.0964324698,-0.00117857673,-0.0768217742
85771.293340,-0.774018699,-0.499733702,0.0406751247,-0.0847603679,0.00704446575,-0.0205896609
85771.303363,-0.661340195,-0.305969846,0.121411042,-0.112842605,0.0102881957,0.0433981083
85771.313387,-0.683134897,-0.268015561,-0.0254413152,-0.115983002,-0.00394293806,0.0900814608
85771.323410,-0.637849502,-0.0730934394,-0.173891171,-0.0764947161,-0.0230673645,0.129605964
85771.333434,-0.58345163,0.0162496355,-0.22271453,-0.0535143018,-0.0482411608,0.157841593
85771.343457,-0.575274388,0.0634652314,-0.0729202748,-0.0556775294,-0.076614067,0.175291643
85771.353481,-0.568972731,0.0829927925,-0.0914595556,-0.0249385294,-0.0896750093,0.190429851
85771.363504,-0.581882262,0.139066014,0.0153331782,-0.0109851621,-0.0820871294,0.184534147
85771.373528,-0.657525532,0.155327303,0.138624627,-0.0130083654,-0.0588012487,0.164079204
85771.383551,-0.624191564,0.0440884038,0.139642864,0.0163700283,-0.0212152582,0.128600836
85771.393575,-0.497714836,-0.135283975,0.143648008,0.0184566155,-0.0301253982,0.136147976
85771.403598,-0.297770356,-0.155048669,-0.0936538507,0.0129609173,-0.00851384364,0.14711754
85771.413622,-0.410789928,-0.0789628794,-0.113375035,0.0145138064,-0.00553643005,0.144899383
85771.423645,-0.582166413,0.00151529993,-0.187288412,0.0249358192,-0.0431160294,0.125674024
85771.433668,-0.533817173,0.0406997477,-0.289899476,0.0688465536,-0.0829361454,0.101864837
85771.443692,-0.43099422,0.215768145,-0.260219208,0.0955018625,-0.106755987,0.0728869811
85771.453715,-0.268431814,0.324121808,-0.120939917,0.123140417,-0.122926436,0.0498551577
85771.463739,-0.153334047,0.385018614,0.0709954442,0.150164574,-0.127068192,0.0315967947
85771.473762,-0.133167092,0.353285615,0.22524551,0.162602603,-0.133801714,0.021335369
85771.483786,-0.102620709,0.23509317,0.367485405,0.181259647,-0.13517271,0.015732877
85771.493809,-0.00821713566,0.0926331294,0.444858567,0.183287635,-0.121813498,0.0119101759
85771.503833,0.0627129152,0.00258318489,0.534796613,0.179503024,-0.0989076495,0.012978103
85771.513856,0.142084339,0.0247009087,0.597698182,0.162853211,-0.0706757456,0.00875805877
85771.523880,0.298896657,0.0932602483,0.664263535,0.155124977,-0.0424920507,0.0111764753
85771.533903,0.459168102,0.0649603653,0.689577424,0.153137192,-0.0068823914,0.0208618604
85771.543927,0.536561138,0.163886603,0.795226249,0.108944967,0.0311185196,0.039445661
85771.553950,0.539953045,0.0595493,0.680778616,0.102740601,0.0736422837,0.0535311252
85771.563974,0.497535023,0.000983202351,0.537355065,0.100717396,0.123155236,0.0722938925
85771.573997,0.416803416,-0.0771936778,0.429052511,0.0748106986,0.15656805,0.0886020288
85771.584021,0.321576471,-0.128170124,0.231978618,0.0684856921,0.164681643,0.102696538
85771.594044,0.314649229,-0.191227469,-0.001522095,0.0792094395,0.147726357,0.10978321
85771.604068,0.330587095,-0.199757799,-0.0721942986,0.0707395226,0.115136728,0.113156371
85771.614091,0.353011255,-0.234740593,-0.0952963572,0.067865178,0.0700755119,0.11681103
85771.624115,0.369573755,-0.291817713,-0.204601366,0.0986377373,0.04573581,0.125670031
85771.634138,0.287465162,-0.313310382,-0.0838251152,0.0720258355,0.0214725509,0.127566993
85771.644161,0.238107768,-0.371427421,-0.0555517914,0.0639117137,-0.000362973311,0.135601223
85771.654185,0.211477609,-0.346141077,-0.0511088405,0.0488688499,-0.00957671087,0.133290663
85771.664208,0.129034742,-0.324228118,-0.00850537802,0.0363117792,-0.0237492565,0.106599666
85771.674232,0.0800933082,-0.306179507,-0.0486292986,0.049676057,-0.0617799945,0.0788508654
85771.684255,0.200749659,-0.285298394,-0.0348977104,0.0226018261,-0.0802098662,0.0595448092
85771.694279,0.172290457,-0.240872319,0.199682614,-0.0355845131,-0.10979066,0.0423796698
85771.704302,0.284114098,-0.329030514,0.138010294,-0.0268291067,-0.159818947,0.0389473885
85771.714326,0.459011158,-0.207457468,0.262795781,-0.0561638251,-0.159867674,0.0314838775
85771.724349,0.394429964,-0.167308851,0.454944493,-0.0430195257,-0.143065527,0.0254323762
85771.734373,0.343352907,-0.194466451,0.443020246,-0.0240887143,-0.106490739,0.0291117989
85771.744396,0.271556522,-0.223801979,0.583117284,-0.0461367555,-0.0618684106,0.0279748961
85771.754420,0.184595155,-0.346271936,0.428279773,-0.0354822464,-0.0167392846,0.040989764
85771.764443,0.113212465,-0.403560196,0.273649768,-0.0510279201,0.0240470283,0.0600633249
85771.774467,-0.0123878455,-0.537586864,0.0761246238,-0.0311799143,0.0190386865,0.0857063681
85771.784490,0.0707451227,-0.575854051,-0.139677935,-0.0136200935,0.0229498055,0.117216624
85771.794514,-0.0238857564,-0.425138881,-0.136434423,-0.0021778224,0.025769027,0.134733841
85771.804537,-0.158568587,-0.35743656,-0.124796592,0.0286919419,0.0131128887,0.14608556
85771.814561,-0.112485977,-0.310449439,-0.066717913,0.0368417501,-0.000441802898,0.16558443
85771.824584,-0.0111476362,-0.321146263,-0.00143032506,0.0346864536,-0.0113381259,0.184809253
85771.834608,-0.0696829003,-0.302602872,-0.00638590164,0.0354518443,-0.0116555747,0.195537269
85771.844631,-0.178504217,-0.282312766,-0.0258592484,0.0209362842,-0.00912823528,0.192725226
85771.854655,-0.199266362,-0.305625873,-0.0458463899,0.00102809106,-0.0145935742,0.185031354
85771.864678,-0.185567214,-0.358394117,-0.129829326,0.00996778999,-0.0265381187,0.166542366
85771.874702,-0.127285414,-0.232222601,-0.0966466028,0.00946871378,-0.0378490947,0.148053363
85771.884725,-0.0597282003,-0.239971717,-0.0759621267,0.0213440154,-0.0450138003,0.123437241
85771.894749,-0.00945668739,-0.2539027,-0.0390542455,0.063020356,-0.0416012257,0.0976583734
85771.904772,-0.0598753536,-0.131009951,0.101162034,0.0601867549,-0.0196666308,0.0740883276
85771.914796,-0.151048859,-0.116227849,0.149434775,0.0575342439,0.0036557368,0.0425197482
85771.924819,-0.196854405,-0.137857351,0.199546421,0.0682641193,0.0122636063,0.0149216782
85771.934843,-0.148372114,-0.145023534,0.256651871,0.0710258186,0.0259597097,0.00247832481
85771.944866,-0.0362322469,-0.229428477,0.223121358,0.0820835233,0.0428497456,-0.00112919323
85771.954890,-0.0776385355,-0.220148973,0.168607677,0.108947627,0.0650213659,-0.0154069327
85771.964913,-0.161415793,-0.185637832,0.130559978,0.157437667,0.0869317204,-0.0399503559
85771.974937,-0.185374176,-0.169526765,0.184413734,0.191355154,0.109876983,-0.0636538193
85771.984960,-0.250357593,-0.169365711,0.248694775,0.213704407,0.131061628,-0.0889234915
85771.994984,-0.390209132,-0.230061971,0.298818111,0.253454208,0.147024617,-0.118572995
85772.005007,-0.361449193,-0.214660093,0.39450376,0.28432399,0.179515183,-0.135493398
85772.015031,-0.243482593,-0.297223024,0.468165209,0.282266408,0.214594081,-0.152493685
85772.025054,-0.202931095,-0.41129817,0.548674331,0.261599749,0.227627322,-0.15566577
85772.035078,-0.0674041417,-0.598496347,0.555410946,0.228833556,0.215226039,-0.128053322
85772.045101,0.0463943061,-0.752828611,0.443477927,0.192258239,0.19054839,-0.0768436566
85772.055125,0.122468223,-0.785515733,0.338790056,0.151091352,0.153942451,-0.0238707233
85772.065148,0.104234428,-0.735053008,0.281567117,0.10082446,0.114817947,0.0144849196
85772.075172,0.0259956612,-0.655250646,0.218525262,0.0345703401,0.0685127676,0.0453325808
85772.085195,0.0457338694,-0.628818858,0.188881234,-0.0112951538,0.0269000717,0.0809209347
85772.095219,0.0883140241,-0.609788944,0.0531067363,-0.0527736209,-0.00303572183,0.111030899
85772.105242,0.0262231133,-0.532392912,0.029546997,-0.0945367813,-0.0395625755,0.127204269
85772.115266,-0.103753293,-0.386716285,-0.00838087485,-0.108813725,-0.064793095,0.127424523
85772.125289,-0.181822913,-0.233617489,-0.0156862294,-0.122801445,-0.0785509795,0.110911325
85772.135313,-0.240562176,-0.0885734239,0.0318511823,-0.131830096,-0.0767213926,0.0908505321
85772.145336,-0.264881866,-0.0296152308,-0.0142231711,-0.127952799,-0.0627656281,0.0788740292
85772.155360,-0.245553481,-0.0131355586,-0.0372872359,-0.122263484,-0.0476729646,0.0810969695
85772.165383,-0.209822462,0.0636764082,-0.191640178,-0.0838188902,-0.042527739,0.0858097002
85772.175407,-0.192435785,0.186489225,-0.314376915,-0.0413590446,-0.0470889322,0.0713780299
85772.185430,-0.22016185,0.233207612,-0.403507735,0.00454985537,-0.0631350055,0.0500319973
85772.195454,-0.242643658,0.234173698,-0.459230207,0.0604898222,-0.0794745684,0.0162420738
85772.205477,-0.17626791,0.218929459,-0.589608984,0.100755215,-0.105445981,-0.0111237708
85772.215501,-0.19121976,0.151204689,-0.522099044,0.0995053947,-0.156983733,-0.025861172
85772.225524,-0.226890209,0.0244375542,-0.503204373,0.111269109,-0.215128273,-0.0272334982
85772.235548,-0.288456438,-0.0482276955,-0.377007851,0.116881989,-0.259889901,-0.0197438896
85772.245571,-0.422470064,-0.114104134,-0.221969265,0.133749112,-0.265017807,-0.00966595672
85772.255595,-0.521837251,-0.171703451,-0.0569745176,0.150216505,-0.231777817,-0.00736738183
85772.265618,-0.637175622,-0.260590179,0.143621704,0.15342322,-0.173708126,-0.0106835496
85772.275642,-0.64396404,-0.382320205,0.129667413,0.158968717,-0.110239938,-0.00203253701
85772.285665,-0.419026426,-0.498940652,-0.0429044912,0.190206796,-0.066572614,0.0194253512
85772.295689,-0.474987821,-0.287483282,0.0747135879,0.153255701,-0.066426672,0.0430505201
85772.305713,-0.450501688,-0.203544423,-0.188220725,0.155224308,-0.0888901725,0.0605147332
85772.315736,-0.394036362,-0.164581527,-0.357659007,0.182945698,-0.11587172,0.0765895694
85772.325760,-0.416090519,-0.0869596503,-0.251664731,0.182264194,-0.139283836,0.0957017466
85772.335783,-0.362684507,-0.0805491988,-0.115959791,0.156545505,-0.147184104,0.109990403
85772.345807,-0.275815714,-0.122922752,0.049973699,0.10427884,-0.137926161,0.137211904
85772.355830,-0.155376951,-0.160642763,0.098375034,0.0651738569,-0.109640785,0.163126841
85772.365854,-0.161388905,-0.239244188,0.0321662396,0.0522380844,-0.0684267655,0.216105118
85772.375877,-0.0513226293,-0.402773868,0.0643798255,0.0248642508,-0.0152961751,0.28276962
85772.385901,0.00088635438,-0.470965653,0.0911760624,0.0238320101,0.0492673703,0.342240125
85772.395924,0.320692236,-0.017674371,0.264614813,-0.0606072396,0.122136787,0.322669625
85772.405948,0.288653057,0.414106067,0.118389648,-0.0750647485,0.186651871,0.274527937
85772.415971,0.112864382,0.547982915,-0.195254861,-0.0408316702,0.232938677,0.225085825
85772.425995,-0.0331914179,0.577062294,-0.288780117,0.00997451786,0.258081555,0.175408542
85772.436018,-0.0659773968,0.468004392,-0.247170926,0.0301682018,0.277832359,0.138313651
85772.446042,-0.0356472866,0.506880943,-0.188123694,-0.0237024855,0.278492838,0.106165819
85772.456065,0.00201689278,0.377027579,-0.283481426,-0.0447936542,0.233506188,0.099887155
85772.466089,0.0881221548,0.227089622,-0.394810634,-0.0506765768,0.155785561,0.101983324
85772.476112,0.093733638,0.203271707,-0.381899715,-0.057224758,0.0780273825,0.108720057
85772.486136,0.0926518341,0.216438665,-0.30134383,-0.0612743609,0.0144729065,0.113393903
85772.496160,0.0746077164,0.259799522,-0.238279179,-0.0515972339,-0.0347548276,0.116500482
85772.506183,0.00534209168,0.315930172,-0.164755678,-0.0334941298,-0.072513923,0.103007577
85772.516207,-0.0257695243,0.35723227,0.00942775356,-0.0227914192,-0.0989780203,0.0799011961
85772.526230,-0.031405046,0.345381308,0.134784318,-0.0143222995,-0.107965656,0.0566587225
85772.536254,-0.0397797103,0.371556271,0.240078922,-0.000514608517,-0.0997348875,0.0228419043
85772.546277,-0.0319205212,0.428850668,0.289050166,0.00971219689,-0.0893229917,-0.01860727
85772.556301,0.00984159506,0.406175968,0.291993818,0.0161783509,-0.0864899233,-0.0593027696
85772.566324,0.0540436518,0.344464156,0.236214648,0.0141801815,-0.1023826,-0.0925201103
85772.576348,0.0425499787,0.302467939,0.120035077,0.0284768287,-0.124519333,-0.125381112
85772.586371,0.0452591646,0.249304997,0.10931027,0.035951525,-0.131991625,-0.158245325
85772.596395,0.0536255725,0.173760493,0.164839265,0.0309048314,-0.12863259,-0.188702032
85772.606419,0.0925873175,0.0642577517,0.197852476,0.0250573289,-0.114692532,-0.202626094
85772.616442,0.192243258,-0.0377491223,0.188252873,0.0238554459,-0.0950482562,-0.203760877
85772.626466,0.188210057,-0.0788730457,0.223916892,0.00833054818,-0.074350439,-0.205068752
85772.636489,0.182706418,-0.0937415747,0.254791923,-0.00173753209,-0.0454141311,-0.203363523
85772.646513,0.248570637,-0.151559055,0.22445699,-0.0100814821,-0.0274380594,-0.195891768
85772.656536,0.240859405,-0.237139983,0.194246561,-0.0215131007,-0.0245514587,-0.18339622
85772.666560,0.283224529,-0.375971859,0.180665195,-0.0401408449,-0.0241320096,-0.159241602
85772.676583,0.340392085,-0.428040338,0.0892991627,-0.0380633138,-0.0209617838,-0.121550702
85772.686607,0.305608137,-0.474656361,0.0808235953,-0.0354148,-0.0266308524,-0.0712041706
85772.696630,0.371416899,-0.609634119,0.0513239445,-0.0339825526,-0.0318226889,-0.0223034695
85772.706654,0.36875031,-0.427525082,0.111080202,-0.0370593034,-0.039524015,0.00928135309
85772.716678,0.222832385,-0.340624907,0.107483054,-0.00890250038,-0.0386430435,0.0321914628
85772.726701,0.103181192,-0.291360197,0.184855632,-0.00275752274,-0.0361239575,0.0494884253
85772.736725,-0.00703654757,-0.254179125,0.26173955,0.000143991201,-0.0444210358,0.0564802885
85772.746748,-0.0556619737,-0.236623594,0.310332608,-0.00736638904,-0.0631995127,0.053636834
85772.756772,-0.073598174,-0.300067107,0.369590268,-0.0138988569,-0.0857383832,0.0577133335
85772.766795,0.00228657657,-0.384931009,0.412857748,-0.0326685496,-0.110733211,0.0766593292
85772.776819,0.062981576,-0.399107783,0.507291935,-0.060915634,-0.135512859,0.102262959
85772.786842,0.0647026277,-0.351377041,0.50815352,-0.0629162043,-0.138762444,0.127493218
85772.796866,-0.00823795925,-0.267631421,0.489520716,-0.0592274554,-0.11011456,0.139307797
85772.806890,-0.0797052587,-0.180534682,0.562709871,-0.053778626,-0.0523015969,0.145817369
85772.816913,-0.186687085,-0.0727948035,0.529715948,-0.0271028113,0.0172146298,0.141073748
85772.826937,-0.263288825,-0.00344535011,0.50215165,0.00105212908,0.0976050794,0.132472262
85772.836960,-0.301128726,0.030654086,0.50028644,0.00989728607,0.177088991,0.111955263
85772.846984,-0.427312316,0.0503796677,0.488856699,-0.00254233927,0.248411909,0.0754244179
85772.857007,-0.557132509,-0.0161169273,0.334022696,-0.0437837839,0.30140239,0.042346362
85772.867031,-0.585759615,-0.0789055689,0.0796522134,-0.0788933039,0.330019653,0.0255681798
85772.877055,-0.572000919,-0.131574973,-0.320304552,-0.093225643,0.322187304,0.0255151838
85772.887078,-0.561761411,-0.116572306,-0.612984599,-0.0962046534,0.265744269,0.036597129
85772.897102,-0.475726146,-0.0782931909,-0.866190129,-0.0644531101,0.170400992,0.0465711989
85772.907125,-0.37484512,0.00417369635,-1.00716044,-0.0347476788,0.0495877489,0.0396051705
85772.917149,-0.428145698,0.109784235,-1.06793026,0.0110304616,-0.0794218928,0.00838306919
85772.927172,-0.352631096,0.151696217,-0.94762981,0.0515179671,-0.196806848,-0.0326378681
85772.937196,-0.14065774,0.136505224,-0.669490914,0.0777823254,-0.271625966,-0.0740295202
85772.947220,-0.00367145505,0.0242080152,-0.330347807,0.0820673481,-0.301616102,-0.0862353146
85772.957243,0.0621132688,-0.282504379,0.0198334122,0.0578179397,-0.286159366,-0.0668483004
85772.967267,0.298669278,-0.166912326,0.41044075,-0.0196872391,-0.234234378,-0.0595025048
85772.977290,0.278071311,-0.173857506,0.605424392,-0.0847037882,-0.158757731,-0.0273235291
85772.987314,0.376106445,-0.288085595,0.525036851,-0.119534738,-0.0619046874,0.0108100073
85772.997337,0.214943458,-0.279759994,0.446347345,-0.164004192,0.0467208549,0.0614771768
85773.007361,0.0221845054,-0.369820716,0.304354703,-0.214525163,0.137415349,0.113118798
85773.017385,-0.0378174703,-0.367037515,0.116349667,-0.275889724,0.198488012,0.175428525
85773.027408,-0.06675598,-0.30871593,-0.0497702853,-0.349398285,0.219305411,0.243322879
85773.037432,-0.11307101,-0.232127488,-0.313235928,-0.381493121,0.200729862,0.307990551
85773.047455,-0.17907588,-0.105393991,-0.510422634,-0.397092849,0.150698662,0.363812
85773.057479,-0.182782406,0.0265757626,-0.515588639,-0.416018069,0.0649091825,0.400427014
85773.067503,-0.103754681,0.119687396,-0.515649429,-0.4263767,-0.041073177,0.425637543
85773.077526,0.0106618985,0.206730889,-0.443162285,-0.416427404,-0.142699406,0.433868319
85773.087550,0.05212642,0.343422904,-0.357104881,-0.383616179,-0.235137984,0.416666955
85773.097573,-0.031714185,0.461640775,-0.221817289,-0.337500632,-0.31141147,0.371226251
85773.107597,-0.0319752471,0.463107122,-0.0601215835,-0.271861702,-0.351991385,0.314806372
85773.117621,-0.0528344952,0.380452439,0.0666530311,-0.183990687,-0.349110365,0.260613441
85773.127644,-0.157137458,0.263740441,0.260942847,-0.0930666476,-0.317851782,0.210514337
85773.137668,-0.236908768,0.140687587,0.402369671,0.01473838,-0.251673847,0.166912794
85773.147691,-0.311345731,0.0477280755,0.473059995,0.103497811,-0.15135254,0.11796549
85773.157715,-0.375047365,-0.00551262594,0.572125934,0.170842767,-0.039828416,0.0729732439
85773.167739,-0.256711931,-0.162604162,0.54735565,0.233027846,0.0647893399,0.0481560454
85773.177762,-0.116801064,-0.330413967,0.430378791,0.277046442,0.148385167,0.0395851955
85773.187786,-0.0285888195,-0.460048136,0.355336702,0.290814459,0.20140098,0.0398610979
85773.197809,0.171479141,-0.562594391,0.198554487,0.305157423,0.229114637,0.0596864708
85773.207833,0.398563557,-0.642173649,-0.000754033238,0.305616289,0.231412411,0.0921967402
85773.217857,0.469765191,-0.665146017,-0.0222550864,0.263666183,0.199461669,0.123248398
85773.227880,0.555744927,-0.60209291,-0.203890003,0.249309078,0.164986253,0.148678407
85773.237904,0.60804137,-0.507389258,-0.298310746,0.218610823,0.11953035,0.162775576
85773.247927,0.616259236,-0.445271532,-0.194796596,0.156277671,0.0649845526,0.162536964
85773.257951,0.649069473,-0.435546111,-0.106077863,0.0896469727,0.00616464298,0.166217983
85773.267975,0.730815517,-0.474320991,-0.0537847817,0.0428781398,-0.0438449942,0.186433762
85773.277998,0.755571188,-0.441330065,0.00871872851,0.0220460929,-0.07533288,0.205708399
85773.288022,0.67960402,-0.314825097,0.130275901,-0.0035474163,-0.0946035087,0.202313662
85773.298046,0.539937263,-0.171969098,0.218165197,-0.024739787,-0.110965706,0.189418912
85773.308069,0.457451288,-0.114956075,0.191902044,-0.00882313866,-0.115776971,0.177409649
85773.318093,0.378984266,-0.0579962619,0.208049461,0.0237087049,-0.1069161,0.155589834
85773.328116,0.246674667,-0.00560015809,0.328507732,0.0442936085,-0.0771592706,0.121820413
85773.338140,0.131633599,0.0271767425,0.476448468,0.0427614935,-0.0458104089,0.0915410742
85773.348164,0.161421127,0.00873690348,0.510618449,0.0604417585,-0.0146121262,0.0783278644
85773.358187,0.20302681,0.0637876317,0.484608394,0.0866171643,0.0141811715,0.0576747879
85773.368211,0.0913506884,0.177936391,0.482527496,0.127593368,0.0462237932,0.0142151937
85773.378234,-0.0404170583,0.258154239,0.379450568,0.184261709,0.0985943228,-0.0411812216
85773.388258,-0.123658382,0.294291793,0.296524448,0.236548349,0.16584447,-0.113798432
85773.398282,-0.223324406,0.315331037,0.248404852,0.27516523,0.234698102,-0.195952952
85773.408305,-0.274643674,0.278470174,0.185281749,0.308419853,0.293570459,-0.270650893
85773.418329,-0.26771424,0.189996374,0.123563251,0.342634827,0.346764445,-0.337479442
85773.428353,-0.24821912,0.0411312116,0.0690612613,0.339614004,0.390013665,-0.383575559
85773.438376,-0.115178431,-0.184691637,0.07655717,0.291921049,0.401620775,-0.402680278
85773.448400,0.0507279514,-0.514551258,0.0327016616,0.213348746,0.381129354,-0.387179077
85773.458423,0.205726717,-0.709897963,-0.133947283,0.145889014,0.33622551,-0.344892085
85773.468447,0.269245395,-0.782571277,-0.324496158,0.0948428735,0.263453573,-0.287075132
85773.478471,0.23072796,-0.763736959,-0.425970327,0.0655837879,0.176145837,-0.23231256
85773.488494,0.127140744,-0.694692868,-0.468758498,0.03968082,0.0843773037,-0.186033741
85773.498518,-0.0427336647,-0.631658246,-0.375536025,-0.000787246798,-0.0191456247,-0.154043317
85773.508542,-0.074528879,-0.638013388,-0.258691268,-0.0316567458,-0.11444445,-0.122870758
85773.518565,-0.0398535062,-0.634800051,-0.0544850389,-0.0541008003,-0.179147542,-0.0806516632
85773.528589,-0.0174910869,-0.617453341,0.202388951,-0.0704041421,-0.206002325,-0.0454073921
85773.538613,-0.0902309636,-0.557377058,0.454375753,-0.0934585929,-0.192833796,-0.0165389888
85773.548636,-0.201524881,-0.437371427,0.666914926,-0.125665531,-0.160099819,0.000596321188
85773.558660,-0.303857932,-0.356049088,0.744538849,-0.143892199,-0.116998419,0.00589441415
85773.568684,-0.340019671,-0.256013592,0.670730685,-0.147617698,-0.0684311539,0.00556391571
85773.578707,-0.380095076,-0.172241723,0.590158434,-0.141024783,-0.0307623353,-0.0050359983
85773.588731,-0.432412562,-0.12265031,0.455714308,-0.123631679,-0.00714648794,-0.0153730577
85773.598754,-0.427774819,-0.0945564165,0.351983884,-0.0950972363,0.00858587027,-0.0233638734
85773.608778,-0.44455615,-0.0420736208,0.30171734,-0.0835931823,0.0287752952,-0.0341227762
85773.618802,-0.496710628,0.00476841541,0.293377966,-0.0641329288,0.0467268638,-0.0441951193
85773.628825,-0.446963577,0.0920000739,0.243039526,-0.0347353593,0.065072313,-0.0453101844
85773.638849,-0.380717811,0.213157908,0.258751474,-0.0119853066,0.0839104503,-0.0537856966
85773.648873,-0.352469622,0.243492128,0.303909297,-0.00604006555,0.11629609,-0.0709428415
85773.658896,-0.357349722,0.159255309,0.316179581,-0.0143584497,0.15352948,-0.0812878907
85773.668920,-0.348783627,0.00634766113,0.240219792,-0.019193951,0.191331714,-0.0807360858
85773.678944,-0.349127326,-0.149697736,0.0645908379,-0.0164216012,0.218497291,-0.0669081584
85773.688967,-0.341314314,-0.229215473,-0.0771907917,-0.0173177533,0.23923187,-0.0495672487
85773.698991,-0.311239128,-0.274154082,-0.312262699,0.00444559846,0.246451691,-0.0369204283
85773.709015,-0.354178326,-0.304230273,-0.518685436,0.00354225421,0.231907636,-0.0219998024
85773.719038,-0.38147411,-0.391923717,-0.693090401,0.00821450353,0.188062683,-0.00484504923
85773.729062,-0.40099999,-0.44271213,-0.807577196,0.015317155,0.117815688,0.013116641
85773.739086,-0.33648894,-0.478081038,-0.73450027,-0.00229699281,0.0367626473,0.0373961478
85773.749109,-0.259989564,-0.456922332,-0.56784548,-0.0354339071,-0.043260552,0.0702390522
85773.759133,-0.253516934,-0.419092623,-0.414516621,-0.0545370243,-0.0967746451,0.102126673
85773.769157,-0.284241597,-0.314178506,-0.270209272,-0.0695245042,-0.120728441,0.127634972
85773.779180,-0.319055867,-0.216071549,-0.0917699367,-0.0875455812,-0.121409148,0.143916994
85773.789204,-0.317124606,-0.159379538,-0.018036592,-0.0902649313,-0.104417384,0.152896106
85773.799228,-0.29855683,-0.125845764,0.000857493612,-0.0744534805,-0.0690138489,0.165128812
85773.809251,-0.314399127,-0.0909989432,-0.0351239204,-0.0430140607,-0.0331080481,0.173375025
85773.819275,-0.289055938,-0.106548577,-0.0725607938,-0.0135334022,0.00187497074,0.18227078
85773.829299,-0.194724481,-0.144622287,-0.123569097,0.00776869105,0.0336233117,0.185321957
85773.839322,-0.155384331,-0.16574805,-0.100148473,0.00715003861,0.0478110351,0.181906983
85773.849346,-0.0890008373,-0.183615222,-0.116739543,0.0226248689,0.0540835783,0.176933795
85773.859370,0.0320216435,-0.218095675,-0.148191497,0.0483949482,0.0655162632,0.16977948
85773.869393,0.0938994961,-0.206507638,-0.136137486,0.0549657643,0.0759963319,0.152666017
85773.879417,0.104662809,-0.216304408,-0.143769589,0.0635555238,0.0792342052,0.131234497
85773.889441,0.10762049,-0.248759748,-0.173244105,0.0742385238,0.0801980048,0.107194133
85773.899465,0.110763245,-0.283503382,-0.179924605,0.0799616575,0.0899715424,0.088759467
85773.909488,0.0343302858,-0.282644665,-0.186079036,0.0773919746,0.100913137,0.0817340463
85773.919512,-0.0232761,-0.2916655,-0.227946586,0.0735567585,0.105201095,0.0811795816
85773.929536,0.0313775734,-0.303717537,-0.236467161,0.0669121668,0.0984566361,0.0816821158
85773.939559,0.0659202598,-0.258185127,-0.248092133,0.067086339,0.0838398784,0.0802562609
85773.949583,0.088381171,-0.209756265,-0.221723766,0.0605336353,0.0598314814,0.0793137699
85773.959607,0.13724289,-0.180462841,-0.19963293,0.0610183328,0.0291318931,0.08037211
85773.969630,0.154572722,-0.0878454658,-0.241411048,0.0790809542,-0.00647110958,0.0691146627
85773.979654,0.0757122436,-0.022895759,-0.164036131,0.0900347978,-0.0347043462,0.0507580228
85773.989678,0.0321288302,0.00536981309,-0.0636398207,0.105574079,-0.0482965894,0.0321699604
85773.999701,0.0461477109,0.0442630343,0.0272469034,0.110051386,-0.0536285043,0.0130404737
85774.009725,0.0913009309,0.0575794887,0.164357619,0.107736833,-0.0465213247,0.00141071575
85774.019749,0.0713908002,0.0550453534,0.21786709,0.0865167603,-0.0434166119,-0.00376274064
85774.029773,0.096710608,0.0183410822,0.164684366,0.0807672665,-0.0450656414,0.00143761374
85774.039796,0.190734607,-0.0362279749,0.13059505,0.0707172975,-0.051558163,0.00435723737
85774.049820,0.250585849,-0.0528586524,0.191761174,0.048503872,-0.0598563068,-0.000637521036
85774.059844,0.303625877,-0.0580092492,0.208588974,0.0253423583,-0.0635706186,-0.00385115761
85774.069867,0.350867667,0.0172308742,0.171368959,0.0147797279,-0.0680886656,-0.0101018632
85774.079891,0.294739391,0.130348948,0.10235329,0.0145304566,-0.0801831484,-0.0314396434
85774.089915,0.237332765,0.255846364,0.161257899,0.00741395773,-0.105004609,-0.0597410575
85774.099939,0.272596825,0.312780951,0.103401922,0.0451299138,-0.118853047,-0.0813201144
85774.109962,0.235025292,0.344649596,0.167127083,0.0773544237,-0.116460465,-0.110011414
85774.119986,0.199166847,0.384173907,0.366306424,0.0902276114,-0.101529181,-0.145322531
85774.130010,0.196047838,0.339604807,0.510166029,0.0969797894,-0.0682188943,-0.175915062
85774.140033,0.213912361,0.23502942,0.662002604,0.076383166,-0.0258480031,-0.199617192
85774.150057,0.228429182,0.101917164,0.757711049,0.0403870903,0.0235839952,-0.205211431
85774.160081,0.220954462,-3.40118675e-05,0.725191174,-0.0025214972,0.0673208237,-0.191102281
85774.170105,0.206118931,-0.0547713542,0.580374707,-0.0429413579,0.0972640738,-0.171943232
85774.180128,0.169847521,-0.0536284129,0.423293801,-0.0842331424,0.09643583,-0.155388758
85774.190152,0.176790691,-0.0244594829,0.210616096,-0.100450993,0.0777886435,-0.135539144
85774.200176,0.12476649,0.00471437454,0.0442401237,-0.10431657,0.0463992953,-0.124541089
85774.210199,0.0579200549,0.0280064211,-0.0211339734,-0.105356798,0.011509222,-0.116658397
85774.220223,0.0324016558,0.0316878495,-0.0260825358,-0.120053992,-0.0270317774,-0.0994786173
85774.230247,0.0289741655,-0.0162733177,-0.0146229841,-0.12389347,-0.0652723759,-0.0740060136
85774.240271,0.0451998356,-0.060067401,0.0544312629,-0.124849007,-0.0912022442,-0.0463506803
85774.250294,0.0951893167,-0.025860059,0.073367434,-0.117085896,-0.0926265046,-0.0104246391
85774.260318,0.03701631,0.00615273335,0.107570148,-0.100853398,-0.0874373317,0.0112391114
85774.270342,-0.0158943192,0.0515145261,0.0746644881,-0.0547215827,-0.0725225657,0.0257626623
85774.280366,-0.0817598532,0.109090361,0.0462982253,-0.00278248684,-0.0415513329,0.0276873261
85774.290389,-0.17579547,0.110611799,0.0460679237,0.0395125076,-0.00906529557,0.0201266129
85774.300413,-0.183949696,0.0930567616,0.0398088633,0.0764697194,0.0116767352,0.016881818
85774.310437,-0.143487338,0.0582078132,0.0596983896,0.0918273702,0.0164275486,0.0174932797
85774.320461,-0.087428035,0.0685163499,0.142125328,0.0856056958,0.0120186843,0.0170448031
85774.330484,-0.0688422848,0.0568504163,0.205316821,0.0492423661,0.000888802228,0.0233857892
85774.340508,0.000395282928,-0.0118339219,0.196865219,0.021646956,-0.0131929284,0.0349830575
85774.350532,0.103059977,-0.071190638,0.107480132,0.0164923631,-0.0282055512,0.052523341
85774.360556,0.156684527,-0.0729739869,0.122590607,0.00185509701,-0.0362344496,0.0649954602
85774.370579,0.157110862,-0.0539259437,0.16250936,-0.0266894624,-0.0359478928,0.0757120177
85774.380603,0.175359928,-0.0589433244,0.158736271,-0.0466623716,-0.0364626832,0.0950007588
85774.390627,0.189352359,-0.0656113765,0.133897014,-0.0594772361,-0.0291922521,0.123266749
85774.400651,0.117297104,-0.026276476,0.169415486,-0.0891294032,-0.0235130601,0.144218102
85774.410674,0.0046108548,0.0271349035,0.172502347,-0.10552036,-0.0178589039,0.154521346
85774.420698,-0.0832544026,0.0791660099,0.105139706,-0.120749377,-0.0150751015,0.159378946
85774.430722,-0.153908048,0.108245673,0.100630704,-0.134841502,-0.0120577412,0.162532136
85774.440746,-0.155154687,0.0947091045,-0.0165460611,-0.126121506,-0.00872878917,0.162930012
85774.450769,-0.209907217,0.119728349,-0.099883685,-0.120406896,-0.006415301,0.155068621
85774.460793,-0.254291791,0.120318442,-0.135021049,-0.100278191,-0.00123305584,0.136462182
85774.470817,-0.287175312,0.0888798595,-0.197923204,-0.0700164288,0.00730317412,0.114874601
85774.480841,-0.397868122,0.0338277887,-0.264562791,-0.0399863608,0.0225692131,0.0925647691
85774.490864,-0.506466955,-0.0159429441,-0.299220262,-0.0135542192,0.0282478705,0.0621610545
85774.500888,-0.521392137,-0.0483166433,-0.367769483,0.0244285837,0.0310117006,0.0354815088
85774.510912,-0.548886001,-0.0730922521,-0.429998267,0.0592038706,0.029564539,0.00215710653
85774.520936,-0.559917683,-0.0674187548,-0.425986694,0.0684580952,0.0155917304,-0.0273768194
85774.530959,-0.485589806,-0.120080368,-0.38413025,0.0791397691,-0.00389568415,-0.0488911644
85774.540983,-0.444477605,-0.125547868,-0.392709278,0.113716386,-0.0228211712,-0.0631657094
85774.551007,-0.43715055,-0.125450298,-0.176137488,0.106280304,-0.0471606031,-0.0814083591
85774.561031,-0.421364879,-0.13159935,0.0304763868,0.0936140493,-0.0640290603,-0.0850302577
85774.571055,-0.344930166,-0.131926463,0.00762333449,0.128957123,-0.0601866543,-0.0798213854
85774.581078,-0.225681198,-0.0825965597,0.039493806,0.160471648,-0.0414342731,-0.0592482015
85774.591102,-0.148391403,-0.0543550284,0.128695353,0.202866241,-0.0190461408,-0.0798509419
85774.601126,0.0327224122,-0.353881937,0.111235685,0.22703895,0.00284184678,-0.0413325801
85774.611150,0.242853209,-0.544513047,0.121553081,0.234783694,0.00949362386,0.0152444132
85774.621173,0.0945977075,-0.598514978,0.130626614,0.214056835,0.0063913078,0.065323025
85774.631197,0.0315022958,-0.566033974,0.181565358,0.175776288,0.00675616087,0.104177214
85774.641221,0.00882379632,-0.547219383,0.175111068,0.129406139,0.017668996,0.137107462
85774.651245,-0.0186111039,-0.544572924,0.200620772,0.0845750123,0.0195499882,0.164861873
85774.661269,-0.0199188986,-0.559689939,0.106572954,0.0718882456,0.0132715842,0.194337472
85774.671292,-0.0379529332,-0.537564433,0.0743880092,0.0560925007,3.2478245e-05,0.219398081
85774.681316,-0.0139621091,-0.502559573,0.0662011957,0.0599042848,-0.00686936965,0.239174977
85774.691340,0.0246157511,-0.431514919,0.0943079307,0.0640731975,-0.0142388698,0.25931114
85774.701364,0.0186696292,-0.336183965,0.142365567,0.0685848594,-0.0250688791,0.271249294
85774.711388,0.0248042595,-0.27959136,0.166663557,0.0738347471,-0.0358940996,0.278326631
85774.721411,0.0184920076,-0.258264366,0.191644854,0.092461966,-0.0336682275,0.285463899
85774.731435,-0.0435398665,-0.21465991,0.290453019,0.105417177,-0.0179811418,0.288098037
85774.741459,-0.0702723176,-0.19539279,0.340661111,0.117738023,0.00762009062,0.290053338
85774.751483,-0.113458914,-0.246619229,0.360128028,0.112399451,0.0320452712,0.287053287
85774.761507,-0.101415936,-0.344321716,0.347903922,0.107647039,0.0468846709,0.286310792
85774.771530,-0.109536406,-0.421361445,0.198723998,0.122236907,0.0580339953,0.283457488
85774.781554,-0.109612175,-0.44589792,0.0709445908,0.139227077,0.056992434,0.270851403
85774.791578,-0.0906477277,-0.420556668,0.0380360084,0.151561499,0.0363574624,0.247005731
85774.801602,-0.0418155269,-0.346892224,-0.0156482355,0.179651722,0.012684091,0.224206954
85774.811626,0.0170149208,-0.342000543,-0.0153097973,0.195148394,-0.00876953546,0.201414555
85774.821649,0.00515263352,-0.328636253,0.0847591811,0.190535799,-0.0265988652,0.188946158
85774.831673,0.0341462344,-0.331256884,0.1431196,0.179088473,-0.0270891543,0.188219652
85774.841697,0.139292151,-0.37778395,0.154725282,0.165914342,-0.0101330746,0.206617564
85774.851721,0.20802418,-0.476269678,0.133460376,0.132065833,0.00184502569,0.24134545
85774.861745,0.177292796,-0.54088828,0.102307113,0.0973680392,0.00114168483,0.279022783
85774.871769,0.173837614,-0.540063666,-0.0452075075,0.0697004572,-0.00448717223,0.318617076
85774.881792,0.138890073,-0.457802293,-0.157122991,0.0334574953,-0.023975119,0.343483806
85774.891816,0.13474742,-0.290157835,-0.260107565,0.0106461924,-0.0633001551,0.351717234
85774.901840,0.129225296,-0.131291909,-0.321584654,-0.00941593293,-0.117526643,0.339505315
85774.911864,0.201921114,0.0300177381,-0.3410656,0.00706930039,-0.16264832,0.323876828
85774.921888,0.269122061,0.160043445,-0.301508666,0.0210061558,-0.205897525,0.292365223
85774.931912,0.240805264,0.216447652,-0.125329092,0.0388535932,-0.233496919,0.243242428
85774.941935,0.184046873,0.209059515,0.0302232888,0.0639213994,-0.234452993,0.205042839
85774.951959,0.11014314,0.168316951,0.234113876,0.0789000839,-0.211757541,0.171921909
85774.961983,0.0978052713,0.112602443,0.430608508,0.0884906575,-0.177119404,0.148906872
85774.972007,0.123753586,0.0695022465,0.544400307,0.10994029,-0.133805215,0.135476813
85774.982031,0.138469948,0.0693955713,0.632857174,0.134457082,-0.0846184939,0.125065461
85774.992055,0.108516197,0.0693754783,0.722404174,0.155798331,-0.0279506855,0.114052482
85775.002078,0.106173214,0.0918862565,0.704213853,0.169445425,0.0360109843,0.0890424699
85775.012102,-0.0280761938,0.100214597,0.735272423,0.152309313,0.0829883516,0.0600646138
85775.022126,-0.0238309574,0.0436998429,0.638127808,0.153967395,0.12617363,0.0348338261
85775.032150,0.0240451116,-0.0285362856,0.529594952,0.134525523,0.159369662,0.010368431
85775.042174,-0.0189027073,-0.134955291,0.433375635,0.101233087,0.174026102,-0.00448668096
85775.052198,-0.00463262824,-0.242948413,0.19277415,0.0809565783,0.179127127,-0.000704726204
85775.062221,0.015709245,-0.284163892,0.0292541515,0.0597199947,0.167804956,0.00412092172
85775.072245,-0.0235527981,-0.263907688,-0.116556003,0.0416837335,0.14950718,-0.0024323184
85775.082269,-0.128116165,-0.209233592,-0.204293323,0.0249148756,0.133040324,-0.0155971227
85775.092293,-0.103233142,-0.169795097,-0.29603228,-0.00616953941,0.111973666,-0.0297941677
85775.102317,-0.155299502,-0.129171739,-0.290323255,-0.047354795,0.0765597448,-0.0436545908
85775.112341,-0.187332398,-0.114167391,-0.335119843,-0.0910713822,0.0312865376,-0.039069958
85775.122365,-0.108226712,-0.184869843,-0.339953255,-0.146580711,-0.0202184636,-0.0131928204
85775.132388,-0.144421038,-0.199433206,-0.308590148,-0.211219892,-0.0805973858,0.0184101127
85775.142412,-0.158890366,-0.120218763,-0.299655147,-0.254331946,-0.139817044,0.046523504
85775.152436,-0.249816034,0.00998447413,-0.269269361,-0.272640109,-0.195635825,0.0649911985
85775.162460,-0.376131287,0.161104425,-0.157438048,-0.277619958,-0.235123321,0.0684578344
85775.172484,-0.448522058,0.311281945,-0.0620429069,-0.275310189,-0.254094332,0.0567263402
85775.182508,-0.487903125,0.37329168,0.0378425317,-0.242825747,-0.255182236,0.0390232466
85775.192532,-0.488880518,0.352422458,0.133832716,-0.193023309,-0.236653566,0.0272038691
85775.202556,-0.504609126,0.343114605,0.25135318,-0.148326144,-0.195434228,0.0120217213
85775.212579,-0.513907992,0.311936609,0.373776614,-0.104680665,-0.136201262,-0.0091677187
85775.222603,-0.487094366,0.258165071,0.440099975,-0.0691873878,-0.0701058581,-0.0267027728
85775.232627,-0.54116549,0.262043045,0.433774279,-0.0324629322,-0.00672928756,-0.0460831262
85775.242651,-0.530026329,0.225026004,0.397070396,0.00175043498,0.0462239422,-0.0684475526
85775.252675,-0.46004883,0.180516507,0.379137849,0.0120379599,0.0890401155,-0.0884569511
85775.262699,-0.368266472,0.135393445,0.271395851,0.0176508389,0.123295292,-0.0970091596
85775.272723,-0.37381037,0.0359662347,0.0726496411,0.0300955232,0.142930776,-0.0995665938
85775.282747,-0.444852722,-0.0668913881,-0.107716863,0.0502708293,0.154412985,-0.112984665
85775.292770,-0.562027003,-0.11288526,-0.221883925,0.0628071353,0.164122343,-0.136273742
85775.302794,-0.61297247,-0.107959439,-0.354154799,0.0770084411,0.16523315,-0.167772546
85775.312818,-0.596849237,-0.113165447,-0.412979913,0.0986926928,0.146195278,-0.201429307
85775.322842,-0.529412801,-0.124211943,-0.430107573,0.129784033,0.120466486,-0.231574953
85775.332866,-0.460095007,-0.138954553,-0.409891883,0.155241191,0.0981502607,-0.251374483
85775.342890,-0.410430301,-0.208709934,-0.278370951,0.14949809,0.0710382164,-0.268167853
85775.352914,-0.332382381,-0.331301893,-0.121707979,0.129051462,0.0400470197,-0.269254744
85775.362938,-0.284159252,-0.428218873,-0.0199403797,0.080173403,-0.000917722122,-0.256844431
85775.372962,-0.182381789,-0.568499889,0.0351128144,0.0349870175,-0.051180359,-0.225261703
85775.382985,-0.0336561859,-0.639104544,0.0504535914,0.00417344458,-0.0909187198,-0.178100049
85775.393009,-0.0363590151,-0.581481134,0.123464467,-0.0368307121,-0.119244099,-0.138795793
85775.403033,-0.142516812,-0.434262209,0.231862883,-0.0859340727,-0.134655282,-0.107738808
85775.413057,-0.22972587,-0.288022284,0.28342122,-0.118700013,-0.13587448,-0.0835029781
85775.423081,-0.18641689,-0.114239506,0.374570395,-0.15268302,-0.132353783,-0.068788752
85775.433105,-0.123461398,0.0135994498,0.455807247,-0.181522384,-0.127212539,-0.0565861426
85775.443129,-0.0790317434,0.105215822,0.448225998,-0.177511394,-0.119010538,-0.051589258
85775.453153,-0.103923681,0.124557048,0.413176312,-0.163845122,-0.101942606,-0.0541858412
85775.463177,-0.141873034,0.110943497,0.459137268,-0.146616325,-0.0686704069,-0.063425675
85775.473201,-0.17366065,0.0527297562,0.447567242,-0.130771056,-0.0241530035,-0.0685597211
85775.483224,-0.20413689,0.000311056977,0.451268434,-0.11639265,0.0188317485,-0.0682995319
85775.493248,-0.203225255,0.00140771137,0.409772641,-0.0931349993,0.0638921633,-0.0640480518
85775.503272,-0.198824902,0.0424958191,0.303318345,-0.0535407178,0.112848788,-0.0649972111
85775.513296,-0.237755667,0.11136585,0.262549697,-0.0384419262,0.152146667,-0.0822046846
85775.523320,-0.250502263,0.0815452789,0.158671974,-0.0192384049,0.18379806,-0.0971732587
85775.533344,-0.189925483,-0.00208941003,-0.0138525843,0.018114293,0.204000264,-0.100008994
85775.543368,-0.153638875,-0.0374464267,-0.0835118114,0.0410212092,0.216143489,-0.103702798
85775.553392,-0.106263157,-0.036043008,-0.115257195,0.0376171581,0.228190303,-0.108118311
85775.563416,-0.0366376128,-0.0450006963,-0.128502461,0.00890188757,0.235508397,-0.106405094
85775.573440,0.0122664841,-0.110969161,-0.150242584,-0.033329986,0.231639624,-0.0936299115
85775.583464,0.135600384,-0.203254756,-0.243825707,-0.0690837204,0.225264549,-0.0640046448
85775.593488,0.27803149,-0.255992238,-0.289090498,-0.132963374,0.216803685,-0.0277582258
85775.603512,0.316635288,-0.272881615,-0.359548182,-0.210861892,0.197697103,0.00853506662
85775.613535,0.380294033,-0.257783414,-0.511132244,-0.275246501,0.167980745,0.0488657132
85775.623559,0.385324136,-0.131822783,-0.649555211,-0.329998165,0.131937265,0.0736264586
85775.633583,0.313204729,0.0604199362,-0.776844789,-0.359095335,0.0949755162,0.0789554417
85775.643607,0.156214206,0.296997362,-0.915035116,-0.357827127,0.0607347228,0.0678902715
85775.653631,-0.0362893109,0.48996656,-1.02315588,-0.319771081,0.0212115478,0.0378910899
85775.663655,-0.148458988,0.56456865,-0.979592052,-0.256306082,-0.0247615352,0.000789262354
85775.673679,-0.154298947,0.490852622,-0.785064336,-0.1937913,-0.0732020363,-0.0273680724
85775.683703,-0.25505335,0.382648999,-0.477521066,-0.137385815,-0.109191731,-0.0398838632
85775.693727,-0.355395593,0.208772587,-0.192041744,-0.0730531663,-0.119414806,-0.036716301
85775.703751,-0.449802234,0.0726941516,0.0493096821,-0.0177302565,-0.109282546,-0.0385325775
85775.713775,-0.514453643,0.0761123808,0.283497793,0.0359473564,-0.0846605524,-0.0514992401
85775.723799,-0.505860514,0.0721488155,0.404419005,0.0972440019,-0.0476588607,-0.0682974011
85775.733823,-0.483083011,0.0800198411,0.564908258,0.136763453,-0.00901080202,-0.0861320496
85775.743847,-0.439809248,-0.00915988384,0.631303515,0.15761067,0.0225455258,-0.0908146948
85775.753871,-0.479614824,-0.113622845,0.597481325,0.166050494,0.0368256606,-0.0990592986
85775.763895,-0.453060506,-0.253189748,0.600067834,0.155436203,0.0423439965,-0.112178564
85775.773919,-0.375107716,-0.435223491,0.546998507,0.140464172,0.0439999513,-0.126763359
85775.783943,-0.325151188,-0.563994248,0.476730208,0.119245172,0.0488759317,-0.13518402
85775.793967,-0.303274725,-0.587335559,0.412804556,0.0840235353,0.0554472841,-0.142992139
85775.803991,-0.232607198,-0.549367209,0.319609555,0.0582023263,0.0621579178,-0.149177864
85775.814014,-0.116609341,-0.48755643,0.185635384,0.0475917608,0.0697604418,-0.150004774
85775.824038,-0.077304262,-0.436418729,0.106186,0.04656085,0.0753189921,-0.146658242
85775.834062,-0.0652984016,-0.420913336,-0.0287350961,0.0586689115,0.0837148726,-0.139997408
85775.844086,0.00199219673,-0.427954742,-0.0678565617,0.0566659495,0.0867181197,-0.12097472
85775.854110,0.103398854,-0.47229639,-0.0859019214,0.0358099341,0.0777134374,-0.0971751213
85775.864134,0.212082735,-0.481304896,-0.145637136,0.0251160096,0.0631344989,-0.0611920841
85775.874158,0.265478006,-0.426782009,-0.149733465,0.0073431395,0.0337736793,-0.0255264975
85775.884182,0.244659309,-0.350035161,-0.0846779326,-0.0236504637,-0.00673459843,0.00411661575
85775.894206,0.273552153,-0.268432618,-0.0839607242,-0.0511449352,-0.0458649583,0.0294081233
85775.904230,0.249095684,-0.180397812,-0.00534019198,-0.0780553818,-0.0967449173,0.0500702597
85775.914254,0.202171509,-0.0988221293,0.106115857,-0.0870821625,-0.134659007,0.075546056
85775.924278,0.109013186,0.00569966838,0.259939807,-0.107697964,-0.156984821,0.0912914723
85775.934302,-0.0665523472,0.0952242053,0.49501113,-0.13632375,-0.166479528,0.0899977088
85775.944326,-0.161653766,0.131648623,0.684837536,-0.158275381,-0.16046451,0.0908544362
85775.954350,-0.213661455,0.0957372877,0.847349235,-0.187856719,-0.147175863,0.0945205539
85775.964374,-0.272060453,0.114522926,0.938763198,-0.200979173,-0.117506117,0.103264764
85775.974398,-0.350885933,0.182693047,0.93482352,-0.220396817,-0.07934089,0.101039171
85775.984422,-0.4003652,0.231352303,0.86314477,-0.217566937,-0.0319688469,0.0911969244
85775.994446,-0.51930934,0.289382576,0.696033469,-0.190212816,0.0267341454,0.0687776357
85776.004470,-0.668039546,0.355221076,0.603987638,-0.162901297,0.0880768672,0.0382546112
85776.014494,-0.718835448,0.350557432,0.462245171,-0.119115733,0.150531724,-0.00179267209
85776.024518,-0.74056673,0.294051774,0.274840439,-0.0695521757,0.210680276,-0.0419142582
85776.034542,-0.740317358,0.137626976,0.0397492421,-0.0191497207,0.257712781,-0.067061156
85776.044566,-0.72754234,-0.0495993036,-0.248119605,0.0522190034,0.289718896,-0.0824582279
85776.054590,-0.802179648,-0.188708581,-0.56224576,0.123219945,0.311943501,-0.0947015733
85776.064614,-0.916985958,-0.295239687,-0.819614256,0.184802085,0.310591161,-0.117117137
85776.074638,-0.90848701,-0.39639962,-1.07377197,0.245641455,0.275092572,-0.128403336
85776.084662,-0.832749851,-0.516794142,-1.21443307,0.284603745,0.200174376,-0.125698894
85776.094686,-0.716952192,-0.628827188,-1.23558926,0.315492958,0.0947576687,-0.10605596
85776.104710,-0.542139084,-0.702241018,-1.17199445,0.344414622,-0.034179274,-0.0765305609
85776.114734,-0.372534213,-0.648188598,-0.940050899,0.34080258,-0.151465148,-0.0488278233
85776.124758,-0.208383442,-0.635822673,-0.549176436,0.318164915,-0.232847899,-0.0183303691
85776.134782,-0.0816494516,-0.609697357,-0.161579386,0.278999656,-0.275248349,0.012028601
85776.144806,-0.11931027,-0.587581716,0.211482942,0.245585263,-0.287862152,0.0341536105
85776.154830,-0.187771885,-0.589416457,0.45640872,0.227008119,-0.263490766,0.0533651225
85776.164854,-0.178217436,-0.610208777,0.702186146,0.18254824,-0.215579957,0.0740123391
85776.174878,-0.0949454249,-0.669201795,0.83745211,0.135625213,-0.149244606,0.105980128
85776.184902,-0.0460686543,-0.641514381,0.797103149,0.0806325376,-0.0876408964,0.13831757
85776.194926,-0.00578121375,-0.534264259,0.660937605,0.054461915,-0.0459230132,0.167384371
85776.204950,0.201873402,-0.383254417,0.433072268,0.0406291932,-0.0230528526,0.187090173
85776.214974,0.366944941,-0.182137203,0.270293443,0.0386730991,-0.0180399828,0.196600586
85776.224998,0.545121753,0.0394662787,0.0687169779,0.0676347092,-0.0217385814,0.200822487
85776.235022,0.621909298,0.24025395,-0.0475315665,0.0959784687,-0.0271519888,0.191108078
85776.245046,0.593596008,0.324243973,-0.0495733015,0.115896784,-0.0305227526,0.169473886
85776.255070,0.628332244,0.373956318,-0.0104705406,0.102642231,-0.0240398198,0.129999444
85776.265094,0.534991404,0.370151921,0.0188952546,0.0814416036,-0.0116230967,0.0913766921
85776.275119,0.444819258,0.214199544,0.0213064074,0.0607776046,-0.00700384378,0.067758441
85776.285143,0.454485862,0.0485731662,0.0158680157,0.0365225971,-0.00884089246,0.0638683587
85776.295167,0.463680026,-0.0954489175,-0.0337310047,0.00228526373,-0.027699003,0.0686519295
85776.305191,0.448346775,-0.190075248,-0.0733481448,-0.0347798131,-0.0708459392,0.0775191933
85776.315215,0.493111142,-0.231962105,-0.126822545,-0.058621496,-0.127494305,0.0920075923
85776.325239,0.525953527,-0.286555281,0.00383387907,-0.0894723535,-0.19244881,0.113594636
85776.335263,0.583748056,-0.349070481,0.122829092,-0.121545069,-0.253716171,0.139170304
85776.345287,0.566886791,-0.335555458,0.29157004,-0.158937976,-0.302881032,0.166811526
85776.355311,0.567530496,-0.338928734,0.522731496,-0.187074021,-0.329535455,0.191034928
85776.365335,0.614310294,-0.303868892,0.696371907,-0.187976301,-0.321476221,0.213554621
85776.375359,0.517901957,-0.180616168,0.827964151,-0.163844332,-0.276378512,0.218580008
85776.385383,0.324762262,-0.0244438469,0.952981108,-0.116729021,-0.206355214,0.206499368
85776.395407,0.137448496,0.0743492481,1.03794136,-0.070763126,-0.113763772,0.188060179
85776.405431,0.0867908331,0.0792855264,1.03760234,-0.03337368,-0.0108123524,0.174871132
85776.415455,0.0300811039,0.0382963124,0.9634195,-0.012543764,0.0900788382,0.167752773
85776.425479,-0.033066111,-0.0616385731,0.774151312,0.0101889791,0.177100837,0.166546091
85776.435503,-0.000535714312,-0.159804339,0.502054619,0.0296747945,0.239855021,0.175555035
85776.445527,0.0424366545,-0.207578884,0.238777192,0.0498415828,0.272170097,0.186248153
85776.455551,0.0982295611,-0.205955813,-0.0410492187,0.0833542645,0.271275252,0.184972242
85776.465576,0.0839469149,-0.140950239,-0.256190099,0.104501896,0.244774684,0.163675204
85776.475600,0.0736684628,-0.0663837857,-0.434685548,0.14467755,0.204321265,0.128379792
85776.485624,0.0423835361,-0.0374222787,-0.499603134,0.164540738,0.151660457,0.0863857344
85776.495648,0.015448256,-0.101817996,-0.422209513,0.155071333,0.0963292792,0.0617088862
85776.505672,0.0260306594,-0.258733774,-0.388303152,0.144930273,0.0456802174,0.0630532503
85776.515696,-0.0816536163,-0.32938203,-0.360267729,0.131838709,-0.00292113982,0.074323751
85776.525720,-0.216604815,-0.30681923,-0.286829567,0.117545791,-0.0347757414,0.0736259967
85776.535744,-0.254726383,-0.248875958,-0.176969263,0.0904923379,-0.0585857332,0.0621227436
85776.545768,-0.291114478,-0.186651119,-0.0684650489,0.0711245015,-0.0767913684,0.0409191884
85776.555792,-0.337884413,-0.145819251,0.00086918405,0.0591248274,-0.0881987587,0.0111154858
85776.565816,-0.325358182,-0.108191148,0.140447166,0.0392677672,-0.098476693,-0.0214973167
85776.575840,-0.268308626,-0.0287068564,0.225379366,0.0230965205,-0.102201127,-0.0519489683
85776.585864,-0.221448894,0.0654412989,0.301983297,0.0138348462,-0.0936257467,-0.085268043
85776.595889,-0.141406074,0.145243296,0.32742169,0.00693646027,-0.0736674815,-0.115995325
85776.605913,-0.136572736,0.239096414,0.358314256,-0.0102704903,-0.0566014126,-0.154850036
85776.615937,-0.117910486,0.226519439,0.357380775,-0.0212520361,-0.0418474972,-0.187232748
85776.625961,-0.0432698174,0.16172959,0.353220733,-0.0525766686,-0.0259942356,-0.205834925
85776.635985,0.0519664071,0.0165991613,0.35670273,-0.0996259376,-0.00363433454,-0.204445288
85776.646009,0.0942458983,-0.110112727,0.210762227,-0.13878718,0.0217591729,-0.188031703
85776.656033,0.0630422202,-0.16972605,0.0939841056,-0.19609122,0.0276159961,-0.167551994
85776.666057,0.0568918808,-0.145342172,-0.099494978,-0.214187399,0.0221756902,-0.14771916
85776.676081,0.00655439008,-0.0673552245,-0.250430805,-0.220647693,0.0123757906,-0.138277724
85776.686105,-0.0200842452,0.0533092183,-0.294381006,-0.216732591,0.000599026389,-0.138820216
85776.696130,-0.0335785175,0.128497091,-0.319969036,-0.202959776,-0.0128105218,-0.141041026
85776.706154,-0.0696973672,0.199732701,-0.360731839,-0.179662719,-0.0277063809,-0.146939382
85776.716178,-0.128390379,0.230245182,-0.350687415,-0.166604444,-0.0435998589,-0.158948913
85776.726202,-0.145393902,0.187549456,-0.357789356,-0.158252493,-0.0682921559,-0.163688272
85776.736226,-0.109048915,0.113705902,-0.378536376,-0.13496688,-0.0953213796,-0.16618365
85776.746250,-0.127298419,0.126131604,-0.324922859,-0.112661846,-0.11340078,-0.174440786
85776.756274,-0.124605527,0.0998137342,-0.22418168,-0.0944423601,-0.11788661,-0.179796398
85776.766298,-0.148062463,0.10467934,-0.0799134947,-0.083371602,-0.109818034,-0.185858294
85776.776322,-0.148967596,0.105062494,0.0206248549,-0.0703167841,-0.093070209,-0.192185968
85776.786347,-0.19984365,0.0797295164,0.108959556,-0.0659870133,-0.0680396929,-0.198946401
85776.796371,-0.246134131,-0.0280249568,0.182922034,-0.079656221,-0.0421417803,-0.207712188
85776.806395,-0.171190533,-0.253522268,0.104105687,-0.0601184741,-0.0133106634,-0.200826049
85776.816419,-0.0633745209,-0.416630763,0.00528290884,-0.0364759974,-0.00486604637,-0.188500941
85776.826443,0.0530913926,-0.493404499,-0.0348784212,0.00447996007,-0.00767887756,-0.166589528
85776.836467,0.170888555,-0.486718153,-0.106557171,0.0475038588,-0.0186023656,-0.142002419
85776.846491,0.208878313,-0.448454254,-0.0685977354,0.0922476277,-0.033444427,-0.116571903
85776.856515,0.293813216,-0.451353154,-0.00700315676,0.12922962,-0.0398541242,-0.0775137171
85776.866540,0.446491429,-0.552199838,0.146254976,0.143117994,-0.0358857512,-0.0167156123
85776.876564,0.665498557,-0.683567809,0.235299871,0.142486036,-0.0121117085,0.0683822408
85776.886588,0.738700352,-0.774803054,0.271119373,0.122256659,0.0245477688,0.177638695
85776.896612,0.72328081,-0.819546597,0.222227624,0.108932331,0.0620080605,0.282366693
85776.906636,0.718851523,-0.756814028,0.027369653,0.0915011466,0.0886585787,0.368637919
85776.916660,0.672586177,-0.578604994,-0.215943429,0.0947075933,0.091416277,0.430499971
85776.926684,0.589926379,-0.342489678,-0.474366401,0.10636691,0.0668435618,0.442165405
85776.936709,0.447249335,0.00914594094,-0.624153058,0.119017191,0.0184025243,0.397758007
85776.946733,0.307985095,0.258504112,-0.636887452,0.131234705,-0.0376080126,0.317087114
85776.956757,0.241499164,0.30219062,-0.453189758,0.125563234,-0.0941157639,0.237619475
85776.966781,0.21718583,0.24789588,-0.243538707,0.116836593,-0.128044695,0.179487452
85776.976805,0.166786965,0.207005285,0.000197568399,0.10479378,-0.125480607,0.130437881
85776.986829,0.109136301,0.187207986,0.198789465,0.106326692,-0.0937237516,0.0871505961
85776.996853,0.0257959739,0.159094054,0.357705769,0.100523934,-0.0495959669,0.0413540825
85777.006878,-0.0541400249,0.160443897,0.511214661,0.0765698627,0.00366219436,0.00532390922
85777.016902,0.00250599147,0.0871094706,0.612684739,0.029815942,0.044857569,-0.0197220556
85777.026926,0.0963162749,-0.0234163305,0.614204496,-0.0216270089,0.0622842312,-0.025223881
85777.036950,0.221416088,-0.126030957,0.443368037,-0.0491995141,0.0632171333,-0.0184748955
85777.046974,0.24996253,-0.10908269,0.286416895,-0.0780300945,0.0435907021,-0.0130939791
85777.056998,0.256828324,-0.0915271957,0.120230892,-0.0866081417,0.0130317276,-0.00593194086
85777.067023,0.334375089,-0.107394389,-0.0760252551,-0.0704446137,-0.0291005466,0.00187964318
85777.077047,0.303461115,-0.043468153,-0.098906949,-0.0418702289,-0.0634401441,0.00534228515
85777.087071,0.224299535,0.0562171051,-0.011402853,-0.0170474369,-0.0797038004,-0.00757670868
85777.097095,0.114567971,0.14017182,0.0667050535,0.0189300049,-0.0754813626,-0.032681264
85777.107119,0.133665543,0.124023014,0.146244454,0.0473430045,-0.0518830866,-0.050353203
85777.117143,0.135290733,0.0948049753,0.282511704,0.0493944362,-0.0172380283,-0.0593749285
85777.127168,0.0499942303,0.103234274,0.327896322,0.0525755845,0.0172128901,-0.0704488829
85777.137192,0.0388213866,0.0896039726,0.362269716,0.0323185138,0.0425984114,-0.0852496698
85777.147216,0.0758333857,0.0307955906,0.325263635,0.00331882201,0.058154732,-0.0918604285
85777.157240,0.0938688087,0.0201636488,0.233961901,-0.0358517505,0.0581435487,-0.0968272239
85777.167264,0.0835300047,-0.00163905418,0.118532856,-0.0721061602,0.0420226306,-0.105848953
85777.177289,0.0646059624,0.00809752787,0.0283931508,-0.116026215,0.0182592459,-0.116082683
85777.187313,0.0496088842,0.041918896,0.0388899949,-0.161381975,-0.00585594354,-0.124580555
85777.197337,0.0378600673,0.0712079179,0.012682956,-0.188691363,-0.028394809,-0.124612786
85777.207361,0.0120245651,0.148517532,-0.0184153621,-0.205558494,-0.0487035438,-0.125289217
85777.217385,-0.0486100825,0.219818736,0.00191489371,-0.193089575,-0.0565055385,-0.132922903
85777.227409,-0.188353776,0.346158137,0.0522603486,-0.181953833,-0.0490244552,-0.160948411
85777.237434,-0.327899756,0.427197165,0.119722942,-0.176976115,-0.0401625186,-0.192724451
85777.247458,-0.357046355,0.420409551,0.0641144525,-0.141496688,-0.0286760386,-0.216925666
85777.257482,-0.350073375,0.3963206,0.0433364529,-0.0941834971,-0.0106863845,-0.239482909
85777.267506,-0.376285601,0.320369981,0.117184948,-0.0608329996,0.0142261554,-0.26232937
85777.277530,-0.414304366,0.208487633,0.103482586,-0.017589923,0.0416982621,-0.276358366
85777.287555,-0.421772656,0.0789565227,0.0711602794,0.00494281761,0.0596426353,-0.279851913
85777.297579,-0.382962814,-0.0807249298,0.0325356574,0.0229100995,0.0665042698,-0.267178714
85777.307603,-0.281288811,-0.207284066,-0.0188268655,0.0378376506,0.0591456965,-0.238781154
85777.317627,-0.232973036,-0.249341603,-0.116344406,0.0490066819,0.0348020047,-0.201796785
85777.327651,-0.215292564,-0.269214964,-0.215713712,0.0695772022,0.00173939194,-0.170555234
85777.337676,-0.223056183,-0.280828409,-0.25530864,0.100614749,-0.0255561452,-0.141133964
85777.347700,-0.249129586,-0.291093472,-0.232516962,0.112642646,-0.0476713032,-0.121376507
85777.357724,-0.205422985,-0.326609862,-0.165670455,0.11836715,-0.0614553727,-0.098821111
85777.367748,-0.0893990428,-0.365235726,-0.0828466255,0.117850497,-0.0759538785,-0.070631817
85777.377773,0.0114761375,-0.386520835,0.0459223777,0.105500884,-0.0829393566,-0.0381870568
85777.387797,0.0560839985,-0.373601623,0.169746326,0.0930340961,-0.0775863975,-0.00649943575
85777.397821,0.0564005902,-0.35748292,0.227421101,0.0783986971,-0.0623070486,0.0162114687
85777.407845,0.0429248034,-0.321276977,0.317638547,0.0457557961,-0.04511315,0.0302508548
85777.417869,0.0727343968,-0.314539047,0.355624287,0.0153052099,-0.0239583291,0.0510067344
85777.427894,0.110921431,-0.309907953,0.341831324,-0.00941291824,-0.00266981777,0.0750912949
85777.437918,0.0641829146,-0.259078751,0.342384281,-0.0579679385,0.008057395,0.0950602069
85777.447942,0.039238443,-0.207841937,0.315575185,-0.100505538,0.0144069027,0.120032139
85777.457966,0.0623158787,-0.171907449,0.289065948,-0.157565907,0.0207361709,0.133871526
85777.467991,-0.00246880127,-0.0393950309,0.24900691,-0.191393912,0.0448143445,0.128535077
85777.478015,-0.0759218678,0.0907449958,0.163385559,-0.220403194,0.0810543746,0.106617533
85777.488039,-0.225444613,0.173782961,0.0563099162,-0.24130927,0.115677334,0.0746758431
85777.498063,-0.369046663,0.170793351,-0.181684601,-0.239495397,0.142605096,0.0377934612
85777.508087,-0.417858259,0.152030125,-0.381700393,-0.225594491,0.151380464,0.00718575018
85777.518112,-0.367217621,0.0725951938,-0.62580784,-0.183745041,0.137840167,-0.00778973754
85777.528136,-0.308218831,0.0562576472,-0.804147806,-0.148694381,0.0970975235,-0.00924648624
85777.538160,-0.260724528,0.0986939912,-0.886740165,-0.10255298,0.0356631912,-0.00436384697
85777.548184,-0.21049152,0.116044373,-0.917525179,-0.0385361835,-0.0268412009,0.0192932785
85777.558209,-0.25293497,0.124441532,-0.799479815,0.0191106014,-0.0804266632,0.0391519405
85777.568233,-0.311271643,0.162217008,-0.60874097,0.0614689775,-0.112390451,0.0549293049
85777.578257,-0.280788168,0.110967754,-0.356000134,0.0929163843,-0.120244384,0.0761022344
85777.588281,-0.195487647,0.000982101806,-0.176543146,0.132820383,-0.103178576,0.104619093
85777.598306,-0.133816496,-0.145156001,0.0607920301,0.154974163,-0.0687212721,0.132298127
85777.608330,0.021945436,-0.319113113,0.172300686,0.18043904,-0.0161062647,0.169603691
85777.618354,0.116962757,-0.441942205,0.190104054,0.199287832,0.0314609893,0.208536446
85777.628378,0.175674108,-0.515967482,0.23706162,0.192042425,0.0662533268,0.238984898
85777.638403,0.266927912,-0.594998604,0.223245276,0.167743742,0.0817164406,0.266830355
85777.648427,0.284636222,-0.676928955,0.2002081,0.124259397,0.0745916814,0.289437413
85777.658451,0.246747513,-0.754042298,0.0703565618,0.0942056254,0.056233447,0.310110986
85777.668476,0.22041261,-0.808159234,0.0247743758,0.0478767343,0.0196583904,0.324689925
85777.678500,0.244043661,-0.877120688,0.07509002,-0.0128289554,-0.0360131264,0.339825213
85777.688524,0.265045167,-0.944869552,0.0340267728,-0.0339153334,-0.0846152827,0.360128611
85777.698548,0.185237398,-0.860373625,0.0396428591,-0.0391298011,-0.115177721,0.373852164
85777.708573,0.0158276837,-0.650659519,0.162796945,-0.0399212912,-0.122380503,0.378900439
85777.718597,-0.102260497,-0.440726546,0.244499077,-0.0418113396,-0.11316064,0.371815622
85777.728621,-0.215656502,-0.254423765,0.265446003,-0.0309525654,-0.0955518186,0.360233545
85777.738645,-0.310011852,-0.171360264,0.246955822,0.000721741235,-0.0730531663,0.352907985
85777.748670,-0.336069691,-0.150062816,0.232144622,0.0273682643,-0.0487225316,0.358514756
85777.758694,-0.290761719,-0.0840672533,0.222694657,0.0570060536,-0.0271357466,0.366091162
85777.768718,-0.27351562,0.0088146175,0.195879715,0.0626290515,-0.023029685,0.360382408
85777.778743,-0.240057441,0.0136457548,0.108860772,0.0740079433,-0.0327243917,0.349148929
85777.788767,-0.191405054,-0.0403542085,0.0237011936,0.0628266633,-0.0615541749,0.339161009
85777.798791,-0.0958165817,-0.122724992,0.055114569,0.0238132123,-0.107579187,0.336825699
85777.808815,0.0503967467,-0.210491593,0.0416132824,-0.0229428429,-0.167724818,0.344981611
85777.818840,0.134788848,-0.18560804,0.060122168,-0.0471017063,-0.22679612,0.353276581
85777.828864,0.219755388,-0.0483592495,0.229222597,-0.0784588307,-0.272227257,0.351589471
85777.838888,0.26328488,0.084918162,0.477207762,-0.111152589,-0.283801883,0.33701238
85777.848913,0.256468331,0.151614941,0.683702395,-0.13771683,-0.263132304,0.311523259
85777.858937,0.210955996,0.17329799,0.811255593,-0.163173184,-0.218045771,0.281780273
85777.868961,0.19941125,0.151671667,0.892507642,-0.17922166,-0.150239304,0.252475917
85777.878985,0.126251029,0.152543993,0.933542833,-0.202011138,-0.0736598372,0.229286194
85777.889010,0.000975420903,0.189674339,0.813527045,-0.21104911,-5.03328629e-05,0.207744151
85777.899034,-0.0652034168,0.187291043,0.614826427,-0.203803971,0.0460247509,0.185883328
85777.909058,-0.0784342159,0.195785278,0.309326646,-0.160345182,0.0722646117,0.161290109
85777.919083,-0.164712569,0.281726911,0.131126965,-0.102213159,0.0822983384,0.120309375
85777.929107,-0.203742119,0.341973436,-0.012977555,-0.0424153432,0.0835585445,0.0653004497
85777.939131,-0.279039352,0.342563912,-0.114817635,0.0229873657,0.081427753,0.00899669994
85777.949156,-0.318054581,0.207487114,-0.167687055,0.0898399055,0.0781616494,-0.0462090299
85777.959180,-0.329229032,-0.00369652556,-0.147171506,0.14201282,0.0834392384,-0.085286662
85777.969204,-0.311554843,-0.196957171,-0.147061616,0.176849097,0.0858725682,-0.101378277
85777.979228,-0.281500481,-0.356124491,-0.119767951,0.201398909,0.0787075981,-0.102310389
85777.989253,-0.197988962,-0.432589599,-0.124063602,0.209440589,0.0674173906,-0.0992727876
85777.999277,-0.164417386,-0.43879671,-0.0757329941,0.206625372,0.0552869588,-0.0930969119
85778.009301,-0.214113583,-0.464395737,0.00980184757,0.17498222,0.0446249917,-0.0886544958
85778.019326,-0.165611418,-0.55188964,0.116847679,0.123343267,0.0312604532,-0.072390303
85778.029350,-0.0678168142,-0.636713119,0.121845926,0.0704944357,0.0253849849,-0.0382158197
85778.039374,-0.0971481226,-0.59251435,0.0669020374,0.00429064315,0.01637711,-0.0109072337
85778.049399,-0.139372961,-0.45860718,-0.000946340939,-0.0490966812,-0.00336596835,0.0239639319
85778.059423,-0.0722767162,-0.348947257,-0.166962833,-0.0806562006,-0.0316130519,0.0462628454
85778.069447,-0.13916531,-0.13832463,-0.267086756,-0.0956210345,-0.0622410066,0.0520432368
85778.079472,-0.206218154,0.0899461279,-0.283444601,-0.102968164,-0.0812093616,0.040761821
85778.089496,-0.303363354,0.286942946,-0.226698047,-0.113938525,-0.0912880972,0.0176881924
85778.099520,-0.345523456,0.347215757,-0.160337277,-0.124746963,-0.0956199914,-0.0139600141
85778.109545,-0.364950041,0.353077342,-0.125960376,-0.126596004,-0.0811116248,-0.0366203189
85778.119569,-0.479847171,0.40180232,-0.117119482,-0.139556542,-0.0635853633,-0.0594460033
85778.129593,-0.583879792,0.447661569,-0.208954301,-0.113379531,-0.0526331179,-0.0902140439
85778.139618,-0.616120559,0.508113663,-0.26749183,-0.0853833109,-0.0509702377,-0.135631055
85778.149642,-0.580731411,0.568754667,-0.265277076,-0.0591280088,-0.0548549928,-0.188905984
85778.159666,-0.518147968,0.569261704,-0.220430803,-0.0382498913,-0.0576068349,-0.24478896
85778.169691,-0.468872773,0.554579135,-0.193925074,-0.0147943683,-0.0666562542,-0.292570084
85778.179715,-0.416341498,0.486048473,-0.0981786347,0.00319794845,-0.0650370494,-0.331745982
85778.189739,-0.332110286,0.410847102,0.0379810633,0.0120534915,-0.0423091054,-0.362709492
85778.199764,-0.254420605,0.364400408,0.170241416,0.0136932004,-0.00117099111,-0.387990355
85778.209788,-0.314489289,0.344601775,0.208731013,0.0187228452,0.0492682159,-0.418648124
85778.219813,-0.312853066,0.27198452,0.135555887,0.028719021,0.101137005,-0.434089661
85778.229837,-0.292160845,0.190169046,0.096211134,0.017662907,0.139525145,-0.445573211
85778.239861,-0.321574864,0.106207618,-0.0303928002,0.0105344243,0.166992724,-0.452450573
85778.249886,-0.372610054,0.0449595332,-0.153159348,0.00173427514,0.177826732,-0.460502356
85778.259910,-0.368529069,0.000618807752,-0.231036369,0.0056901346,0.174047172,-0.460934848
85778.269934,-0.294899769,-0.0832816194,-0.300403335,0.00645286404,0.155503318,-0.45309186
85778.279959,-0.215091196,-0.162416476,-0.277668356,-0.0178250447,0.12194588,-0.427853078
85778.289983,-0.156819916,-0.262599345,-0.376803268,-0.0286542568,0.0746428147,-0.382120192
85778.300007,-0.139747786,-0.3478108,-0.410653516,-0.0412278399,0.0149331437,-0.333330035
85778.310032,-0.0905108765,-0.420132488,-0.342296603,-0.0478324778,-0.040802557,-0.276923746
85778.320056,0.000602203677,-0.464151187,-0.22518472,-0.0630598962,-0.0808447748,-0.218160555
85778.330080,0.0668453388,-0.446503229,-0.054620648,-0.0750161558,-0.102574043,-0.159060478
85778.340105,0.0312336349,-0.398955589,0.0830932938,-0.0655789822,-0.0926481709,-0.115482651
85778.350129,-0.0316853242,-0.287031081,0.183658531,-0.0467459112,-0.0612188838,-0.0950671211
85778.360154,-0.0264072377,-0.186637036,0.244089911,-0.0142792175,-0.00931771658,-0.0861768499
85778.370178,-0.0335192616,-0.141306569,0.317495339,-0.00438237842,0.0475748628,-0.097179167
85778.380202,0.0791010092,-0.152321783,0.348375046,0.00875978917,0.0995664224,-0.102629058
85778.390227,0.257573955,-0.20218751,0.254509599,0.0346345305,0.147703066,-0.0994764045
85778.400251,0.321330095,-0.228007668,0.220296363,0.0447180569,0.185906366,-0.0939628631
85778.410276,0.324460064,-0.264460536,0.132740829,0.0502169505,0.212674871,-0.0849310234
85778.420300,0.302458514,-0.288017206,0.0695715489,0.0487607345,0.217454448,-0.0724075064
85778.430324,0.274348929,-0.247089276,0.0038052375,0.0469721556,0.212147564,-0.0622454174
85778.440349,0.23361243,-0.21573333,0.0149520699,0.0349605009,0.199099943,-0.0580658577
85778.450373,0.178307526,-0.226636197,0.015126842,0.0266786013,0.185467213,-0.0476182736
85778.460397,0.103418143,-0.24475886,0.0515980853,0.015278941,0.167655721,-0.0364918523
85778.470422,0.0855281927,-0.216151007,0.0509849218,0.0199322812,0.144665197,-0.0341365524
85778.480446,0.11260858,-0.167873554,0.0629629444,0.0381509662,0.122955099,-0.040030662
85778.490471,0.124828303,-0.0500440242,0.16983868,0.0375528187,0.0981472209,-0.0632962957
85778.500495,0.103294443,0.0572052211,0.271799756,0.0432746261,0.0774770975,-0.0873648822
85778.510519,0.054460562,0.10189381,0.279542918,0.0707038492,0.0549653992,-0.107052304
85778.520544,0.0370587609,0.118794448,0.338520007,0.101959772,0.0390029438,-0.121891707
85778.530568,0.0454092406,0.048305816,0.397045846,0.141148716,0.0320193395,-0.134701774
85778.540593,0.0191750945,-0.0808943407,0.500022236,0.161306724,0.049165301,-0.145698234
85778.550617,0.027874826,-0.219364343,0.607130027,0.151889518,0.082478784,-0.137179583
85778.560641,0.0336718949,-0.361259772,0.572481323,0.139049083,0.121776924,-0.112027086
85778.570666,0.0139906045,-0.416955904,0.499702503,0.133610383,0.152331904,-0.0777641907
85778.580690,0.0610714316,-0.396095888,0.3386147,0.141665637,0.180647954,-0.0472808518
85778.590715,0.0868067613,-0.323973303,0.20138708,0.132776275,0.201959103,-0.0320196077
85778.600739,0.104538379,-0.228168741,0.130128601,0.116190106,0.212106287,-0.0276482925
85778.610764,0.159382899,-0.184911746,0.0121861124,0.113039851,0.214110851,-0.0257569179
85778.620788,0.161844394,-0.1858727,-0.106890349,0.0996566713,0.202899739,-0.0214969218
85778.630812,0.138958535,-0.217936868,-0.173026078,0.0868753642,0.182382748,-0.0117193935
85778.640837,0.16270744,-0.266261101,-0.229524795,0.0604751781,0.1515183,-0.00156076625
85778.650861,0.169681882,-0.320323658,-0.255025147,0.0319679081,0.113589294,0.0140991537
85778.660886,0.177406704,-0.34106275,-0.23522856,-0.0149471387,0.0657868907,0.0314339362
85778.670910,0.192145351,-0.298510653,-0.166515089,-0.0757601559,0.0205070246,0.0593933985
85778.680934,0.161964074,-0.206862644,-0.178133046,-0.134541452,-0.0214697197,0.0842774436
85778.690959,0.0873751358,-0.10508129,-0.159696056,-0.176376253,-0.0693371147,0.108543903
85778.700983,0.0565003973,-0.0116746009,-0.0921218189,-0.20204699,-0.11081931,0.124197699
85778.711008,0.00309409356,0.0819817888,0.0410848746,-0.225270018,-0.142510131,0.133657783
85778.721032,-0.0364366835,0.252538317,0.203912799,-0.230703935,-0.168893263,0.12296439
85778.731057,-0.105008115,0.398928262,0.377552625,-0.214899138,-0.178405806,0.0998497456
85778.741081,-0.173022206,0.492274764,0.620666385,-0.197530538,-0.169572905,0.0675775632
85778.751106,-0.22125308,0.566935635,0.866013603,-0.178646594,-0.135792837,0.0310075618
85778.761130,-0.223744239,0.59642155,1.05619891,-0.163305178,-0.0855371207,-0.00176103599
85778.771154,-0.184504846,0.603227869,1.20844289,-0.161091834,-0.0258695278,-0.0311072059
85778.781179,-0.14837226,0.583150528,1.23759943,-0.12747182,0.0520074256,-0.0531965308
85778.791203,-0.189222741,0.561074379,1.16627081,-0.0997243449,0.138371617,-0.0688196942
85778.801228,-0.267909763,0.55604844,1.10371294,-0.0717816576,0.227608278,-0.0886916667
85778.811252,-0.360028659,0.547740375,0.890520268,-0.0560730025,0.30935961,-0.108183876
85778.821277,-0.432430463,0.465719021,0.636325142,-0.0429113954,0.37008208,-0.125283241
85778.831301,-0.467672822,0.305388265,0.331432095,-0.0310158525,0.4081586,-0.134652764
85778.841326,-0.498556621,0.106648485,0.0384556951,-0.0122264531,0.42899093,-0.129838571
85778.851350,-0.615970848,-0.0765633714,-0.300701441,-0.00274932804,0.428263336,-0.118786991
85778.861374,-0.705674792,-0.197235075,-0.59915598,0.0166989379,0.396844715,-0.0994676203
85778.871399,-0.702672687,-0.246239929,-0.981591116,0.0717177168,0.335244179,-0.0731385425
85778.881423,-0.695637967,-0.217556362,-1.20997551,0.133949399,0.241302252,-0.0509024821
85778.891448,-0.612252266,-0.180085824,-1.3692396,0.202408344,0.135057837,-0.0333224237
85778.901472,-0.494647484,-0.1314648,-1.30257371,0.247459441,0.0332302749,-0.020392511
85778.911497,-0.347923138,-0.160133553,-1.09251174,0.260252208,-0.0552220903,-0.00565830525
85778.921521,-0.2210021,-0.258950248,-0.838916337,0.265425652,-0.124948442,0.0159287453
85778.931546,-0.171315402,-0.378111246,-0.606769377,0.271815389,-0.176403373,0.044422172
85778.941570,-0.0975297423,-0.492600635,-0.331906727,0.25354743,-0.205852881,0.0697829202
85778.951595,0.00926686391,-0.551642899,-0.0451198292,0.203106627,-0.218242168,0.0905012563
85778.961619,0.0729023007,-0.577100508,0.158892923,0.156622484,-0.210083306,0.109798521
85778.971644,0.11081629,-0.587615764,0.33072833,0.0918450877,-0.187416881,0.131707802
85778.981668,0.220346413,-0.597131269,0.479346528,0.023589069,-0.159311473,0.160804451
85778.991693,0.317499942,-0.576042815,0.527585366,-0.0296291448,-0.125401706,0.188991338
85779.001717,0.376265654,-0.480208844,0.544151301,-0.071933724,-0.0940214172,0.207168475
85779.011742,0.450749525,-0.338856765,0.582431639,-0.121396616,-0.0640914813,0.218974277
85779.021766,0.473763394,-0.173879535,0.524333671,-0.136760131,-0.0285188407,0.219326347
85779.031790,0.386924192,-0.0559024771,0.412363827,-0.131672427,0.011678379,0.198827997
85779.041815,0.267346576,0.0282777808,0.332765389,-0.110835589,0.0628281161,0.16543968
85779.051839,0.201305832,-0.00760563443,0.222408241,-0.0801269412,0.10862463,0.136751309
85779.061864,0.111396793,-0.0885601169,0.112030634,-0.0399917737,0.146388784,0.116561614
85779.071888,0.0691631873,-0.170490422,0.128144734,-0.0252080318,0.171284556,0.106189936
85779.081913,0.0405279714,-0.268433495,0.0396340913,0.00142677478,0.188035309,0.109103963
85779.091937,0.0299973711,-0.331658414,-0.101979781,0.0397730991,0.195952341,0.119869791
85779.101962,0.038155397,-0.364584204,-0.240182967,0.100774929,0.201692253,0.120134249
85779.111986,0.0769509916,-0.395021172,-0.311163214,0.147708356,0.193874553,0.107960403
85779.122011,0.0647270315,-0.433507189,-0.27611119,0.195595711,0.174186334,0.0974244028
85779.132035,0.12208105,-0.466440613,-0.223082779,0.241675854,0.152756408,0.0889038891
85779.142060,0.174862719,-0.498350504,-0.0714057786,0.264891446,0.138770014,0.0801341012
85779.152084,0.253383152,-0.625792569,0.16512042,0.154620856,0.102206416,0.0770517588
85779.162109,0.487542402,-1.08228794,0.837845493,-0.139079735,-0.0307870544,0.0929220691
85779.172133,0.65935472,-1.396451,0.293688932,-0.181708425,-0.128246769,0.185289547
85779.182158,0.8038497,-1.33550305,-0.164255327,-0.123637937,-0.137494594,0.303019106
85779.192182,0.774699301,-1.02637112,-0.0206646024,-0.132338211,-0.115701683,0.393555373
85779.202207,0.559838407,-0.646692588,0.0387204835,-0.154167607,-0.125560164,0.435813636
85779.212231,0.422325906,-0.335186406,-0.0894195742,-0.141791105,-0.151038364,0.451117218
85779.222256,0.471004012,-0.0762468345,-0.0531996753,-0.1399775,-0.176841199,0.45631358
85779.232281,0.429771692,0.0907047551,0.0110953945,-0.147384271,-0.196625292,0.454358011
85779.242305,0.344938861,0.231750033,0.114850368,-0.160213262,-0.211806372,0.440404654
85779.252330,0.243840394,0.373560524,0.175922384,-0.164883912,-0.224584758,0.409282684
85779.262354,0.122630062,0.456542904,0.187442726,-0.149560079,-0.23395668,0.365025461
85779.272379,0.027735929,0.470985856,0.258679578,-0.146113679,-0.238787651,0.303815901
85779.282403,-0.0864641584,0.442963438,0.363649188,-0.133031443,-0.235293061,0.231258899
85779.292428,-0.203451904,0.382889529,0.442743767,-0.113852151,-0.217250407,0.157549798
85779.302452,-0.244213172,0.333918505,0.515900189,-0.0831299201,-0.17868863,0.0896562338
85779.312477,-0.26938232,0.31620519,0.55667176,-0.0342257619,-0.128625467,0.0252921544
85779.322501,-0.297806669,0.278115917,0.597906272,0.0185261331,-0.0802968144,-0.0372260846
85779.332526,-0.311084742,0.264956941,0.641714434,0.0582903251,-0.0272032395,-0.0948204026
85779.342550,-0.264222526,0.236768062,0.716841279,0.0852540284,0.0264336225,-0.140008926
85779.352575,-0.221192582,0.144644435,0.651231035,0.121086597,0.0829626769,-0.173366874
85779.362599,-0.200051959,0.0544625485,0.56272916,0.145717666,0.128402889,-0.199347645
85779.372624,-0.17397673,-0.0507737359,0.497010779,0.153417394,0.163726792,-0.22335577
85779.382648,-0.104456181,-0.209743533,0.375977339,0.159688607,0.184472814,-0.235225752
85779.392673,0.0191646461,-0.372501005,0.251765853,0.168277845,0.204166889,-0.230542049
85779.402698,0.100254564,-0.507639214,0.168669052,0.153285578,0.224190131,-0.210637048
85779.412722,0.135462729,-0.620974355,0.132630939,0.105246671,0.234334916,-0.175650299
85779.422747,0.168565372,-0.734007372,7.07271487e-05,0.050330691,0.226290569,-0.122849941
85779.432771,0.196453862,-0.793838959,-0.162736739,-0.00905327313,0.194174975,-0.0583274066
85779.442796,0.203354435,-0.76871745,-0.268991128,-0.0852013081,0.136752173,0.00319161778
85779.452820,0.149202135,-0.663911287,-0.406095998,-0.134382427,0.0658646747,0.0501537994
85779.462845,0.0829655027,-0.498028797,-0.550320345,-0.156922892,-0.00550244888,0.073378697
85779.472869,0.0727523709,-0.400846152,-0.672464962,-0.150793359,-0.0677556992,0.087346971
85779.482894,0.0712049222,-0.402097138,-0.660233841,-0.138010457,-0.116098203,0.0971484706
85779.492918,0.0914928002,-0.380165292,-0.560701454,-0.13872844,-0.156694099,0.100983687
85779.502943,0.146302906,-0.290040474,-0.460759901,-0.11509902,-0.194978639,0.0976667255
85779.512968,0.202339632,-0.213713332,-0.401381245,-0.0590724982,-0.218886361,0.0830920413
85779.522992,0.22495566,-0.149826149,-0.213797649,-0.0266117621,-0.229578152,0.0545552038
85779.533017,0.181433403,-0.0825056118,0.0225052618,-0.0193027165,-0.221963912,0.025899861
85779.543041,0.106114104,-0.0244013732,0.202743171,-0.0295982305,-0.204567343,-0.00199515466
85779.553066,-0.0137200439,0.0416873294,0.342635041,-0.0519285686,-0.167060986,-0.0286557935
85779.563090,-0.101030955,0.0741133479,0.378783044,-0.0625657663,-0.109068789,-0.0570224524
85779.573115,-0.111826563,0.0921534561,0.359802449,-0.0607881062,-0.0464991517,-0.0818646848
85779.583140,-0.132656512,0.101656458,0.320147315,-0.0541954488,0.0156763401,-0.116932392
85779.593164,-0.176584794,0.147666112,0.188256965,-0.0434983298,0.0728698596,-0.161271632
85779.603189,-0.134508935,0.135068469,0.040402153,-0.0183367878,0.124885656,-0.200581223
85779.613213,-0.050221244,-0.00224588151,-0.0433142411,-0.0154398,0.158073172,-0.220183685
85779.623238,0.0236488789,-0.185897524,-0.0990074867,-0.00682394113,0.172836661,-0.219504312
85779.633262,0.0404964802,-0.32485162,-0.203332369,-0.0161663108,0.161835685,-0.198067456
85779.643287,0.00638882425,-0.38390141,-0.23234219,-0.0627647042,0.124003083,-0.166601151
85779.653312,-0.0109955143,-0.412368905,-0.258067583,-0.0989466831,0.0643749088,-0.13803795
85779.663336,-0.0594287789,-0.386028266,-0.278163446,-0.12241552,0.0120483153,-0.115765929
85779.673361,-0.102972518,-0.3168756,-0.245022224,-0.123435244,-0.0104601886,-0.097981073
85779.683385,-0.177998241,-0.290249623,-0.201347917,-0.106017642,-0.00792619213,-0.086213626
85779.693410,-0.335172889,-0.302545553,-0.15743045,-0.0827104524,0.00853800215,-0.0823613703
85779.703435,-0.479379115,-0.364926295,-0.088961309,-0.0548841432,0.0253007375,-0.0828942657
85779.713459,-0.53852915,-0.464876104,0.00525426727,-0.0184715427,0.04429866,-0.0890943706
85779.723484,-0.521660433,-0.51601702,0.0326829569,0.0222484563,0.0782965794,-0.097107023
85779.733508,-0.418434086,-0.595241364,0.0528138908,0.0788012147,0.114267893,-0.099872984
85779.743533,-0.276800341,-0.713938032,0.0203355165,0.154350579,0.159181312,-0.0881492123
85779.753558,-0.0950965238,-0.819722538,0.000494505519,0.210335284,0.203301638,-0.0648782477
85779.763582,0.0890264832,-0.917135376,0.00221299987,0.221396714,0.214008331,-0.0230604932
85779.773607,0.229501195,-0.918118688,-0.0230073661,0.195735291,0.186480835,0.0357450321
85779.783631,0.195975284,-0.834266101,-0.102949502,0.147531554,0.125093907,0.0778594613
85779.793656,0.0586708732,-0.724916449,-0.167729141,0.094021976,0.0476885997,0.107962772
85779.803681,0.0058756871,-0.606523659,-0.200137957,0.0465218388,-0.0220912788,0.12756896
85779.813705,0.0311959333,-0.521605963,-0.255682734,0.035307534,-0.0613659807,0.147191659
85779.823730,0.0863615018,-0.455409005,-0.254422505,0.0369331278,-0.0812765658,0.150353104
85779.833754,0.147563793,-0.342456762,-0.12010522,0.0214076955,-0.0943401754,0.15129666
85779.843779,0.184540502,-0.234410686,-0.054900634,0.00373123121,-0.116110981,0.145586312
85779.853804,0.198879554,-0.109376238,0.0726665923,-0.0326060019,-0.141312748,0.133575991
85779.863828,0.292224047,-0.00259027222,0.203190915,-0.0711281002,-0.159924775,0.121920928
85779.873854,0.320371845,0.0825893993,0.270446003,-0.100328326,-0.166617304,0.114662483
85779.883878,0.269044904,0.194889023,0.345597398,-0.12079978,-0.160429716,0.0981788486
85779.893903,0.218183974,0.31794586,0.441742481,-0.138075426,-0.144580975,0.0756549016
85779.903928,0.157446378,0.431844516,0.466335071,-0.133085728,-0.121063933,0.0523509085
85779.913952,0.0687942078,0.527519498,0.413638084,-0.104514018,-0.0866891816,0.0219266899
85779.923977,0.0103850543,0.597618578,0.42600949,-0.0863832161,-0.0544990227,-0.0131764365
85779.934002,0.0391170086,0.612169519,0.420531351,-0.0620581657,-0.0284194816,-0.0444763042
85779.944026,0.12080387,0.565363564,0.343155266,-0.018752506,-0.0033399621,-0.0691020191
85779.954051,0.165681853,0.444356171,0.382453841,0.00163266028,0.0277588349,-0.0797389522
85779.964076,0.154194171,0.317319398,0.369657488,0.0106506562,0.0626624897,-0.0783458501
85779.974100,0.104864396,0.244573274,0.252304782,0.0252650175,0.101649836,-0.0721185803
85779.984125,0.108672995,0.190043611,0.092286654,0.0396737866,0.129880413,-0.0713537261
85779.994149,0.149410809,0.124764069,-0.035689153,0.0483138785,0.142641485,-0.0719169825
85780.004174,0.193604756,0.116303398,-0.174731713,0.0629966855,0.1373045,-0.0687283799
85780.014199,0.358087097,0.121797822,-0.338725174,0.0910269842,0.118318833,-0.0626414567
85780.024223,0.554489155,0.0182944141,-0.341810865,0.0906711891,0.0769213215,-0.0483698435
85780.034248,0.663637585,-0.0613371881,-0.297700506,0.0670524091,0.0264038183,-0.0254951566
85780.044273,0.65257222,-0.158207882,-0.295265387,0.0455937274,-0.0140661094,0.00306138955
85780.054297,0.705082964,-0.266931054,-0.228475578,0.0243435651,-0.0487785526,0.0326994434
85780.064322,0.77882493,-0.33155521,-0.0826443809,-0.0138091464,-0.080019556,0.0681021735
85780.074347,0.756058606,-0.331298787,0.0491933622,-0.0477370173,-0.103128336,0.10439387
85780.084371,0.679543595,-0.195749147,0.0818108527,-0.0676963478,-0.118495047,0.132173032
85780.094396,0.575617283,0.00686801119,0.136782214,-0.0704202279,-0.119417831,0.140534028
85780.104421,0.48891011,0.206250375,0.123563836,-0.0441369563,-0.105695359,0.123274617
85780.114445,0.412370549,0.284402194,0.121568278,-0.00925301015,-0.0843708962,0.104803726
85780.124470,0.324523411,0.278159281,0.164628252,0.015037681,-0.0664369017,0.0959415287
85780.134494,0.271708717,0.246973888,0.233065829,0.0169149432,-0.0651753619,0.0926693007
85780.144519,0.275924435,0.225977971,0.267489492,0.00981921796,-0.0741968229,0.0990462378
85780.154544,0.299049217,0.211071548,0.290135623,-0.000203855569,-0.0862228572,0.104816511
85780.164568,0.37964894,0.187018491,0.292491246,0.00849775691,-0.0913004428,0.117630042
85780.174593,0.485489853,0.146560553,0.286169058,0.0284126084,-0.0846947357,0.129470199
85780.184618,0.548418384,0.116667939,0.399824663,0.0444730707,-0.0649119765,0.138004556
85780.194642,0.594854337,0.139171557,0.519576247,0.0459021218,-0.0265153218,0.138340116
85780.204667,0.599617021,0.144284516,0.535762827,0.0576764904,0.032340005,0.134592786
85780.214692,0.533117939,0.0713104832,0.426506918,0.0673885047,0.093953304,0.132225767
85780.224717,0.438596,0.0140170667,0.367549702,0.0389608592,0.137056828,0.129408151
85780.234741,0.350856853,0.0398969526,0.238680746,-0.00991214253,0.160905704,0.118978932
85780.244766,0.320014336,0.0839815022,-0.0458738624,-0.0356718339,0.163168594,0.105157666
85780.254791,0.311097747,0.128427926,-0.377202497,-0.0261712745,0.146967515,0.0859613344
85780.264815,0.388946053,0.0436849832,-0.629168841,0.00434136158,0.110083804,0.0724127665
85780.274840,0.413742787,-0.0856801045,-0.768508922,0.0392974839,0.0627815351,0.068005234
85780.284865,0.37512664,-0.217915131,-0.770757578,0.0746927559,0.00794891082,0.0697701126
85780.294889,0.30610783,-0.337025275,-0.738272774,0.114702754,-0.0445345379,0.0783582702
85780.304914,0.237774591,-0.316489231,-0.593528203,0.139201984,-0.0906668752,0.08947777
85780.314939,0.233610603,-0.184443161,-0.304744579,0.139429152,-0.125840038,0.0940975547
85780.324963,0.325940146,-0.0521436314,-0.0491366636,0.12312527,-0.142755643,0.0920730233
85780.334988,0.41516354,0.0145039608,0.222429868,0.08479812,-0.132379964,0.0938930213
85780.345013,0.423847636,-0.0536708319,0.473491957,0.0267140437,-0.1091865,0.103181332
85780.355037,0.420511185,-0.154942944,0.571934211,-0.0180592854,-0.0649860129,0.122200564
85780.365062,0.421930331,-0.234791666,0.585393412,-0.0610004812,-0.00613848725,0.142020002
85780.375087,0.36273821,-0.304788783,0.475191746,-0.104153283,0.0521242842,0.161733508
85780.385111,0.294125789,-0.320945736,0.187711022,-0.119243547,0.103375487,0.176692218
85780.395136,0.268034339,-0.288415247,-0.152110716,-0.116016597,0.13207452,0.186884135
85780.405161,0.271312703,-0.195002987,-0.482423451,-0.0975417197,0.129960239,0.195484027
85780.415186,0.3612856,-0.12257435,-0.707989279,-0.0955078602,0.102531001,0.209337249
85780.425210,0.384700451,-0.060590096,-0.814341284,-0.102538608,0.0551198088,0.231494486
85780.435235,0.339509822,0.00325038466,-0.916235724,-0.0974216089,-0.00958648138,0.2620942
85780.445260,0.248351222,0.108329606,-0.907675401,-0.0885604694,-0.0805197805,0.276687264
85780.455284,0.137560943,0.229852346,-0.798694802,-0.0813382417,-0.14587082,0.276172221
85780.465309,0.00128580203,0.31140853,-0.655084203,-0.0711758882,-0.20394583,0.256325006
85780.475334,-0.0819816792,0.376303867,-0.441449051,-0.0411386266,-0.242029041,0.225801975
85780.485359,-0.0563706335,0.391946988,-0.257958862,0.0153358337,-0.246792361,0.188287899
85780.495383,-0.000565817189,0.350099495,-0.0524789598,0.0877067,-0.210784838,0.14725177
85780.505408,0.0455783135,0.251137327,0.169603702,0.148706406,-0.153625935,0.114132173
85780.515433,0.0849764041,0.0846235721,0.396610962,0.175826967,-0.0871939287,0.093203187
85780.525457,0.145608056,-0.0757847517,0.548356936,0.18241857,-0.021287879,0.0881415829
85780.535482,0.289159326,-0.222318078,0.530071922,0.189462632,0.0337527357,0.0935155749
85780.545507,0.429005822,-0.347446972,0.426807947,0.196062997,0.0821338519,0.110727057
85780.555532,0.502098969,-0.400337983,0.347513461,0.182413504,0.108908735,0.122092359
85780.565556,0.511184632,-0.421530481,0.237512871,0.160357997,0.116530441,0.131184936
85780.575581,0.48230209,-0.427067073,0.0734907681,0.135363445,0.115317903,0.142769679
85780.585606,0.469280696,-0.411282973,-0.0683335315,0.10157378,0.098956503,0.155096114
85780.595630,0.420774804,-0.367871445,-0.151841251,0.0687183663,0.0738511533,0.164754868
85780.605655,0.35569063,-0.319247042,-0.247884628,0.0278777238,0.0372023284,0.167006567
85780.615680,0.287729074,-0.242735209,-0.253588392,-0.0158700235,-0.0091494564,0.17120105
85780.625705,0.239636512,-0.191329194,-0.304001652,-0.03364316,-0.0589527003,0.176936701
85780.635729,0.219613057,-0.100707907,-0.326105347,-0.0347334594,-0.101756357,0.178199306
85780.645754,0.203114562,0.0175896062,-0.258227158,-0.0245913435,-0.143325627,0.166915223
85780.655779,0.164073322,0.116720957,-0.115915367,-0.00865498651,-0.178117439,0.147372678
85780.665804,0.107078054,0.159054288,0.0416752417,0.00210445002,-0.194347009,0.126576066
85780.675828,0.0807915196,0.130328489,0.221159702,0.0150628593,-0.19113417,0.109581627
85780.685853,0.0615903409,0.110263424,0.344613648,0.0422579944,-0.169062421,0.086194016
85780.695878,0.0508056197,0.138535085,0.40682139,0.0751741305,-0.129092902,0.0593789108
85780.705903,0.00814246299,0.201226519,0.469302688,0.102590047,-0.0810753107,0.0209319219
85780.715927,-0.0568968493,0.223622658,0.579983077,0.095554769,-0.0356231444,-0.0169313028
85780.725952,-0.0879677679,0.162463183,0.650547144,0.0749048889,0.00689156074,-0.0566699281
85780.735977,-0.0900239698,-0.00013720738,0.623712913,0.051407285,0.0529557243,-0.0780596435
85780.746002,-0.0179947256,-0.149387227,0.568026097,0.035034705,0.0995679647,-0.0872709826
85780.756026,0.114206444,-0.256561672,0.448458053,0.026815122,0.144347429,-0.0918952972
85780.766051,0.164042707,-0.235265494,0.283080444,0.0314298496,0.187325254,-0.11030253
85780.776076,0.183891025,-0.209399688,0.118128951,0.0429413617,0.207208157,-0.134704545
85780.786101,0.248574509,-0.293698083,-0.0658148267,0.0757017061,0.201932698,-0.144580081
85780.796125,0.216412508,-0.336316506,-0.216482943,0.109066054,0.174983904,-0.143073529
85780.806150,0.0928598508,-0.274664699,-0.188071672,0.0759834647,0.0974558145,-0.136247844
85780.816175,-0.0251960353,-0.220093753,-0.263519419,0.108139008,0.0629790649,-0.120606571
85780.826200,0.10482326,-0.229607322,-0.270656431,0.125505477,0.0530601218,-0.0896848738
85780.836225,0.120778224,-0.408145697,0.00980067852,0.0899141952,0.0244673584,-0.0528759882
