t,ax,ay,az,gx,gy,gz
86765.138057,0.0179576084,-0.0568064219,0.167079737,-0.0301287863,-0.058922682,0.0621915534
86765.148084,0.0314513693,0.0113425103,0.155792035,-0.00125159684,-0.0495289117,0.0660880283
86765.158112,0.0236343389,-0.179244039,0.225958042,0.0535397492,-0.038670674,0.0807308853
86765.168139,0.00780102914,-0.192410249,0.0329693727,0.132473171,-0.0476133004,0.0972936153
86765.178166,0.0322599823,-0.27613616,-0.0360422042,0.199805334,-0.0523539931,0.124205656
86765.188193,0.0246425661,-0.305278686,0.141426825,0.245206639,-0.0451173857,0.150133938
86765.198220,0.0161961517,-0.195901434,0.25172669,0.252851248,-0.0300191268,0.16390115
86765.208248,0.040156873,-0.011300927,0.184050745,0.219971329,-0.0207795557,0.164166138
86765.218275,0.0422223542,0.125946694,0.131797411,0.163639352,-0.0106693972,0.155017376
86765.228302,0.0538459373,0.169268479,0.108794721,0.107551053,-0.00498754298,0.138700187
86765.238329,0.0318384689,0.222895038,0.0247001415,0.0780967548,-0.00731248222,0.123388067
86765.248357,0.0387494904,0.15925118,-0.0155336692,0.0564124994,-0.0136103258,0.116553597
86765.258384,0.0466259229,0.133234075,-0.0486135165,0.0444301404,-0.020250652,0.0996342674
86765.268411,0.0320746888,0.13187855,-0.060508537,0.0450759567,-0.0287815556,0.0897946879
86765.278438,0.00704348877,0.181926903,0.127273796,0.0522174872,-0.031791728,0.077795282
86765.288465,0.00996785178,0.185043519,0.126872814,0.0249917246,-0.0232666824,0.064300783
86765.298493,0.026601372,0.0156522541,0.136938281,0.0209634267,-0.0185576808,0.0675586239
86765.308520,-0.00824606949,-0.10008171,0.000687982264,0.0789545625,-0.0260209236,0.0777904913
86765.318547,0.0274385535,-0.247104364,0.0545481673,0.0451531857,-0.0196501091,0.100945607
86765.328574,0.0129606769,-0.118771103,0.0788356363,0.00430056127,-0.0185747258,0.10407269
86765.338601,0.0436365318,0.0450184146,-0.0445908369,0.0271065403,-0.0279740859,0.107799783
86765.348629,0.00631933921,-0.179356286,-0.0109551093,0.0710263327,-0.0326993316,0.122865021
86765.358656,0.0318080007,-0.134980316,0.0346954658,0.0756730139,-0.034225855,0.126736999
86765.368683,0.0308350641,0.181727856,0.0510264229,0.0556937121,-0.0365292244,0.108490877
86765.378710,0.0450880458,0.315103476,-0.000416179585,0.0447784811,-0.0386110172,0.0879901275
86765.388738,0.0247219149,0.254516978,-0.0652694678,0.0987032279,0.0136716291,0.099766098
86765.398765,-0.0308290727,0.210450092,-0.149244221,0.142456293,0.0517540313,0.121959016
86765.408792,0.0508058389,0.16248503,-0.107419926,0.144358858,0.0541668572,0.125807822
86765.418819,0.0973611078,0.116774943,-0.0319604879,0.138997123,0.0518214107,0.127118364
86765.428846,0.0771126119,0.0790386481,0.0616425094,0.123954527,0.0577264354,0.135913193
86765.438873,-0.108697252,0.00960022405,0.207249835,0.0862055495,0.0474530272,0.112260051
86765.448901,-0.0603700053,-0.0612700959,0.181001879,0.0923238918,0.0658791736,0.131443873
86765.458928,-0.0906490429,-0.0765352139,0.109323129,0.0832449123,0.0902987644,0.122328393
86765.468955,-0.384237291,0.0633529666,0.243960148,0.0322251394,0.124747552,0.0844380036
86765.478982,-0.349963411,-0.0157946217,0.322816242,-0.00806369632,0.147462189,0.0493151769
86765.489010,-0.317282573,-0.0856434166,0.236524445,-0.0379459597,0.141992584,0.0468842387
86765.499037,-0.28324338,-0.0981238358,0.159121471,-0.032926701,0.122647911,0.0572284907
86765.509064,-0.350606605,-0.0396162999,0.126039286,-0.0438267514,0.0901616067,0.0632395074
86765.519091,-0.274236628,0.108636973,0.0792529849,-0.0713603795,0.0623385012,0.0440397188
86765.529118,-0.205670968,0.025042927,0.0486813211,-0.0992170423,0.0472197346,0.0283012353
86765.539146,-0.250794085,0.0105933998,-0.0319786081,-0.0993627161,0.0325217508,0.0235221907
86765.549173,-0.269768177,0.0388074312,-0.114316115,-0.0449929498,0.0251083076,0.0219256282
86765.559200,-0.253680089,-0.129202171,-0.0694318481,0.00557328574,0.0308199879,0.0555174127
86765.569227,-0.190306226,-0.0124045774,0.0805225665,0.0210332014,0.0437160805,0.0855575949
86765.579254,-0.207090772,0.173451975,-0.0789817668,0.0365453176,0.0433328524,0.096766308
86765.589281,-0.101132078,0.193024947,0.0212935479,0.0130738132,0.0425410941,0.107992597
86765.599309,-0.102845823,0.171666444,0.130323247,0.00244566984,0.0473204032,0.120743014
86765.609336,-0.178617761,0.162579759,0.116240946,0.0295816828,0.0492432043,0.127662182
86765.619363,-0.273430864,0.0998316261,0.170040925,-0.00908927992,0.0506655984,0.130450249
86765.629390,-0.228288239,0.149141527,0.148470314,0.00608248217,0.0419030003,0.120090805
86765.639417,-0.30866051,0.0636722252,0.169095753,-0.00563649181,0.044691328,0.114869945
86765.649445,-0.425943804,0.0185122832,0.126696873,0.00177029206,0.0414012596,0.101673454
86765.659472,-0.489825325,0.0754546886,0.0908212577,-0.0181922317,0.0284399204,0.0751196072
86765.669499,-0.501878678,0.0960019848,0.11448738,-0.0717135146,0.00848192628,0.0436671376
86765.679526,-0.396364878,0.0968526102,0.067211834,-0.104786508,-0.00835324544,0.0136631699
86765.689553,-0.307324658,0.0460891126,-0.0171153855,-0.110736012,-0.0244842805,-0.00209289044
86765.699581,-0.328952699,-0.0358090165,-0.109867319,-0.105845384,-0.0468998402,-0.0138416924
86765.709608,-0.356114335,-0.0447174589,-0.215874455,-0.0935498327,-0.0691417605,-0.0264283251
86765.719635,-0.303550035,-0.0165286533,-0.249494401,-0.0885915607,-0.0756412074,-0.0401734337
86765.729662,-0.222023772,0.0245085462,-0.216821965,-0.100310802,-0.0685587972,-0.0601042658
86765.739689,-0.221311166,0.047239269,-0.220255447,-0.114690006,-0.0608968809,-0.0802356303
86765.749716,-0.248984917,0.10558502,-0.19922318,-0.119907409,-0.0567306317,-0.0917966813
86765.759744,-0.234530421,0.13093462,-0.161265498,-0.124298163,-0.0538187325,-0.0935343951
86765.769771,-0.150885193,0.24715867,-0.0565361262,-0.1217077,-0.0477360711,-0.0750001222
86765.779798,-0.223440872,0.282928267,-0.0141840082,-0.110920832,-0.0435623676,-0.0635027215
86765.789825,-0.31159291,0.262373354,0.0689741675,-0.100808814,-0.0489973463,-0.0628254786
86765.799852,-0.305936346,-0.00731280723,0.163890586,-0.0938651487,-0.0486066602,-0.0531259775
86765.809880,-0.359953913,-0.0227438563,0.190535431,-0.0799298957,-0.0468100905,-0.0594243556
86765.819907,-0.485377771,-0.155598211,0.166000125,-0.0601508655,-0.0445764996,-0.0899308696
86765.829934,-0.620250133,-0.483706367,0.197315885,-0.0741207451,-0.0329174474,-0.118075691
86765.839961,-0.523139566,-0.3866076,0.148488434,-0.0847685933,-0.00593003584,-0.1356062
86765.849988,-0.473676081,-0.312268764,0.0696136345,-0.0713973939,0.0354197994,-0.146645278
86765.860015,-0.465398447,-0.385499566,0.106971597,-0.0558738299,0.0833244771,-0.156527191
86765.870043,-0.485359212,-0.439724492,0.224067699,-0.0551031083,0.126464486,-0.181510046
86765.880070,-0.518850855,-0.401775468,0.234321966,-0.0624406524,0.150026008,-0.210273251
86765.890097,-0.428472885,-0.40034043,0.22365035,-0.084140718,0.162296206,-0.225498289
86765.900124,-0.338634939,-0.343373073,0.224566296,-0.112269819,0.161353976,-0.222975209
86765.910151,-0.317369594,-0.229478727,0.151259652,-0.136930168,0.164106086,-0.230167076
86765.920179,-0.29026641,-0.150395683,0.108427641,-0.152003124,0.183858752,-0.240784302
86765.930206,-0.266507203,-0.165963684,0.0828437029,-0.14579317,0.217306733,-0.239253789
86765.940233,-0.344798065,-0.147228561,-0.0671750091,-0.128177688,0.250639915,-0.249236897
86765.950260,-0.390326694,-0.108204592,-0.226173731,-0.113988891,0.274580151,-0.265659034
86765.960287,-0.322825229,-0.134445871,-0.344173503,-0.0982914194,0.273637384,-0.255886048
86765.970314,-0.244914453,-0.193015119,-0.436619731,-0.0532786772,0.254124403,-0.229644299
86765.980342,-0.20554778,-0.133040077,-0.46831017,-0.0161805768,0.229236886,-0.199303433
86765.990369,-0.183281807,-0.0365818549,-0.23662732,-0.0277035441,0.230819076,-0.204492077
86766.000396,-0.195275612,-0.00583762925,-0.174689043,-0.0369364545,0.222162202,-0.20564948
86766.010423,-0.302703136,-0.0861696507,-0.175031573,-0.0429027379,0.193545744,-0.206199691
86766.020450,-0.344980289,-0.0622137152,-0.18881986,-0.0330743417,0.150741816,-0.205879316
86766.030477,-0.356468629,-0.0522947167,-0.233474409,-0.0205561519,0.102538861,-0.207725152
86766.040505,-0.282656227,0.0476504984,-0.220081259,-0.047182437,0.0541220643,-0.22168304
86766.050532,-0.278197056,0.141493049,-0.15521745,-0.0954194665,-0.00557642151,-0.23408778
86766.060559,-0.275423426,0.191244456,-0.179343006,-0.117477365,-0.0684858784,-0.236228436
86766.070586,-0.176414552,0.263183575,-0.14547347,-0.118247822,-0.120746687,-0.24257715
86766.080613,-0.248135168,0.211311769,-0.12875439,-0.141579255,-0.139902264,-0.249987915
86766.090640,-0.284292523,0.206878627,-0.247315888,-0.127900183,-0.160556674,-0.255856484
86766.100668,-0.0457226905,0.204664239,-0.22170623,-0.12033467,-0.152738169,-0.236386627
86766.110695,0.0557409572,0.185833994,-0.158967158,-0.119254492,-0.139434353,-0.195090324
86766.120722,0.0138465929,0.17348648,0.00910977365,-0.105527498,-0.106462821,-0.159481198
86766.130749,-0.0129027362,0.164260076,0.0900263079,-0.0603618883,-0.0721051171,-0.115467392
86766.140776,-0.16819274,0.0760414162,0.206963419,-0.00413723011,-0.0337665118,-0.0831653774
86766.150803,-0.425037869,-0.0231034446,0.130654086,0.13431704,-0.0719956607,-0.0684546083
86766.160831,-0.620450624,-0.273519493,0.464940401,0.133299455,-0.152370661,-0.0801480189
86766.170858,-0.241604451,-0.283065721,0.990657051,0.0222770665,-0.151396737,-0.0971925184
86766.180885,-0.236245408,-0.0216402973,0.731429776,-0.11713355,-0.115318902,-0.1535016
86766.190912,-0.679923607,-0.214370846,0.436148022,-0.108335003,-0.122710235,-0.137531951
86766.200939,-0.570972453,-0.477883652,0.496224598,-0.0273381583,-0.102662496,-0.145838886
86766.210966,-0.531679576,-0.575194162,0.477857166,0.0185244065,-0.0896252543,-0.0753516629
86766.220994,-0.388748192,-0.421172754,0.664967299,0.0263703447,0.00729490211,-0.112467878
86766.231021,-0.319094372,-0.260441235,0.3242793,-0.0150924092,0.0897500962,-0.0826508552
86766.241048,-0.117864674,-0.0820532923,0.147552614,-0.0419852771,0.204160035,-0.124371409
86766.251075,-0.645493003,-0.238895612,-0.121151514,-0.0182269514,0.198526382,-0.120703965
86766.261102,-0.103892921,-0.108748471,0.258870716,-0.108026341,0.266285986,-0.100955829
86766.271129,-0.1261445,0.331175599,-0.0169850371,-0.133412659,0.329014897,-0.132692456
86766.281157,-0.809066266,0.182921668,-0.152218268,-0.0742481351,0.303859472,-0.193245545
86766.291184,-0.581270341,-0.106061515,0.154537651,-0.114623792,0.242345497,-0.170709878
86766.301211,0.436657068,0.167237814,0.197732649,-0.140293211,0.107035078,-0.115112662
86766.311238,0.481477329,0.385019893,0.182103119,-0.260851055,-0.0445536487,-0.0620102994
86766.321265,0.192828145,0.601098784,0.264986569,-0.359098524,-0.157495901,-0.0537960418
86766.331292,0.0926153745,0.70296283,0.178776604,-0.418211907,-0.218684435,-0.0692980364
86766.341320,0.115429848,0.379354268,-0.153088036,-0.433171153,-0.296278566,-0.0627037808
86766.351347,0.495681869,0.257522389,-0.436957001,-0.551225603,-0.419605553,-0.0516412817
86766.361374,0.83718776,0.377701752,-0.38943654,-0.78473717,-0.552522063,-0.0724008828
86766.371401,0.735535969,0.548512821,-0.443204371,-0.964584172,-0.686611176,-0.154431045
86766.381428,0.450007767,0.689241909,-0.942102571,-1.02545786,-0.783572853,-0.283497691
86766.391455,0.0374972984,0.438824585,-1.23513625,-0.927738249,-0.73461175,-0.424527794
86766.401483,-0.282307487,-0.350504825,-1.29317869,-0.661874115,-0.580253303,-0.480155617
86766.411510,-0.0712891664,-1.10450569,-1.2764754,-0.314290583,-0.426090091,-0.430913776
86766.421537,0.369874127,-1.40097286,-1.23866209,-0.0773824155,-0.328246355,-0.320942283
86766.431564,0.321042803,-1.2902346,-0.696717944,-0.0384312868,-0.29954201,-0.208818913
86766.441591,-0.00465016389,-0.625846345,-0.31574002,-0.00230151322,-0.302742839,-0.179999515
86766.451618,-0.118656628,-0.211652819,0.00943359878,0.0128060672,-0.291324824,-0.215303436
86766.461646,-0.116939157,-0.382083839,0.512755461,-0.0918886513,-0.261961877,-0.288392305
86766.471673,-0.346032429,-0.409613797,0.775284116,-0.385682464,-0.195821464,-0.440906763
86766.481700,-0.312508052,-0.137288556,0.531383005,-0.678315938,-0.0704781935,-0.553866029
86766.491727,-0.0796291248,0.143717785,-0.366100088,-0.662471175,-0.0276801251,-0.502856135
86766.501754,0.197625097,0.191719307,-1.22919167,-0.382484257,-0.104177564,-0.343156487
86766.511781,0.367534651,-0.0641980391,-1.16485159,-0.170970157,-0.200629801,-0.186256349
86766.521808,0.422902318,-0.054286959,-0.554718288,-0.145210207,-0.253025889,-0.0913913548
86766.531836,0.550643439,0.314316782,-0.336824309,-0.168700352,-0.304130346,-0.0475935414
86766.541863,0.45517421,0.210962937,-0.154539404,-0.295723289,-0.330358237,-0.00855053496
86766.551890,0.0530855474,-0.027910701,0.207621591,-0.406007975,-0.371063858,-0.0673840195
86766.561917,0.35057168,-0.286241611,0.189027949,-0.533030093,-0.426720172,-0.0776004419
86766.571944,0.429113886,-0.354359016,-0.0341284796,-0.562329412,-0.500439465,-0.152952984
86766.581971,0.779783911,-0.626299715,-0.193859607,-0.504296482,-0.603153825,-0.120376661
86766.591999,0.727178256,-0.778398229,-0.180203422,-0.465810597,-0.654409826,-0.133596331
86766.602026,0.388060722,-0.118708359,0.0792664289,-0.398601204,-0.672062039,-0.143567473
86766.612053,0.437404014,0.223477551,0.0159562785,-0.256555915,-0.623638332,-0.12878187
86766.622080,0.298954597,0.54342854,0.0536813213,-0.00771811651,-0.466691583,-0.100341707
86766.632107,0.129579004,0.72838639,0.661876348,0.159738779,-0.240013689,-0.0612489022
86766.642134,0.353743734,0.546028274,1.1770716,0.301673025,-0.0134955971,-0.0239422731
86766.652161,0.421844479,0.478912886,0.80381346,0.457051158,0.102980681,0.0144786183
86766.662189,0.240212632,0.659840458,0.292533917,0.527230501,0.114505507,0.0282828473
86766.672216,0.252086609,0.692418055,0.627943098,0.488212019,0.096975252,0.0188595187
86766.682243,0.390793508,0.538750684,0.709471042,0.514849484,0.103941813,0.0199852362
86766.692270,0.460187069,0.354557461,0.466871077,0.580057263,0.0885181129,0.0527849942
86766.702297,0.556312279,0.319569808,0.173431736,0.58624804,0.0435714163,0.101754136
86766.712324,0.661873133,0.544639596,0.431013582,0.491102338,0.00905977935,0.129527703
86766.722351,0.613521774,0.869922228,0.676823157,0.33624804,-0.0377181135,0.143988147
86766.732379,0.49136006,0.927788726,0.581711508,0.256457865,-0.0767209083,0.193871275
86766.742406,0.653754562,0.664124638,0.624418431,0.328860432,-0.0993292853,0.317844868
86766.752433,0.772799021,0.613269407,0.697394236,0.513217509,-0.0929158553,0.354455352
86766.762460,0.666896368,0.796726717,0.428058239,0.54865247,-0.161491975,0.360322028
86766.772487,0.734882985,0.724543305,0.238712895,0.45909059,-0.25128606,0.348042995
86766.782514,0.472640308,0.841411661,0.522535097,0.3276335,-0.257700801,0.317297071
86766.792542,0.415748501,0.651310676,0.658220163,0.306650192,-0.202533424,0.274829239
86766.802569,0.352072293,0.603648359,0.278595408,0.358532578,-0.139027148,0.234728962
86766.812596,0.223817815,0.652804568,0.134881933,0.331753701,-0.100772448,0.215991765
86766.822623,0.390626334,0.663980626,0.299475114,0.220754474,-0.064508982,0.191914394
86766.832650,0.301514657,0.572476318,0.06261983,0.157550201,-0.0275048893,0.164349616
86766.842677,0.251228385,0.318750381,0.0556020602,0.165275499,0.0476998501,0.153631717
86766.852704,0.149860307,0.0854978707,0.227601133,0.238745987,0.144642115,0.156576902
86766.862732,-0.0112828799,0.0526350271,0.0141465988,0.250561088,0.147626191,0.145680845
86766.872759,0.00368833312,0.0854155627,-0.318549232,0.247752532,0.106544256,0.160747677
86766.882786,-0.0338948169,-0.146968713,-0.171335056,0.308902442,0.104708806,0.189241379
86766.892813,-0.157454853,-0.242032942,-0.0918967779,0.404871434,0.118478075,0.210607618
86766.902840,-0.348179231,-0.17279943,-0.0452069229,0.385987222,0.0873459876,0.17794475
86766.912867,-0.332015594,-0.0524056388,-0.0248766671,0.319117367,0.0423225872,0.143757224
86766.922895,-0.281281578,-0.240630912,-0.0186532625,0.295550257,0.0355270021,0.127636299
86766.932922,-0.422552481,-0.16559538,-0.0387824429,0.295200586,0.0445436649,0.0935363844
86766.942949,-0.606245646,0.0837328338,-0.0999012207,0.269707203,0.0512742735,0.0357977226
86766.952976,-0.718050655,0.218881601,-0.0235953951,0.245248467,0.0810878202,-0.0091820024
86766.963003,-0.514922138,0.235764895,0.180706111,0.216055155,0.117197625,-0.0307522733
86766.973030,-0.438697122,0.163697748,0.0743061762,0.241620973,0.127483293,-0.052256234
86766.983057,-0.666746146,0.040864455,0.836680541,-0.419331372,-0.0714788139,-0.0470271185
86766.993085,-1.39222943,2.39475608,4.53376279,-0.216053382,-0.490518957,-0.184086964
86767.003112,0.17339608,-2.16477696,-2.02983234,0.6907897,-0.339324117,-0.114980072
86767.013139,-1.97775363,-1.19337567,-0.0677303049,0.0835759491,-0.394735724,-0.303503633
86767.023166,-1.03031292,0.374744144,0.474962614,-0.0325527899,-0.155530035,-0.371502131
86767.033193,0.0461396738,-0.760169987,-0.374729385,0.0666736662,0.0507735983,-0.290071458
86767.043220,-0.711688134,0.146616238,-0.604371669,0.311035484,0.334467351,-0.237717435
86767.053248,-0.310528569,0.0944843467,-0.206654207,0.455176681,0.720810533,-0.197513551
86767.063275,-0.33099838,0.0996056079,0.538797665,0.462010354,1.05759919,-0.221650049
86767.073302,-0.62751479,-0.181140265,0.830590992,0.453738838,1.25490189,-0.247050226
86767.083329,-0.754189597,-0.422932932,0.99652682,0.439495981,1.36010027,-0.27625525
86767.093356,-0.688864308,-0.46010341,1.58557232,0.405301005,1.53058887,-0.295989543
86767.103383,-0.351156932,-0.772794491,2.13367441,0.317168742,1.67934215,-0.22928293
86767.113410,-0.224028901,-0.77956888,1.55009126,0.156502604,1.68832529,-0.0982956365
86767.123438,-0.312395386,-0.442111534,0.413997565,-0.0140797719,1.49340343,0.0660799965
86767.133465,-0.463363069,-0.0920497035,-1.77229024,-0.00698697474,0.968158841,0.222673342
86767.143492,-0.901487944,0.141677987,-3.51235229,0.0963905454,0.303337127,0.286535144
86767.153519,-0.765685682,-0.0787440856,-2.60565538,0.159278154,-0.194438815,0.328583807
86767.163546,-0.394395989,-0.6245688,-1.41574533,0.279998213,-0.447617829,0.378666937
86767.173573,-0.425134315,-0.689265947,-0.282079743,0.40833354,-0.45933041,0.424880773
86767.183600,-0.612289164,-0.191310142,0.83864395,0.367333651,-0.311926305,0.476642758
86767.193628,-1.00265926,0.347417965,1.30425772,0.221855253,-0.205414504,0.515305221
86767.203655,-1.25913833,0.588737608,1.3228537,0.113247022,-0.223441973,0.511291564
86767.213682,-1.23661977,0.514223123,1.45917882,0.00996777415,-0.235587582,0.522337258
86767.223709,-0.850438141,0.136103913,1.23497785,0.0592855215,-0.244369894,0.507507205
86767.233736,-0.946866644,0.633318654,1.53305712,0.344294906,-0.0468618833,0.284687161
86767.243763,-0.657281786,0.973550579,3.11036665,0.246499881,0.268850267,0.0533165261
86767.253791,-0.770025391,0.722259066,2.81530935,0.160287499,0.556853294,-0.0180836171
86767.263818,-0.865126007,0.484201165,2.50958745,0.0495553985,0.711335301,0.00626379997
86767.273845,-0.780023054,0.382300003,2.05968738,-0.0857435688,0.738915265,0.0272172838
86767.283872,-0.54202839,0.52240716,1.29259943,-0.144925669,0.667235494,0.0397863388
86767.293899,-0.350386678,0.396013325,0.832149328,-0.140084311,0.534753621,0.0535154641
86767.303926,-0.353924789,0.13411526,0.744175861,-0.110575683,0.403316736,0.0693061501
86767.313953,-0.503618434,-0.0768591121,0.794777921,-0.110939205,0.288287878,0.0909312814
86767.323981,-0.770901517,-0.317612025,0.872369694,-0.148224264,0.178888962,0.124852233
86767.334008,-0.990631551,-0.416966535,0.676248572,-0.140824407,0.0821458995,0.16275914
86767.344035,-1.0310763,-0.478313641,0.357273808,-0.105731398,-0.000181197189,0.195364758
86767.354062,-0.694474403,-0.624838849,0.15950258,-0.0198010411,-0.108303405,0.212551191
86767.364089,-0.313239107,-0.608552352,0.233528185,0.098507762,-0.218413919,0.219629884
86767.374116,-0.335398733,-0.230387294,0.512853661,0.164956555,-0.279744953,0.174308464
86767.384144,-0.608705241,0.153408866,1.13825643,0.136346206,-0.277627736,0.103351995
86767.394171,-0.71788012,0.208151058,1.64372758,0.0725382119,-0.19049494,0.0647297725
86767.404198,-0.686887528,0.0608358327,1.89337688,-0.00519573269,-0.0616576038,0.0454511493
86767.414225,-0.51815732,-0.130998772,1.90511641,-0.0840082541,0.0759180933,0.037139155
86767.424252,-0.177602154,-0.368962967,1.37768127,-0.0804212466,0.193128616,0.0316051096
86767.434279,-0.015560338,-0.531991309,0.750889094,-0.0200777426,0.254271328,0.0135736447
86767.444306,0.0266559517,-0.636850043,0.211878664,0.0417339578,0.262136966,-0.0215031169
86767.454334,0.0308701719,-0.548605686,-0.273833308,0.108354263,0.204903245,-0.0736496747
86767.464361,0.0353238999,-0.329887678,-0.62784373,0.150217012,0.106692784,-0.107056372
86767.474388,0.119957665,-0.27940508,-0.726702163,0.188885584,0.0181653183,-0.114762492
86767.484415,0.247416973,-0.392137835,-0.762335202,0.294945985,-0.069503285,-0.101220049
86767.494442,0.417504002,-0.644167818,-0.69281626,0.405376613,-0.166448995,-0.089860335
86767.504469,0.571792537,-0.488775049,-0.540014639,0.533478916,-0.259572834,-0.126064405
86767.514497,0.559719749,-0.017817725,-0.412303621,0.656094015,-0.31406644,-0.18295832
86767.524524,0.611955109,0.180993477,-0.0191401693,0.717998683,-0.323527038,-0.228267476
86767.534551,0.356200333,0.152833404,0.451304675,0.735453069,-0.31167224,-0.262415856
86767.544578,-0.0830854027,0.0340533685,0.887156929,0.68537575,-0.26529941,-0.2577793
86767.554605,-0.477269649,-0.23480953,1.26129419,0.597176671,-0.175888032,-0.196351349
86767.564632,-0.640822527,-0.487772046,1.52752462,0.436820835,-0.0748519748,-0.0957259536
86767.574659,-0.667763287,-0.639939679,1.71779644,0.290859103,0.0225787088,0.0319896713
86767.584687,-0.737809687,-0.553565903,1.55828275,0.217841864,0.114424475,0.164114684
86767.594714,-0.806734681,-0.168306064,1.21822837,0.123871975,0.161043391,0.22433649
86767.604741,-0.860821368,0.429583695,0.667697017,0.0746809915,0.154697865,0.183202356
86767.614768,-0.796275977,1.06868356,0.253346985,-0.0353930481,0.0947943181,0.0576236621
86767.624795,-0.362342051,1.32870506,0.419849214,-0.0670931861,0.053791225,-0.0571029261
86767.634822,-0.389304876,1.26362293,-0.182751938,-0.0159328002,0.0513509698,-0.248901099
86767.644850,-0.781639914,1.42372391,0.0158107326,-0.0181629304,0.133863434,-0.508817673
86767.654877,-0.863492487,1.23948101,0.17757775,-0.00389797427,0.274448752,-0.719584227
86767.664904,-0.613515783,0.625383258,-0.0120487497,-0.0141458176,0.429821312,-0.840777755
86767.674931,-0.309224464,0.0373121511,-0.321543153,-0.073459208,0.568260968,-0.87681216
86767.684958,-0.0979679145,-0.557546058,-0.83855861,-0.104530312,0.653953254,-0.856520236
86767.694985,-0.0194582588,-0.894710632,-1.57261231,-0.102302045,0.674637496,-0.802031159
86767.705013,-0.0074948858,-0.898422858,-2.30326233,-0.0360812098,0.665156603,-0.752207637
86767.715040,-0.0197926236,-0.857710031,-2.73923383,0.047211282,0.659115493,-0.700946093
86767.725067,0.0689364658,-1.05337099,-2.34470201,0.00723430514,0.602142215,-0.632914841
86767.735094,0.214022763,-1.34218764,-2.14614927,-0.0373813659,0.481366247,-0.554156899
86767.745121,0.325026173,-1.30379726,-2.35078805,-0.0366239622,0.355502337,-0.468713105
86767.755148,0.383348818,-0.998379389,-2.53549638,-0.000236660417,0.243858367,-0.349299371
86767.765176,0.0131873344,-0.932132601,-2.3710242,0.0682433322,0.11513634,-0.253018618
86767.775203,-0.187196935,-1.18636981,-2.33706055,0.108962268,0.00487321615,-0.162206963
86767.785230,-0.163894568,-0.892576251,-1.84366387,0.0671804622,-0.0816707313,-0.0211779438
86767.795257,-0.297835822,-0.537710893,-1.51983641,-0.00192936556,-0.164444163,0.156694055
86767.805284,-0.304134594,-0.414111839,-1.15484048,-0.127910212,-0.228125945,0.327739298
86767.815311,-0.300679868,-0.254985692,-0.970057915,-0.189792484,-0.247043446,0.450332612
86767.825338,-0.440489924,-0.0835377496,-1.03000239,-0.166595548,-0.214487359,0.462774098
86767.835366,-0.664212097,0.110938894,-1.10024497,-0.0752962604,-0.182047397,0.361097246
86767.845393,-0.810733541,0.279253945,-1.13929688,0.0378249697,-0.178038001,0.216867387
86767.855420,-0.60263805,0.311481924,-0.973044822,0.101211667,-0.198485225,0.125813901
86767.865447,-0.313503822,0.27836043,-0.64652388,0.110275201,-0.247640789,0.102604181
86767.875474,-0.102848563,0.22998211,-0.25865269,0.0648275614,-0.285850763,0.139122516
86767.885501,0.0716418523,0.202598429,0.0875058495,0.0242905207,-0.26185143,0.198812217
86767.895529,0.0534335206,0.2621474,0.29534722,-0.0113959368,-0.205209851,0.208924979
86767.905556,0.0457464001,0.473224538,0.456197708,-0.0364240594,-0.134838223,0.147082657
86767.915583,0.0075035075,0.746828494,0.448065839,-0.025120005,-0.0734086856,0.0441115275
86767.925610,0.142799574,0.566990105,0.555540125,-0.0233391486,-0.0253961515,-0.0470234379
86767.935637,0.24184374,0.238696163,0.808836841,-0.038994275,0.00170710392,-0.117074698
86767.945664,0.141696728,0.0282216667,1.00576343,-0.0217540357,0.000329717062,-0.184962928
86767.955692,0.176200105,-0.0829977975,1.08781511,0.0133363074,0.00540570216,-0.256959647
86767.965719,0.207298752,0.00124152449,1.14001818,0.0615704134,0.00838631205,-0.347010165
86767.975746,0.334359819,0.0158810214,1.23837217,0.0989374965,0.0306359585,-0.42749542
86767.985773,0.566565962,-0.0836832955,1.30149936,0.0956940278,0.0846656412,-0.468301177
86767.995800,0.744560038,-0.237898802,1.336196,0.0448700003,0.147232085,-0.467217535
86768.005827,0.867725668,-0.387103567,1.18876438,0.00984943006,0.187935829,-0.411980391
86768.015855,1.09019601,-0.56340779,0.969830536,-0.0205641352,0.209564701,-0.282896966
86768.025882,1.3776443,-0.733443162,0.849162422,-0.0774402022,0.205402449,-0.100027531
86768.035909,1.40579838,-0.82216774,0.674081165,-0.134543702,0.192554817,0.0943549946
86768.045936,1.08943672,-0.800262928,0.387488913,-0.153248414,0.189260229,0.249436453
86768.055963,0.610547069,-0.642999432,0.128773679,-0.161842704,0.160014182,0.345118225
86768.065990,0.225412026,-0.375411229,0.0387175609,-0.177676797,0.125566989,0.39848876
86768.076018,-0.0235842161,-0.0776039026,0.0366062679,-0.178545251,0.0861514136,0.433926672
86768.086045,-0.20011569,0.240171423,0.181071437,-0.198376477,0.0390917584,0.447648853
86768.096072,-0.316563392,0.554795956,0.266072026,-0.223811269,-0.0116494475,0.442471683
86768.106099,-0.263096116,0.78162932,0.136326287,-0.18710278,-0.0616481639,0.433280587
86768.116126,-0.00409223775,1.00341322,0.0161620302,-0.158141166,-0.112487912,0.398069859
86768.126153,0.0693500699,1.05506369,0.0441173741,-0.136077687,-0.147414997,0.335318327
86768.136181,-0.0655924709,1.01642351,0.116097153,-0.107193835,-0.155634314,0.255329221
86768.146208,-0.416827382,0.971146222,0.275191152,-0.0912420303,-0.135789499,0.152779162
86768.156235,-0.767646533,0.940543286,0.185142632,-0.0669478774,-0.102758318,0.0256350506
86768.166262,-0.937947424,0.752693514,0.121819038,-0.137799144,-0.0628716201,-0.139999986
86768.176289,-1.00832868,0.675595953,-0.0219914671,-0.0873064101,-0.0549087711,-0.289324254
86768.186316,-0.922920901,0.485195254,-0.119732879,-0.0417205542,-0.0647664592,-0.380530834
86768.196344,-0.706309802,0.267338539,0.0792658444,-0.0493806042,-0.0811438337,-0.432614833
86768.206371,-0.509004657,0.0856355256,0.174380415,-0.0449096896,-0.0907274857,-0.436591983
86768.216398,-0.369065843,-0.135610978,0.221771697,-0.0593999475,-0.0828815475,-0.428091437
86768.226425,-0.330492403,-0.334623877,0.246883342,-0.0799076185,-0.0886685923,-0.414262176
86768.236452,-0.280638732,-0.485382155,0.0770230339,-0.073711507,-0.103907734,-0.390264958
86768.246479,-0.0814625325,-0.766451113,-0.149299166,-0.0475872308,-0.131030172,-0.343593061
86768.256507,0.182556379,-1.11363761,-0.377647902,-0.040437974,-0.157240197,-0.268463969
86768.266534,0.320251835,-1.2910031,-0.567012536,-0.00721583981,-0.186331242,-0.177290097
86768.276561,0.360933682,-1.34321304,-0.640470571,0.0231170319,-0.206325457,-0.0776702985
86768.286588,0.387122235,-1.36895743,-0.57724167,0.0314452685,-0.222189099,0.0402869657
86768.296615,0.202540634,-1.30257108,-0.500606174,0.0382006429,-0.263700068,0.142411202
86768.306642,-0.0204930817,-1.0317314,-0.436202383,0.0434097871,-0.291021705,0.218921959
86768.316670,-0.0495371707,-0.789392282,-0.353075187,0.0235370137,-0.311567456,0.295883566
86768.326697,-0.137693374,-0.558149869,-0.278838569,0.0123125883,-0.327847898,0.347676992
86768.336724,-0.306794643,-0.256785654,-0.224332487,0.0163840279,-0.326047868,0.357940286
86768.346751,-0.392064404,0.0316885391,-0.194616563,0.0255040247,-0.307760209,0.332736135
86768.356778,-0.379908103,0.184347171,-0.198360426,0.0382112972,-0.291561812,0.305241376
86768.366806,-0.304336875,0.383087025,-0.153255794,0.0469648428,-0.275237411,0.266405851
86768.376833,-0.246561781,0.507717686,0.0142430449,0.0200006012,-0.236008778,0.232469454
86768.386860,-0.202914947,0.656187123,0.239986568,-0.0462543182,-0.171942979,0.201111004
86768.396887,-0.25966384,0.933962665,0.333704131,-0.0858459398,-0.0883993506,0.123516873
86768.406914,-0.312151129,1.16765905,0.274223184,-0.132170022,0.0225117188,0.00323493592
86768.416941,-0.314904154,1.24289812,-0.00509703088,-0.142431989,0.141408548,-0.143973425
86768.426969,-0.309478256,1.14104511,-0.548998741,-0.113280758,0.231560007,-0.302541256
86768.436996,-0.327064986,0.91445622,-1.0493752,-0.076623939,0.264044166,-0.441394478
86768.447023,-0.298637859,0.627829116,-1.45628777,-0.0292116851,0.229494199,-0.523114622
86768.457050,-0.130678782,0.337413069,-1.70187757,0.0240651183,0.154301703,-0.536714554
86768.467077,0.052544682,0.067588193,-1.68783618,0.0824048594,0.0656115189,-0.4868927
86768.477105,0.251793252,-0.335811625,-1.39983757,0.141841292,-0.0204131119,-0.39458701
86768.487132,0.339365153,-0.752208872,-0.932448608,0.167779148,-0.0977534354,-0.281578183
86768.497159,0.222031809,-0.95931791,-0.577240501,0.166043296,-0.167370066,-0.156097189
86768.507186,0.14727124,-1.01884832,-0.240922972,0.135882199,-0.250594944,-0.0208717324
86768.517213,0.190202108,-1.01876861,0.0192763629,0.112354502,-0.324465424,0.112224802
86768.527240,0.152272336,-0.877685117,0.443728687,0.0870107934,-0.351433665,0.215405256
86768.537268,-0.0655142363,-0.661636913,0.685476419,0.102917321,-0.289344996,0.270621896
86768.547295,0.043610959,-0.625997152,0.681074969,0.127866879,-0.164233655,0.300189376
86768.557322,0.144285648,-0.428661904,0.421477107,0.122212194,-0.0118734194,0.282919288
86768.567349,-0.217218344,-0.0360473919,0.0418996981,0.109182142,0.15634729,0.213985249
86768.577376,-0.396926092,0.244977727,-0.588693038,0.101451516,0.274363399,0.13528645
86768.587404,-0.259051918,0.394914241,-1.25729489,0.0975177661,0.337826252,0.080469802
86768.597431,-0.331855362,0.448447605,-1.79411921,0.0935083777,0.315547049,0.0463424623
86768.607458,-0.458234036,0.466036965,-2.15559106,0.113968112,0.201099575,0.0445522815
86768.617485,-0.437491436,0.340214975,-2.31217395,0.140395194,0.0230339654,0.0891724825
86768.627512,-0.37756965,0.125813441,-2.23711316,0.168844149,-0.201445207,0.178159609
86768.637539,-0.180780492,0.0686929394,-1.81767428,0.19922176,-0.42894122,0.273304224
86768.647567,0.104172395,0.268977246,-1.29234575,0.207801133,-0.590453982,0.372212172
86768.657594,0.324295813,0.463099304,-0.583901712,0.186858565,-0.690272152,0.441568345
86768.667621,0.370734981,0.679122739,0.14925065,0.187414363,-0.72443068,0.425357401
86768.677648,0.183657362,0.995719157,0.604767974,0.219457522,-0.708263695,0.295293689
86768.687675,0.106762558,1.2485126,1.07612233,0.262661994,-0.666128993,0.1078218
86768.697703,0.263801232,1.33560417,1.46238024,0.318765193,-0.618184149,-0.0773701593
86768.707730,0.440597987,1.22385951,1.82038587,0.327923,-0.562170684,-0.207335353
86768.717757,0.570874984,1.0057687,2.18266377,0.284492433,-0.486399204,-0.266943306
86768.727784,0.641411286,0.827483601,2.33729962,0.225926071,-0.384609461,-0.261423618
86768.737811,0.700375882,0.724403312,2.38364753,0.125087336,-0.265110493,-0.209416077
86768.747839,0.628301264,0.639981473,2.25289992,0.00054035068,-0.144503102,-0.134117335
86768.757866,0.44569078,0.616447964,2.02529528,-0.126868472,-0.0168412793,-0.0625198409
86768.767893,0.19615181,0.69785367,1.66277539,-0.238493532,0.107412495,-0.0142223518
86768.777920,0.0359470733,0.840378008,1.21669868,-0.340606868,0.226169512,0.0129370987
86768.787947,-0.215782028,0.946054962,0.723964847,-0.410165697,0.33728829,0.00464215036
86768.797975,-0.621213352,1.11082211,0.197402394,-0.431007057,0.439709455,-0.0613850653
86768.808002,-0.957969564,1.31369614,-0.454466938,-0.393237054,0.502828002,-0.195872039
86768.818029,-1.08555973,1.43454297,-1.02217155,-0.323634803,0.503064752,-0.354976207
86768.828056,-0.980360625,1.41766724,-1.42212831,-0.255791843,0.441165417,-0.455410421
86768.838083,-0.555533769,1.11250393,-1.43509418,-0.241295174,0.339856654,-0.447005481
86768.848110,-0.0129212217,0.608718246,-1.03257136,-0.258556187,0.255091697,-0.312079608
86768.858138,0.449430332,0.328322877,-0.453661467,-0.295534462,0.217208236,-0.0930231512
86768.868165,0.644924482,0.380205916,0.0641898558,-0.385752767,0.196715206,0.125668705
86768.878192,0.556739564,0.587271408,0.474892471,-0.47531274,0.194795072,0.293687791
86768.888219,0.0521430789,0.821562102,0.500233833,-0.532322228,0.217224747,0.361896127
86768.898246,-0.403431309,1.00332181,0.210481656,-0.539931238,0.194777235,0.303629011
86768.908274,-0.637779798,1.28093793,-0.0834293938,-0.465345651,0.169471338,0.137072012
86768.918301,-0.596216346,1.05505149,-0.318507147,-0.341132879,0.107464425,-0.0576839
86768.928328,-0.182102899,0.547715861,-0.55124915,-0.1926108,0.00209086784,-0.216069803
86768.938355,0.319769714,0.234523699,-0.498573791,-0.0702979267,-0.127226368,-0.320863336
86768.948382,0.61901723,0.0672442384,-0.235550631,0.0125018768,-0.243493065,-0.349240661
86768.958410,0.829014829,-0.324528745,0.107350952,0.018730212,-0.352642745,-0.279065549
86768.968437,1.02720713,-0.84222137,0.356352016,-0.00349546527,-0.426306576,-0.111480549
86768.978464,1.25063777,-1.40706957,0.510236172,-0.0700001866,-0.482483298,0.120858416
86768.988491,1.0934621,-1.81361126,0.798565622,-0.114566058,-0.497991681,0.348434836
86768.998518,0.529402645,-1.75755532,0.90959614,-0.109476492,-0.471438885,0.488315523
86769.008546,-0.0506101702,-1.43437507,0.948155295,-0.0619571768,-0.40597707,0.523635983
86769.018573,-0.302116568,-1.25406395,0.954434814,-0.0297020357,-0.314694285,0.473933101
86769.028600,-0.470372436,-1.02379243,0.963182184,-0.00761297904,-0.213235021,0.382745415
86769.038627,-0.610655206,-0.663722706,1.01253687,-0.00243952172,-0.108173855,0.265812397
86769.048654,-0.493456302,-0.305110161,0.872388399,-0.00397270359,-0.0139762489,0.148375005
86769.058682,-0.169312757,-0.127500298,0.643613546,0.00491746049,0.0388182551,0.0255843606
86769.068709,-0.0104345925,-0.103177064,0.46152504,0.0047797747,0.0707237273,-0.0915366709
86769.078736,-0.0681765143,-0.107462559,0.395912458,0.00429268274,0.100653127,-0.185731873
86769.088763,-0.363538786,-0.288630552,0.286480023,0.0255633499,0.140003994,-0.267556727
86769.098791,-0.695032183,-0.599393296,0.174731128,0.0517550074,0.155453533,-0.341139585
86769.108818,-0.834229495,-0.718791244,-0.033512978,0.0905167833,0.123750724,-0.394902408
86769.118845,-0.821272836,-0.665974284,-0.2336749,0.133019224,0.062887907,-0.426006287
86769.128872,-0.683785982,-0.59591002,-0.513076364,0.206039116,0.00654580351,-0.428264648
86769.138899,-0.321821167,-0.609587467,-0.594499678,0.25386098,-0.0302492268,-0.423735648
86769.148927,-0.159402188,-0.460654687,-0.436041055,0.299157888,-0.0435980558,-0.439777225
86769.158954,-0.317112258,-0.133955977,-0.247908008,0.343400717,-0.0362703688,-0.47966817
86769.168981,-0.304718787,0.059249696,0.0673000968,0.359785289,-0.00806722697,-0.504034758
86769.179008,-0.156213913,0.0752223412,0.135419693,0.361544043,0.0454961322,-0.466079921
86769.189035,-0.0816371767,0.0412681222,-0.00478840332,0.336678088,0.0823753178,-0.384519815
86769.199063,-0.112699547,0.189131994,-0.0949362918,0.290893018,0.116504259,-0.312638432
86769.209090,-0.423759665,0.480222726,-0.236908475,0.248359665,0.144866392,-0.304146141
86769.219117,-0.724305039,0.494344118,-0.342480143,0.206383452,0.155846879,-0.344500244
86769.229144,-0.67767539,0.253981483,-0.558819878,0.204028428,0.15114373,-0.366554409
86769.239172,-0.370261299,-0.113162634,-0.773140674,0.197853893,0.119093388,-0.332371384
86769.249199,-0.117725339,-0.394206019,-0.814154237,0.164506584,0.0447563082,-0.244367763
86769.259226,0.194882009,-0.523447901,-0.71727441,0.102292217,-0.0270752721,-0.090496704
86769.269253,0.525366375,-0.642134413,-0.564178774,0.0238360241,-0.096368596,0.0916483328
86769.279280,0.632093131,-0.605059066,-0.411799763,-0.0537098981,-0.156877741,0.260442942
86769.289308,0.763316541,-0.474668161,-0.27822599,-0.0885400474,-0.186417788,0.379780501
86769.299335,0.902457447,-0.366228098,-0.234976046,-0.0925600901,-0.170305401,0.437165767
86769.309362,0.89538086,-0.22754838,-0.174452312,-0.0527503602,-0.133000642,0.443295568
86769.319389,0.765659159,-0.0233832137,-0.0919616599,-0.0374164134,-0.0951059908,0.410622835
86769.329416,0.567493744,0.180128311,-0.0802507638,-0.0468458682,-0.0751309469,0.368867397
86769.339444,0.439875007,0.366206033,-0.277280818,-0.0521359704,-0.0780748054,0.33496058
86769.349471,0.39293125,0.541804738,-0.418739791,-0.0611329265,-0.0976639539,0.281918943
86769.359498,0.249301728,0.819026738,-0.537881135,-0.0492064916,-0.128325999,0.188946933
86769.369525,0.0693117289,1.21123099,-0.736837188,-0.0279744435,-0.17957826,0.0599676371
86769.379553,0.109526908,1.27730103,-0.704541185,-0.01690102,-0.244581237,-0.0921199024
86769.389580,0.203776752,1.0442778,-0.499562218,0.0115199694,-0.292526126,-0.217490599
86769.399607,0.385037136,0.776239151,-0.181629071,0.0194620471,-0.309447855,-0.291500121
86769.409634,0.591252513,0.525209869,0.143432904,-0.0049285125,-0.298741162,-0.313966274
86769.419661,0.751750387,0.353291021,0.373988795,-0.0538017787,-0.266586959,-0.302877963
86769.429689,0.948693055,0.23754122,0.38703474,-0.0834869668,-0.21245791,-0.278096706
86769.439716,1.18327499,0.162016024,0.251012404,-0.0845208094,-0.148827001,-0.272630572
86769.449743,1.31019164,0.195669287,0.096438513,-0.0763880461,-0.115491956,-0.317427069
86769.459770,1.39510674,0.320720147,-0.070803721,-0.0621792823,-0.101221405,-0.377050191
86769.469798,1.59239618,0.312499942,-0.120256611,-0.066544205,-0.105496846,-0.40864858
86769.479825,1.68377697,0.0556421,-0.132853058,-0.0680046827,-0.137481943,-0.410095483
86769.489852,1.70810696,-0.203063562,0.0216454301,-0.0593254417,-0.17378588,-0.397702187
86769.499879,1.85557365,-0.438255443,0.289347688,-0.063825652,-0.182086691,-0.335798889
86769.509907,1.91958859,-0.703272115,0.46782794,-0.0690435842,-0.163205147,-0.227250814
86769.519934,1.70830833,-0.883576221,0.566388267,-0.0780157745,-0.147482648,-0.121430926
86769.529961,1.44583974,-0.775381,0.582690583,-0.0822083876,-0.135939702,-0.0361269414
86769.539988,1.23963707,-0.643129488,0.547241084,-0.0997098833,-0.135214522,0.0265100747
86769.550015,1.08174675,-0.553363001,0.517511131,-0.105116099,-0.140431121,0.0802555904
86769.560043,1.06800698,-0.390817692,0.519263528,-0.12202131,-0.15194957,0.113443904
86769.570070,0.956076005,-0.150889577,0.571801524,-0.116713367,-0.155170918,0.117686056
86769.580097,0.832438958,-0.060781874,0.721072633,-0.115044892,-0.152368739,0.103292465
86769.590124,0.835114169,-0.0537250874,0.960691536,-0.111035243,-0.127656206,0.0770086646
86769.600152,0.829022866,-0.0282199131,1.1736089,-0.126997709,-0.061974667,0.0603226349
86769.610179,0.577803249,0.0604839871,1.35765789,-0.154486582,0.0283975732,0.0249207001
86769.620206,0.265477275,0.165824915,1.25811732,-0.17419903,0.13641192,-0.0237927753
86769.630233,0.0879547623,0.127523606,0.961790437,-0.184622377,0.209085867,-0.0857102051
86769.640261,-0.0444976056,0.0814985719,0.437957702,-0.159682676,0.229172215,-0.1718584
86769.650288,-0.0606356705,0.0560291265,-0.0695639501,-0.0991985574,0.217357367,-0.261520922
86769.660315,-0.123942168,-0.0975637907,-0.396594595,-0.0498099662,0.162714109,-0.328022718
86769.670342,-0.316101547,-0.193019211,-0.545341387,-0.0269392729,0.0780303702,-0.352558941
86769.680369,-0.329957346,-0.313977248,-0.562345129,-0.0246936958,-0.00671354262,-0.318839073
86769.690397,-0.176286687,-0.570290097,-0.393014398,-0.0322301723,-0.0681734383,-0.244289711
86769.700424,-0.10068258,-0.742396503,-0.180940505,-0.0420404598,-0.109049238,-0.165263087
86769.710451,-0.0603980623,-0.778495625,-0.0883171659,-0.0320594646,-0.134447277,-0.110355102
86769.720478,-0.0462318821,-0.74112283,0.014447043,-0.0519082695,-0.137851059,-0.0796893314
86769.730506,-0.166695122,-0.588047726,0.0929571006,-0.0797271207,-0.137105644,-0.0615545362
86769.740533,-0.24300197,-0.403829369,0.0977472575,-0.0999636799,-0.149015829,-0.0723794922
86769.750560,-0.184213389,-0.234272209,0.0903746829,-0.103186905,-0.145378217,-0.104447946
86769.760587,-0.0803705908,-0.206285556,0.14491759,-0.0855842084,-0.128089771,-0.173657894
86769.770615,-0.112443307,-0.211016457,0.177972887,-0.0326546803,-0.103956208,-0.265256017
86769.780642,-0.0498379437,-0.29923177,0.255572259,-0.00211035507,-0.0759104565,-0.341022938
86769.790669,-0.0116688105,-0.391737949,0.353078694,0.00926666893,-0.0481579229,-0.38807568
86769.800696,0.0503548072,-0.550294041,0.36191082,-0.0135880467,-0.0347001702,-0.400267363
86769.810724,0.143250533,-0.623555896,0.247334592,-0.0261555053,-0.0174974799,-0.382544279
86769.820751,0.303922595,-0.606785963,0.0501630841,-0.0154045885,0.00531915156,-0.340359807
86769.830778,0.376402871,-0.560520033,-0.0544108046,-0.00612080935,0.00561502855,-0.296759874
86769.840805,0.352907429,-0.553054592,-0.17131226,0.0173797216,-0.0038565034,-0.251935154
86769.850833,0.283142988,-0.626948169,-0.139009827,0.0214538258,-0.0198959243,-0.205735415
86769.860860,0.199387285,-0.660193144,-0.0789542942,0.0333275311,-0.0267732702,-0.145382851
86769.870887,0.0850000042,-0.674699589,0.0535457122,0.00838276558,-0.0243436694,-0.0889267772
86769.880914,-0.104782125,-0.656965998,0.178811091,-0.00660683587,-0.010696033,-0.0399786681
86769.890942,-0.167119046,-0.638477717,0.118272159,-0.00326510193,0.0159960315,0.00838966109
86769.900969,-0.198697987,-0.633618514,0.103799982,-0.0388972573,0.00467838813,0.0399119332
86769.910996,-0.336070568,-0.480064905,-0.0519219104,-0.0409726575,-0.0375151373,0.0534298718
86769.921023,-0.264716812,-0.371375617,-0.248533447,-0.0158561189,-0.0626615062,0.0490481742
86769.931051,-0.124589818,-0.214539553,-0.290343713,0.0171409789,-0.0602241792,0.0208154712
86769.941078,-0.256568869,-0.0078133041,-0.13155425,0.0558707975,-0.0201369468,-0.0619675629
86769.951105,-0.393320103,0.0626592122,0.0948176338,0.0947292447,0.0466021374,-0.182019129
86769.961132,-0.485073089,0.0776830322,0.426466002,0.0958618894,0.096983552,-0.309209824
86769.971160,-0.488131015,0.0792887138,0.49502399,0.0943105966,0.086112529,-0.401340544
86769.981187,-0.119835171,-0.074753993,0.26544951,0.0998638198,0.0838629529,-0.409519643
86769.991214,0.169844233,-0.420337363,0.175221542,0.123042643,0.078579776,-0.366423309
86770.001241,0.133114485,-0.650229384,0.0679231971,0.141631782,0.0305443406,-0.322247326
86770.011269,0.00865457723,-0.650401598,0.100923549,0.120023683,-0.0288870279,-0.270772427
86770.021296,0.0543143585,-0.67014609,0.153787709,0.0715927705,-0.0853111595,-0.197528318
86770.031323,0.0616335955,-0.757431283,0.249400877,0.0543195046,-0.0896704867,-0.106562458
86770.041350,0.0215399239,-0.920847163,0.516108863,0.0267147757,-0.0383990407,-0.0314227007
86770.051378,-0.17699542,-1.06077016,0.762460874,-0.000467842299,0.0425224379,0.0186109059
86770.061405,-0.420079516,-1.16276324,0.811778155,0.0111030601,0.129719123,0.0690562353
86770.071432,-0.281518748,-1.39715169,0.397028895,0.00819329079,0.156304136,0.156452119
86770.081460,-0.378187416,-1.35559657,0.28571956,-0.0159711689,0.171460718,0.240361139
86770.091487,-0.432625547,-1.25024439,0.0566541996,-0.0229348019,0.164691761,0.342967689
86770.101514,-0.120986825,-0.946785249,-0.22011107,-0.0514980033,0.14161706,0.472521424
86770.111541,-0.0147350662,-0.575555762,-0.312197233,-0.12105418,0.0969140455,0.593560994
86770.121569,-0.29471769,-0.338439489,-0.309381591,-0.166112453,0.0691167638,0.664329171
86770.131596,-0.391052012,-0.268253973,-0.508390252,-0.169497862,0.0905392319,0.689067543
86770.141623,-0.395352486,-0.20544242,-0.711917266,-0.137310371,0.115319416,0.676164508
86770.151650,-0.419393725,-0.156252857,-0.863624078,-0.112679869,0.112948403,0.64497596
86770.161678,-0.508786704,-0.0966392963,-0.97569972,-0.0522772446,0.109969392,0.595960796
86770.171705,-0.59867711,-0.102528427,-1.15433136,0.0308786295,0.0783384964,0.565052152
86770.181732,-0.604027531,-0.180867001,-1.22258598,0.0699456036,0.00608480349,0.572012544
86770.191759,-0.761453012,-0.181596411,-1.14756669,0.093737483,-0.0991710424,0.579747736
86770.201787,-0.922076267,-0.0289569952,-1.02554015,0.0993138775,-0.212045133,0.594090939
86770.211814,-0.836209417,0.151141579,-0.819774999,0.0661215708,-0.325250238,0.605203509
86770.221841,-0.765069742,0.335075127,-0.641549599,0.0721187443,-0.438333392,0.591460586
86770.231869,-0.621940935,0.465366299,-0.413672571,0.0853141695,-0.524690926,0.55506742
86770.241896,-0.375581618,0.503053932,-0.185864517,0.0913789868,-0.589439273,0.517381012
86770.251923,-0.434583257,0.788217247,-0.0138508307,0.0486496352,-0.611663342,0.416428864
86770.261950,-0.512865936,1.10235407,0.441315196,0.0195399541,-0.549379766,0.277202249
86770.271978,-0.196571643,0.984542514,0.730960405,-0.0253857095,-0.42298454,0.141312048
86770.282005,0.305163681,0.824243815,0.680641254,-0.0429950617,-0.260228097,0.0110698994
86770.292032,0.307894567,0.838124603,0.590234422,-0.0673880205,-0.0972437188,-0.152941406
86770.302059,0.108243663,0.899667597,0.424822911,-0.0701704919,0.0390004106,-0.316303968
86770.312087,0.334191769,0.697229254,-0.125163672,-0.0456379838,0.142130792,-0.396385223
86770.322114,0.550822011,0.390963055,-0.550254294,-0.0497216769,0.193685055,-0.396170288
86770.332141,0.386527082,0.197706419,-0.792722742,-0.0482369624,0.20417951,-0.330845088
86770.342169,0.239697376,-0.00572309035,-1.03395317,-0.0542615652,0.184635371,-0.217903897
86770.352196,0.122844289,-0.28955786,-1.16829793,-0.0691331923,0.13910304,-0.0715514719
86770.362223,0.0836813228,-0.445971826,-1.25606038,-0.0885657445,0.0765845329,0.086423777
86770.372250,0.0467830862,-0.455873006,-1.28666244,-0.117115892,0.00237502018,0.23171252
86770.382278,0.0989852749,-0.40426692,-1.23089029,-0.143891573,-0.0815670192,0.359917104
86770.392305,0.253649913,-0.256443782,-1.14929454,-0.135738045,-0.157365113,0.459071934
86770.402332,0.456666494,-0.0905737492,-0.896246244,-0.12089812,-0.189354196,0.518950939
86770.412359,0.701349695,0.06372633,-0.564368744,-0.0915828422,-0.175756097,0.565534949
86770.422387,0.929726635,0.272321113,-0.187916189,-0.10149619,-0.130814463,0.593375087
86770.432414,0.934466085,0.603473989,0.0935842926,-0.116155557,-0.0747104436,0.583039403
86770.442441,1.01189463,0.850553145,0.182752522,-0.113660447,-0.0351694264,0.563908815
86770.452469,1.37027771,0.915304288,0.189168819,-0.130524367,-0.00849094335,0.578032076
86770.462496,1.64143698,0.765085816,0.131771108,-0.139250487,0.00326558133,0.608704507
86770.472523,1.36819083,0.757582016,0.200967394,-0.142022833,0.01222046,0.593542099
86770.482551,0.839445038,0.662050097,0.254921687,-0.137210771,0.0241173338,0.534188211
86770.492578,0.604323738,0.578591184,0.238818693,-0.108903237,0.0356589407,0.457636207
86770.502605,0.391870343,0.741569477,0.186361361,-0.0510886759,0.0422382802,0.359544545
86770.512632,0.160084033,0.997679278,0.172880532,-0.0189999826,0.0463169105,0.251922995
86770.522660,0.0261541397,1.1285622,0.308204948,-0.0333951674,0.0305107851,0.140802324
86770.532687,-0.0499807132,1.26890394,0.365326181,-0.0263431165,0.00544910692,0.0352114551
86770.542714,-0.0293019362,1.34059496,0.420197004,-0.015478217,0.00429888768,-0.0501569733
86770.552742,0.0425887033,1.17173594,0.552039424,-0.0154148331,0.00876101386,-0.0968246087
86770.562769,0.0317814781,0.971768884,0.696856475,-0.0381726101,0.0130356541,-0.117353313
86770.572796,-0.145945033,0.914503128,0.963196213,-0.0700277463,0.0373444557,-0.126577988
86770.582823,-0.322727249,0.778406047,1.19065998,-0.104060285,0.0713511556,-0.137449533
86770.592851,-0.447888875,0.643607408,1.32647423,-0.130659923,0.106326982,-0.157162249
86770.602878,-0.49984498,0.564270544,1.26220196,-0.154585227,0.123400509,-0.17983374
86770.612905,-0.645691813,0.59614708,1.04674543,-0.182411805,0.11814183,-0.222077608
86770.622933,-0.815757142,0.534045794,0.775966837,-0.200962052,0.0891205668,-0.279382706
86770.632960,-0.63660542,0.146030811,0.45061377,-0.169805199,0.0283408407,-0.301383346
86770.642987,-0.31073169,-0.15840704,0.250520821,-0.122616924,-0.047767777,-0.278805315
86770.653014,-0.0454828173,-0.287373739,0.325786198,-0.0878253877,-0.131543905,-0.22563079
86770.663042,0.271881151,-0.309228446,0.519884875,-0.0706282854,-0.18909134,-0.158281043
86770.673069,0.380536902,-0.295005385,0.824443575,-0.0495680124,-0.221441835,-0.103269987
86770.683096,0.253565303,-0.258674025,1.14897948,-0.0456971079,-0.219526216,-0.0584274195
86770.693124,0.132366443,-0.214981306,1.39725808,-0.0727481619,-0.1637519,-0.0327529497
86770.703151,-0.0537663692,-0.176337486,1.58900522,-0.100312948,-0.0741043091,-0.0240084603
86770.713178,-0.23004575,-0.116035121,1.52801679,-0.12195459,0.0271647889,-0.0252332464
86770.723206,-0.196609052,-0.126481714,1.18394909,-0.106510922,0.104983151,-0.0273315534
86770.733233,-0.101169633,-0.221486267,0.824588537,-0.0848519653,0.125847697,-0.0417075604
86770.743260,-0.119543933,-0.233026227,0.522261541,-0.0660780147,0.118984722,-0.0539549105
86770.753287,-0.0844347715,-0.205797407,0.23944004,-0.039419502,0.12509349,-0.0628301576
86770.763315,-0.0516116754,-0.235818525,0.189538822,-0.0164079275,0.149091765,-0.0646211281
86770.773342,-0.0976505192,-0.2242371,0.220773333,-0.0101233991,0.185104087,-0.0406497531
86770.783369,-0.353914706,-0.205454823,0.267674785,-0.0121229002,0.231434032,-0.00907957647
86770.793397,-0.608254355,-0.152551089,0.318605931,-0.0111180898,0.273891479,-0.00522651523
86770.803424,-0.821978647,-0.0817261244,0.325438407,-0.00486791693,0.296103835,-0.0397543982
86770.813451,-1.03634284,-0.139277008,0.186860542,0.0327449702,0.289901882,-0.0853125602
86770.823479,-1.19797484,-0.37748599,0.0670078359,0.0851693004,0.244515747,-0.133397266
86770.833506,-1.24552321,-0.712312549,0.0883078135,0.139575824,0.187793076,-0.157508731
86770.843533,-1.11641708,-1.05719727,0.27993104,0.165628731,0.135942936,-0.128291458
86770.853560,-1.05414738,-1.29549106,0.600397504,0.15087907,0.104291528,-0.0529498309
86770.863588,-1.13312462,-1.51922529,0.926838367,0.123141177,0.120067567,0.0476111323
86770.873615,-1.22252359,-1.74459048,1.23540396,0.0940994099,0.204829052,0.144819975
86770.883642,-1.45564407,-1.95849247,1.44892572,0.0815697685,0.322097898,0.21842362
86770.893670,-1.78225649,-2.11792111,1.49553023,0.0523767285,0.438111305,0.26670593
86770.903697,-2.02329856,-2.27845186,1.14673199,0.0419205688,0.523076713,0.306541175
86770.913724,-1.89922209,-2.38545151,0.419680287,0.0566630326,0.539705753,0.365183175
86770.923752,-1.53061675,-2.18743406,-0.18210195,0.0438319221,0.501089931,0.456699789
86770.933779,-1.31156804,-1.6913797,-0.565385228,0.00584965106,0.417095125,0.569226861
86770.943806,-1.32954808,-1.18740076,-0.727732091,-0.0397157036,0.263675213,0.684064507
86770.953834,-1.28859268,-0.888213818,-0.796911425,-0.0309792031,0.0418570861,0.803063869
86770.963861,-1.14118167,-0.448743373,-0.515434325,0.00248208386,-0.179873705,0.881205797
86770.973888,-0.894572174,0.209767645,-0.0927139395,0.0964820832,-0.307434082,0.902059674
86770.983916,-0.436626453,1.03865265,0.465683913,0.159115106,-0.363252342,0.849227607
86770.993943,-0.246664292,2.09832779,1.00270755,0.151526153,-0.340638638,0.714299917
86771.003970,-0.30364144,3.14856106,1.49975516,0.0403168164,-0.237819567,0.498368382
86771.013998,-0.56472691,3.59513111,1.89294608,-0.0834621191,-0.0937782452,0.197436005
86771.024025,-1.11529056,3.37908393,1.70470958,-0.0838099271,0.074573487,-0.18810983
86771.034052,-1.76559396,2.70588451,1.27759709,-0.0503443778,0.189091817,-0.628543675
86771.044080,-2.15816091,1.98040108,0.691233375,0.0492032506,0.24575536,-1.03820252
86771.054107,-2.12574683,1.25419912,-0.0409855059,0.194417432,0.228097275,-1.3170259
86771.064134,-1.81649515,0.399245694,-0.490069582,0.312358171,0.113238059,-1.41962898
86771.074161,-1.313441,-0.291462817,-0.756149207,0.388103008,-0.0637974367,-1.32787538
86771.084189,-0.676512483,-0.770817345,-0.68814593,0.373306483,-0.250726581,-1.06451428
86771.094216,-0.00559036735,-1.13196858,-0.288641585,0.30390957,-0.394993484,-0.66177541
86771.104243,0.397159682,-1.31640759,0.189960846,0.165446773,-0.480034351,-0.208120286
86771.114271,0.449474829,-1.30576579,0.742704619,0.0121743921,-0.480063915,0.181698859
86771.124298,0.261034324,-0.967946549,1.16799982,-0.0927573517,-0.380735189,0.41716063
86771.134325,-0.272852042,-0.465833843,1.22025374,-0.120855562,-0.230413318,0.45724839
86771.144353,-0.644808016,-0.0668760992,0.804064804,-0.094932884,-0.115481406,0.331189245
86771.154380,-0.728066583,0.385018066,0.114614806,-0.0231859945,-0.0679751411,0.126067013
86771.164407,-0.93529406,0.858293238,-0.522191398,0.0343848914,-0.10395205,-0.0919774398
86771.174435,-0.934750016,1.07646706,-0.995738884,0.0706624687,-0.212323785,-0.245307878
86771.184462,-0.462393347,0.974774641,-1.29675246,0.0858944207,-0.364077389,-0.272465199
86771.194489,0.0419489441,0.6800636,-1.24021867,0.0438729338,-0.520276248,-0.168796584
86771.204517,0.335103915,0.287100055,-0.731742495,-0.00468528178,-0.622404516,9.73623246e-05
86771.214544,0.387999201,-0.0261686431,-0.156188341,-0.0564589947,-0.653353393,0.15107356
86771.224571,0.301167597,-0.137977269,0.488253473,-0.118467771,-0.599746346,0.259124398
86771.234599,0.161481917,0.0649799468,0.998009167,-0.190004811,-0.484683692,0.311262429
86771.244626,0.0153111125,0.488722478,1.39958798,-0.250125676,-0.34381631,0.262379825
86771.254653,-0.18970994,0.908800167,1.533364,-0.237259939,-0.192178577,0.11603941
86771.264681,-0.421855147,1.22163051,1.55471483,-0.236533687,-0.0420295559,-0.106863447
86771.274708,-0.618373014,1.31674399,1.3520909,-0.236171767,0.0865787491,-0.342512995
86771.284735,-0.743731332,1.1570111,0.966079659,-0.240139872,0.169461921,-0.545291424
86771.294763,-0.698171357,0.959822206,0.593158785,-0.238312423,0.225125983,-0.695640445
86771.304790,-0.659077218,0.766059776,0.226553086,-0.246716022,0.270876676,-0.780337989
86771.314817,-0.477936953,0.411661743,-0.263300808,-0.227808908,0.268093407,-0.791797578
86771.324845,-0.214588069,0.0934531405,-0.689063045,-0.19796446,0.217026517,-0.749492764
86771.334872,-0.0451328348,-0.050606042,-0.917753727,-0.187661484,0.150667995,-0.680762708
86771.344899,-0.0455517909,-0.214841276,-0.955938204,-0.144746244,0.0863132328,-0.610348701
86771.354927,-0.143160955,-0.407525629,-0.691283644,-0.1370617,0.0610520877,-0.543500185
86771.364954,-0.297640884,-0.471117081,-0.427114236,-0.13254045,0.0633386746,-0.49407351
86771.374981,-0.469709954,-0.40971375,-0.399704251,-0.14405489,0.0724645257,-0.445004225
86771.385009,-0.443685286,-0.619097967,-0.547503534,-0.148005426,0.0609479584,-0.352392256
86771.395036,-0.304976196,-0.897560615,-0.852770091,-0.136094168,0.0225915127,-0.217781171
86771.405063,-0.260040345,-0.867046819,-1.23376204,-0.118969247,-0.0358174667,-0.0673637092
86771.415091,-0.0991756829,-0.742644267,-1.4500293,-0.132118076,-0.115373015,0.0964414701
86771.425118,0.190399968,-0.62233673,-1.50604812,-0.141783744,-0.199961662,0.263003021
86771.435145,0.403372711,-0.384363219,-1.31220137,-0.166782573,-0.238878176,0.413283587
86771.445173,0.684779815,-0.164160689,-1.01980073,-0.219957918,-0.20367837,0.556668699
86771.455200,0.826281897,-0.0471426037,-0.74857731,-0.255352944,-0.132576227,0.645151198
86771.465228,0.423139049,0.105523883,-0.540064908,-0.271898359,-0.0545426868,0.624075472
86771.475255,-0.26475656,0.109904838,-0.513866637,-0.234857231,0.0355533846,0.51976639
86771.485282,-0.866893309,-0.354062225,-0.655937021,-0.145817637,0.0999206528,0.398981094
86771.495310,-1.43505604,-0.671360946,-0.931579424,-0.0390991792,0.120707154,0.300777823
86771.505337,-1.95335379,-0.621285467,-1.34460785,0.0222600494,0.0794950053,0.251651019
86771.515364,-2.04456712,-0.704671606,-1.60619543,0.0264284294,-0.0245304592,0.251543701
86771.525392,-1.85903519,-0.679741967,-1.8054075,0.0418228321,-0.156168908,0.292660773
86771.535419,-1.45747523,-0.51045113,-1.87716575,0.0631954968,-0.252795339,0.368210912
86771.545446,-0.957235112,-0.394338815,-1.68974932,0.0676493719,-0.310913771,0.437017947
86771.555474,-0.575259264,-0.0979931586,-1.38969553,0.0909490958,-0.325788856,0.45275563
86771.565501,-0.40619449,0.438918693,-1.0697376,0.123731814,-0.308440208,0.374852061
86771.575528,-0.342755014,0.796550922,-0.643431175,0.149681389,-0.288503528,0.23549071
86771.585556,-0.00723521195,0.951039472,-0.350453022,0.193918094,-0.254057944,0.105421387
86771.595583,0.414407753,0.917242855,-0.0696335082,0.225508243,-0.228938982,-0.00530113187
86771.605611,0.713887982,0.863413942,0.157865334,0.265662044,-0.235236034,-0.0828606412
86771.615638,1.10133057,0.763657098,0.396183676,0.284488469,-0.267381728,-0.125583589
86771.625665,1.44240377,0.639430488,0.680543639,0.301432818,-0.29395023,-0.127115175
86771.635693,1.63127521,0.58238875,1.10164081,0.294463605,-0.292240739,-0.105363816
86771.645720,1.52078918,0.62151628,1.60859898,0.241430223,-0.241612166,-0.0848287195
86771.655747,1.22723074,0.603919176,1.94918469,0.190270633,-0.147706717,-0.0757294968
86771.665775,1.01700058,0.592316343,2.08971836,0.141511604,-0.0305907484,-0.0716154426
86771.675802,0.808782773,0.739592844,1.94753283,0.0855245069,0.0544027053,-0.0688771829
86771.685829,0.638196781,0.851376006,1.66379304,0.0427362956,0.101176865,-0.0700282007
86771.695857,0.476391624,0.841701,1.33681968,-0.0189805962,0.0977818668,-0.0716388822
86771.705884,0.243036895,0.725103423,1.05741939,-0.0561660491,0.0409899615,-0.0619060881
86771.715911,0.0293888838,0.857259146,0.888390855,-0.10650485,-0.0183769595,-0.0298629329
86771.725939,-0.384043303,1.16667522,0.841257348,-0.197111711,-0.0779169872,-0.00026083272
86771.735966,-0.768839469,1.53301445,0.800693282,-0.278286755,-0.135358438,0.00182601996
86771.745994,-0.917678909,1.87648317,0.648410132,-0.29372856,-0.139825359,-0.0593459867
86771.756021,-0.861678643,1.67272425,0.454913513,-0.251538217,-0.137458339,-0.189852864
86771.766048,-0.616584084,1.21933275,0.341427419,-0.202199414,-0.163118958,-0.331750631
86771.776077,-0.163949476,0.711392293,0.267480724,-0.171393573,-0.199788019,-0.407876283
86771.786104,0.529482578,-0.025144675,0.273265152,-0.148157761,-0.224376723,-0.360277861
86771.796131,1.07599009,-0.775324521,0.427036495,-0.134319171,-0.217249572,-0.210108072
86771.806159,1.25974477,-1.27337641,0.779817667,-0.174501479,-0.158491984,0.00167555176
86771.816186,1.04292485,-1.33662051,0.994970238,-0.236361116,-0.0721440539,0.189689666
86771.826213,0.599848784,-1.1091164,0.778740393,-0.253726006,0.0145876482,0.282167912
86771.836241,0.180041656,-1.04204222,0.507491841,-0.245651022,0.0795285627,0.268424153
86771.846268,-0.306464096,-1.11986379,0.0684223788,-0.168879807,0.0895713419,0.175286755
86771.856296,-0.42372474,-1.20465643,-0.480215712,-0.0591330752,0.0618603565,0.0478145517
86771.866323,-0.187586811,-1.31348191,-1.04483054,0.0709168017,-0.000663476181,-0.0586011
86771.876350,0.263237533,-1.41231039,-1.46830145,0.214450002,-0.0894151852,-0.125279993
86771.886378,0.679211659,-1.24990961,-1.5313509,0.311307281,-0.180838302,-0.139201403
86771.896405,0.975044471,-0.851686899,-1.22460258,0.312556297,-0.213267088,-0.0991264284
86771.906432,1.12911041,-0.54144628,-0.683610625,0.25635162,-0.165502042,-0.0148735512
86771.916460,1.0683821,-0.565458439,-0.256167303,0.219434083,-0.0688340887,0.0786372274
86771.926487,0.657116294,-0.714219406,0.110787356,0.20042257,0.0310344454,0.112537399
86771.936515,0.106142307,-0.693695673,0.284158887,0.193290621,0.103256717,0.0786374956
86771.946542,-0.321312267,-0.722962977,0.201816704,0.203004241,0.149600506,0.0316060632
86771.956569,-0.613935177,-0.748624949,-0.0313484935,0.227448061,0.144250214,-0.00729499385
86771.966597,-0.777056386,-0.709071083,-0.278808758,0.265159488,0.077866137,-0.0401389599
86771.976624,-0.701075262,-0.741637867,-0.373682506,0.311750174,-0.025479963,-0.0649646819
86771.986652,-0.441777699,-0.801594249,-0.209625332,0.360844195,-0.111953862,-0.0608229302
86771.996679,-0.0886959361,-0.798712703,0.244459329,0.356333345,-0.136951625,-0.00640975963
86772.006706,0.186010209,-0.801431095,0.625206951,0.330037564,-0.115190402,0.0831808448
86772.016734,0.361310077,-0.767340025,0.856003666,0.281028718,-0.0378428884,0.18186827
86772.026761,0.426316949,-0.612681049,0.958610638,0.216066778,0.0632744059,0.258229882
86772.036788,0.221974233,-0.290774506,0.792584794,0.154997826,0.144754097,0.298419118
86772.046816,-0.0992456794,0.118836734,0.359956763,0.101369746,0.180021271,0.298305154
86772.056843,-0.236731073,0.363192384,-0.0933867242,0.0259916373,0.163782105,0.299185038
86772.066871,-0.108163438,0.668570292,-0.143938515,0.00910613127,0.181680948,0.262022227
86772.076898,-0.616377894,0.541112335,-0.360055547,-0.0145328864,0.163860679,0.146076724
86772.086925,-0.776220227,0.52074372,-0.645489276,-0.00524377963,0.130771965,0.0184583068
86772.096953,-0.527648494,0.460254582,-0.828176332,0.0164953377,0.0970749855,-0.0968192816
86772.106980,-0.356731225,0.207963755,-0.964403835,0.0726036131,0.0554870591,-0.194329053
86772.117008,-0.103158761,0.00681910543,-1.04301385,0.125291333,-0.00609640963,-0.254212618
86772.127035,0.0549875816,-0.164882081,-1.06590781,0.15110375,-0.095454514,-0.271154344
86772.137062,0.186999512,-0.369695519,-0.943984147,0.161277562,-0.183078647,-0.237287983
86772.147090,0.357668652,-0.625204029,-0.63970777,0.154236436,-0.250918418,-0.186978728
86772.157117,0.443569843,-0.767640615,-0.295938757,0.15128085,-0.286111534,-0.139221594
86772.167144,0.461190547,-0.685516897,0.0362140537,0.151531458,-0.301421523,-0.124259964
86772.177172,0.475398959,-0.562356929,0.333211964,0.150392964,-0.305249035,-0.128397182
86772.187199,0.579177752,-0.471431992,0.5719044,0.137464374,-0.302700907,-0.129327953
86772.197227,0.666445555,-0.426788183,0.773889446,0.102654457,-0.298798054,-0.104853243
86772.207254,0.746940649,-0.527723496,0.796248578,0.0962873697,-0.284102738,-0.0412476361
86772.217281,1.02517073,-0.669169939,0.803078131,0.0924550816,-0.264874965,0.0438890979
86772.227309,1.05651864,-0.535950568,0.921011852,0.065274328,-0.268905401,0.0848799348
86772.237336,0.993762908,-0.114743802,0.908569719,0.0531239212,-0.264400929,0.0808577687
86772.247364,1.12047878,0.204183287,0.974016297,0.0501273349,-0.237614051,0.0486774594
86772.257391,1.22193278,0.301761179,1.03463823,0.0340572856,-0.18637377,0.0107324757
86772.267418,1.26425743,0.299368329,1.08538116,-0.00601396617,-0.118239991,-0.0225895271
86772.277446,1.21614397,0.265310029,1.01185941,-0.0432593375,-0.0362188928,-0.0450982973
86772.287473,1.22594815,0.203242572,0.842349235,-0.0651888698,0.035879802,-0.0445861742
86772.297501,1.25070675,0.0529010942,0.710524351,-0.0800748765,0.0935593471,-0.0369807184
86772.307528,1.25728203,0.0911846841,0.613448709,-0.0894140527,0.143257394,-0.0401895605
86772.317555,1.13203068,0.252364111,0.52778878,-0.103877947,0.209212974,-0.0192733593
86772.327583,0.961574457,0.34311961,0.365685662,-0.136503264,0.270064622,0.0180108957
86772.337610,0.842533067,0.263310014,0.109611298,-0.154332057,0.308018386,0.0825611204
86772.347638,0.805951349,0.150441979,-0.258387901,-0.134007871,0.299692005,0.17387107
86772.357665,0.571062835,0.0358265887,-0.468852022,-0.143116415,0.221524775,0.279509336
86772.367693,0.345497591,-0.00133091981,-0.512178538,-0.173370466,0.120463133,0.390614837
86772.377720,0.342826618,0.0255393323,-0.477461445,-0.175447196,0.0285374671,0.504637003
86772.387747,0.485947241,0.104494467,-0.261150936,-0.16454421,-0.0472225435,0.600727558
86772.397775,0.760713446,0.378153331,0.0100251349,-0.128247723,-0.0685677752,0.663189352
86772.407802,0.93333372,0.768193134,0.219456405,-0.126927063,-0.00790549535,0.675716579
86772.417830,0.989011183,1.04424046,0.428694199,-0.127489522,0.138820305,0.622665346
86772.427857,0.81932141,1.18183078,0.582239916,-0.0914335251,0.331106126,0.498725057
86772.437884,0.0896047215,1.21254236,0.609448826,-0.0650786161,0.526710212,0.305659473
86772.447912,-0.664945087,1.13301078,0.372944839,-0.0623321012,0.709736466,0.113829836
86772.457939,-1.06643155,0.952115723,-0.277850727,-0.0574324168,0.82238102,-0.0111507177
86772.467967,-1.41971263,0.668604852,-0.940476431,-0.089878507,0.816581428,-0.0754271746
86772.477994,-1.82700602,0.454874094,-1.49072663,-0.124670312,0.72286427,-0.0893978477
86772.488021,-1.94316426,0.33323308,-2.14913852,-0.121502213,0.547906578,-0.0521524809
86772.498049,-1.63661935,0.0558975543,-2.66104175,-0.126782447,0.302198052,0.00966960844
86772.508076,-1.14006172,-0.190650728,-2.74036955,-0.114094101,0.0566146411,0.0789610595
86772.518104,-0.790695912,-0.219507204,-2.60824598,-0.0192421544,-0.0822649449,0.11093232
86772.528131,-0.777509536,-0.187703989,-1.99811385,0.0504921861,-0.129492104,0.0507675111
86772.538158,-0.90075247,-0.0455184183,-1.48504274,0.11049933,-0.141269147,-0.0622346736
86772.548186,-0.706899,0.0605681399,-1.21888713,0.160984352,-0.119600601,-0.170693502
86772.558213,-0.308476605,-0.0396546043,-1.10398474,0.219255909,-0.0990207568,-0.235293806
86772.568241,-0.00538476178,-0.137406301,-0.905482859,0.242689326,-0.0936092138,-0.241730928
86772.578268,0.0797878225,-0.0460277926,-0.650676908,0.225313544,-0.117869541,-0.203682348
86772.588296,0.0958171662,0.0164946597,-0.514586184,0.221809879,-0.151672512,-0.125545472
86772.598323,0.218020381,-0.0872268864,-0.388816362,0.219888672,-0.197505787,-0.0175319184
86772.608350,0.136163205,-0.116337355,-0.278337049,0.228478178,-0.244676486,0.0861915499
86772.618378,-0.0051556292,-0.166593159,-0.11752514,0.19670932,-0.285901964,0.168039009
86772.628405,0.0530194964,-0.208682644,0.157893975,0.164714366,-0.316293687,0.232963145
86772.638433,0.18240897,-0.0100625809,0.480092962,0.143895373,-0.300080627,0.264236659
86772.648460,0.148311908,0.418259753,0.95039869,0.118763916,-0.236020684,0.243946299
86772.658488,-0.137190795,0.85852164,1.34506904,0.0889064223,-0.156008139,0.184237957
86772.668515,-0.37236587,1.16161801,1.51319741,0.0581863262,-0.0930107981,0.11736384
86772.678542,-0.559446777,1.24883935,1.41223294,0.0471765511,-0.0515866652,0.0491752066
86772.688570,-0.668730451,1.05843163,1.12510702,0.0588009842,-0.0344689302,0.000243882649
86772.698597,-0.674318773,0.912830592,0.884086436,0.0493528843,-0.0417060703,-0.0363820381
86772.708625,-0.694413028,0.87454397,0.693939711,0.0318689682,-0.103802457,-0.0653122216
86772.718652,-0.503067449,0.962182359,0.570246696,0.0284382831,-0.183000341,-0.102337614
86772.728679,-0.0886189253,0.948283452,0.721484136,0.0114979167,-0.241197333,-0.148173809
86772.738707,0.246811007,0.880185263,1.1828005,-0.00448264834,-0.242096156,-0.214184791
86772.748734,0.322608737,0.902756941,1.69053492,-0.0273011457,-0.180223465,-0.303026497
86772.758762,0.384726316,0.695235012,2.08027658,-0.0700680539,-0.0686103851,-0.388349652
86772.768789,0.540488687,0.339799343,2.18971486,-0.0732904747,0.0734833702,-0.446109354
86772.778816,0.598085136,0.0442674136,2.06191383,-0.0657140464,0.205673903,-0.482597321
86772.788843,0.440619761,-0.105829515,1.82930509,-0.0612444654,0.289744824,-0.527153134
86772.798871,0.275953515,-0.197667512,1.52519647,-0.0517148748,0.352935791,-0.574111283
86772.808898,0.207192552,-0.410068665,1.27071785,-0.0194693208,0.406295687,-0.599125028
86772.818925,0.267810686,-0.632375893,1.0968904,-0.0184474662,0.464441001,-0.590238333
86772.828953,0.201729756,-0.858171511,1.02229488,-0.0346091241,0.542310238,-0.554220676
86772.838980,-0.168520437,-1.08368181,0.800623724,0.00179282436,0.626465321,-0.499956101
86772.849008,-0.426490259,-1.22014502,0.457177366,0.0242616478,0.695057154,-0.432174116
86772.859035,-0.541909952,-1.24350149,-0.0607791706,0.0435570478,0.721296489,-0.338544548
86772.869063,-0.565269492,-1.29300977,-0.665835314,0.0811089501,0.701032221,-0.208576173
86772.879090,-0.271358296,-1.24492743,-1.22104694,0.151122928,0.660055459,-0.0288325101
86772.889117,0.338308849,-1.09394002,-1.65791685,0.288926065,0.622907579,0.211769179
86772.899145,0.812327752,-0.903669965,-1.41798288,0.297124863,0.560169637,0.474647403
86772.909172,0.770257812,-0.572472811,-0.914170024,0.201579109,0.418421566,0.695281148
86772.919200,0.384791929,-0.0387277535,-0.702654348,0.132666886,0.246049285,0.813582778
86772.929227,0.0278068753,0.535699882,-0.526361962,0.127679318,0.103515834,0.812050402
86772.939255,-0.135792326,0.90558895,-0.185228557,0.118887417,0.027246099,0.750085294
86772.949282,-0.23779651,1.26691583,0.13717852,0.127178103,-0.0131439334,0.640483141
86772.959310,-0.40421793,1.72728133,0.445877389,0.133374751,-0.0114144767,0.490457952
86772.969337,-0.667025109,2.06540722,0.822998053,0.103677303,0.0123560997,0.308339566
86772.979364,-0.786258952,2.17856277,1.00569914,0.0529984124,0.0286349375,0.10360799
86772.989392,-0.495081711,2.12144767,1.07144207,0.025697818,0.0672646239,-0.0961397439
86772.999419,-0.00978109704,1.94033736,1.02206692,0.0389180146,0.150673226,-0.2717776
86773.009447,0.478458931,1.58639445,0.955226841,0.0416589379,0.269268304,-0.412903309
86773.019474,0.693469463,1.12762127,0.962141735,0.0306691397,0.383940816,-0.523126781
86773.029502,0.755530783,0.75540701,0.831952344,-0.0127702132,0.49541381,-0.585012734
86773.039529,0.736508395,0.434833579,0.562341038,-0.0697597265,0.573037267,-0.598418832
86773.049557,0.618542671,0.107716351,0.154126147,-0.120142207,0.614779115,-0.562822521
86773.059584,0.498355618,-0.269497617,-0.203822783,-0.178550929,0.617962122,-0.482043236
86773.069611,0.412778691,-0.632965968,-0.684663349,-0.230796278,0.564607024,-0.370496482
86773.079639,0.308145108,-0.897406301,-1.20005676,-0.246520922,0.452760637,-0.245805681
86773.089666,0.186085028,-1.04312768,-1.51193309,-0.233912975,0.310011208,-0.130988538
86773.099694,0.000609437135,-1.11814493,-1.54790106,-0.198067635,0.13742879,-0.0339820981
86773.109721,-0.124828668,-1.21382312,-1.42186119,-0.145715475,-0.0363078415,0.0398524478
86773.119749,-0.0528280655,-1.33642601,-1.07771691,-0.0840097666,-0.177259639,0.103886552
86773.129776,0.0105121147,-1.41928403,-0.513290299,-0.0467843749,-0.264718115,0.16105637
86773.139804,-0.0572346299,-1.35140876,0.109865565,-0.0353690013,-0.289439708,0.196503833
86773.149831,-0.156900215,-1.17925355,0.480944611,-0.0119984299,-0.278274685,0.211579457
86773.159859,-0.118528618,-1.09176516,0.773864896,-0.0140242958,-0.252574921,0.205363378
86773.169886,0.0619622429,-0.979949194,0.969609587,-0.00249094423,-0.227045029,0.198729977
86773.179913,0.171976277,-0.684612934,1.07834702,0.0116184829,-0.192977607,0.188316211
86773.189941,0.261642811,-0.377739892,1.24381816,-0.00748224091,-0.154001713,0.166104391
86773.199968,0.484787696,-0.18776151,1.41711545,-0.0479401872,-0.109969281,0.146829501
86773.209996,0.611261574,-0.0126084294,1.55980835,-0.0944565535,-0.0391001664,0.12314041
86773.220023,0.586366349,0.189017574,1.55706402,-0.12905927,0.0353170745,0.0785423145
86773.230051,0.544964371,0.342813065,1.42435008,-0.115789272,0.0732239783,0.0146823786
86773.240078,0.521195665,0.337322358,1.21282272,-0.0815788358,0.0663767233,-0.055517219
86773.250106,0.694418873,0.150846943,1.08700613,-0.054602351,0.0535631925,-0.104462653
86773.260133,0.834357651,-0.0762335275,1.18649526,-0.0188741777,0.0584852472,-0.144106209
86773.270161,0.878636646,-0.250063835,1.34033383,-0.00271864445,0.105824001,-0.159519777
86773.280188,0.835033066,-0.394147421,1.73262751,-0.033024352,0.203237638,-0.137524471
86773.290215,0.619691257,-0.466367804,2.05113115,-0.0828992277,0.335777819,-0.0979722664
86773.300243,0.497618171,-0.482054253,2.08153623,-0.137829587,0.482982725,-0.0420381576
86773.310270,0.361795523,-0.431720379,1.70510764,-0.196864948,0.606048167,0.0321354046
86773.320298,0.0828476484,-0.405729722,1.13902507,-0.260782957,0.669374406,0.111478165
86773.330325,-0.207054531,-0.318682321,0.520927077,-0.278795242,0.673047185,0.187597692
86773.340353,-0.485366884,-0.164706505,-0.111674661,-0.259724885,0.629503429,0.233924448
86773.350380,-0.629036666,-0.0305563567,-0.416022934,-0.25395143,0.551244855,0.249076232
86773.360408,-0.764263905,0.0950156954,-0.620932927,-0.237053916,0.431535512,0.249933511
86773.370435,-0.773277379,0.179304757,-0.921584684,-0.202084482,0.294085771,0.247331336
86773.380463,-0.644065162,0.273958724,-1.05486444,-0.195921659,0.17818661,0.241562396
86773.390490,-0.553667317,0.308824907,-1.25949679,-0.166057229,0.0669343919,0.224879816
86773.400518,-0.208368464,0.403284448,-1.44508073,-0.15470098,-0.00498560583,0.197689742
86773.410545,0.0752806472,0.459094598,-1.51411569,-0.143186271,-0.00294668972,0.137051702
86773.420573,-0.065650576,0.381952687,-1.45959208,-0.0833610222,0.0403544456,0.0397621654
86773.430600,-0.46467101,0.324029125,-1.27518594,-0.0190326367,0.10125801,-0.0929538086
86773.440627,-0.946014338,0.354907407,-1.27728379,0.0357483178,0.166813582,-0.240332872
86773.450655,-1.12080911,0.266724535,-1.49508775,0.0937791318,0.186936691,-0.353476197
86773.460682,-1.06360904,0.0701642723,-1.71317813,0.145996794,0.132122979,-0.420789987
86773.470710,-1.01836412,-0.223042685,-1.78608087,0.188258231,0.0375280306,-0.441323251
86773.480737,-1.02070389,-0.516251633,-1.56980543,0.204344526,-0.0587524325,-0.426107794
86773.490765,-0.895465762,-0.687469858,-1.33376029,0.20183903,-0.142187402,-0.357823819
86773.500792,-0.488026094,-0.725176707,-1.16706751,0.165273562,-0.192664161,-0.236440927
86773.510820,0.0592073913,-0.615997663,-1.04810503,0.105060019,-0.202660337,-0.0972966254
86773.520847,0.493290444,-0.472932715,-0.957577204,0.0566370897,-0.193639144,0.0226380397
86773.530875,0.551231468,-0.238046759,-0.917756065,0.0296251811,-0.177234605,0.0894287825
86773.540902,0.466679062,-0.0108255281,-0.964941595,0.0309999045,-0.138133273,0.0969804451
86773.550930,0.439848923,0.103310993,-1.01620533,0.0414213836,-0.110330671,0.0765827596
86773.560957,0.412427832,0.0761608641,-1.08177174,0.0682383552,-0.101030909,0.0669407919
86773.570985,0.375641166,0.0193998066,-0.969506126,0.0773389116,-0.114335001,0.0903715417
86773.581012,0.220682294,-0.0920147783,-0.685985537,0.0690708607,-0.148720935,0.133254036
86773.591040,0.145494074,-0.165335779,-0.389475703,0.0573454909,-0.185749799,0.179707021
86773.601067,0.189694304,-0.14483119,-0.113482002,0.0612126663,-0.182219237,0.215417072
86773.611095,0.233439411,-0.0681499186,0.183358087,0.0626028404,-0.13243784,0.23245652
86773.621122,0.0744477766,0.06650617,0.489376339,0.0708168298,-0.0728618577,0.216700181
86773.631150,-0.135701141,0.191990526,0.589954436,0.080413796,-0.0228133388,0.175414532
86773.641177,-0.175157391,0.322405762,0.645766924,0.083341144,0.0204846002,0.131544024
86773.651205,-0.142964921,0.449711086,0.736173756,0.0945732892,0.0530468039,0.0880178437
86773.661232,-0.14846045,0.49948897,0.952633318,0.106742337,0.0811101273,0.0295271054
86773.671259,-0.23037469,0.453994754,1.33287299,0.0953501314,0.103323556,-0.0435375199
86773.681287,-0.392237861,0.330944567,1.62754158,0.0794420093,0.143873379,-0.120865867
86773.691314,-0.523034644,0.139866772,1.94003692,0.0537209287,0.192220941,-0.204506427
86773.701342,-0.668997724,-0.104268987,2.04697871,0.0147455661,0.231391251,-0.286371738
86773.711369,-0.729421359,-0.284705561,1.77712541,0.0104565453,0.249099404,-0.346961319
86773.721397,-0.515453614,-0.47800253,1.28848849,0.0322473273,0.249934301,-0.361240923
86773.731424,-0.20911877,-0.639878158,0.776142194,0.100383505,0.223904297,-0.333240718
86773.741452,-0.0731622668,-0.757517134,0.46311494,0.18169567,0.16654034,-0.286497712
86773.751479,-0.196922575,-0.853550281,0.493737457,0.19543013,0.0873267502,-0.243559569
86773.761507,-0.411334337,-0.719183458,0.46208735,0.189884901,0.0270170681,-0.218077898
86773.771534,-0.380575188,-0.480473194,0.426155036,0.180905253,0.0249331445,-0.17324385
86773.781563,-0.317712708,-0.435919913,0.510273581,0.14110297,0.049968455,-0.106933005
86773.791590,-0.433763319,-0.406029436,0.572357405,0.051460702,0.0379030034,-0.0532862842
86773.801618,-0.824016582,-0.137110313,0.378216058,0.0307991039,-0.00333923986,-0.0427835807
86773.811645,-1.05080888,-0.0619542057,-0.0120405664,0.093872346,-0.0246573109,-0.0394868478
86773.821673,-1.03272758,-0.234663729,-0.10748247,0.14507775,-0.0734698549,-0.0334081873
86773.831700,-1.05735567,-0.291415799,-0.117249246,0.175649241,-0.164582983,-0.0119431075
86773.841728,-0.876503652,-0.139054762,-0.150471716,0.141808718,-0.245130032,0.0411249027
86773.851755,-0.374733988,0.0331094753,-0.210221544,0.0871401429,-0.29878822,0.143705606
86773.861783,0.356669047,0.190861595,-0.292520473,0.0160164274,-0.308404893,0.256101936
86773.871810,0.805095974,0.251518564,-0.379709511,-0.00290692993,-0.267220438,0.327220827
86773.881838,0.790913792,0.182578006,-0.368056483,0.0258088708,-0.196575016,0.307154447
86773.891865,0.443866634,0.115376401,-0.285728328,0.0744882599,-0.132440761,0.21419096
86773.901892,0.219772559,0.103812549,-0.371494641,0.147641838,-0.0796686336,0.111484289
86773.911920,0.372627736,-0.00401975704,-0.507446833,0.187015086,-0.037774276,0.0306430999
86773.921947,0.681644439,-0.287347015,-0.688905224,0.236390889,-0.0147240814,0.00243543088
86773.931975,0.986492698,-0.706515846,-0.734598469,0.278702408,-0.0149981212,0.0646748394
86773.942002,1.14334184,-0.949132251,-0.479443559,0.28469637,-0.0405484885,0.189501718
86773.952030,1.11041426,-0.664720047,-0.164928112,0.252382636,-0.0499081686,0.334917486
86773.962058,0.843570301,-0.0976988153,0.113732762,0.164038122,-0.0188703574,0.458014667
86773.972085,0.464599479,0.453877813,0.205340202,0.0525989495,0.046047654,0.546405256
86773.982113,0.113809992,0.807542125,0.129320207,-0.0648272783,0.129488498,0.575558603
86773.992139,-0.201666262,1.10422301,-0.19697394,-0.14742735,0.18433629,0.530945063
86774.002168,-0.465306751,1.44778239,-0.747870623,-0.195359707,0.201101691,0.412579536
86774.012194,-0.666019585,1.68301242,-1.22618196,-0.206404388,0.187474832,0.257388353
86774.022223,-0.709506917,1.6983719,-1.62216456,-0.175695479,0.144172624,0.0841143131
86774.032250,-0.521859609,1.60573395,-1.84608087,-0.145673126,0.0744204372,-0.0783164054
86774.042278,-0.145547339,1.36230221,-1.93630182,-0.126849115,0.00257421425,-0.204185382
86774.052305,0.267567671,0.982087376,-1.84741241,-0.109884501,-0.069049105,-0.28469196
86774.062333,0.528959139,0.596933262,-1.55615275,-0.0937460139,-0.125843942,-0.334415048
86774.072360,0.698748208,0.240511468,-1.0337065,-0.107469015,-0.167592987,-0.364190787
86774.082388,0.880943242,-0.145969912,-0.549253008,-0.106949694,-0.188747272,-0.35808441
86774.092415,1.10021348,-0.594327537,-0.141572955,-0.0986145362,-0.191545993,-0.323375702
86774.102443,1.32925217,-1.01255879,0.252132348,-0.0970203653,-0.184877172,-0.269117534
86774.112470,1.4522043,-1.33194682,0.638270431,-0.0965050459,-0.171683073,-0.203596026
86774.122498,1.48150843,-1.49114223,0.955574632,-0.0929473266,-0.13725771,-0.111597396
86774.132526,1.28648153,-1.46421988,1.24990946,-0.117561594,-0.0720254555,-0.00450103823
86774.142553,1.01513011,-1.27101041,1.37874978,-0.154078066,0.00795566384,0.100220583
86774.152580,0.765595373,-0.977380951,1.25259768,-0.182990402,0.0734294802,0.196768433
86774.162608,0.564416309,-0.739303651,1.0459575,-0.213052958,0.104141317,0.269409597
86774.172635,0.34862376,-0.493557972,0.809724145,-0.212654561,0.113326028,0.325421721
86774.182663,0.162708244,-0.29187074,0.727138801,-0.204135358,0.116319418,0.379449546
86774.192691,-0.0294880334,-0.146660816,0.832280845,-0.178574353,0.134699762,0.438821524
86774.202718,-0.285240983,0.120647327,1.0742846,-0.188966274,0.185901701,0.46931392
86774.212746,-0.550803964,0.51553658,1.24531863,-0.188486904,0.261770904,0.448590517
86774.222773,-0.861542303,0.815746986,1.21018009,-0.245424747,0.312073737,0.351162255
86774.232801,-1.27369833,1.00368882,0.834345376,-0.261910766,0.267038375,0.171114728
86774.242827,-1.37299457,1.13919013,0.172540925,-0.22582069,0.214634284,-0.0513079613
86774.252856,-1.21697275,0.954167761,-0.250490426,-0.148715258,0.144508988,-0.275711238
86774.262882,-1.02324722,0.719236723,-0.32229894,-0.074581109,0.0722965673,-0.456433356
86774.272911,-0.924332667,0.74652615,-0.174447051,-0.000396356918,0.0202621315,-0.573486447
86774.282938,-0.730121397,0.616867139,0.0524351206,0.0295471605,0.00465387665,-0.613330007
86774.292966,-0.423427145,0.225970463,0.452498269,0.0151085667,-0.000787494006,-0.573105097
86774.302993,-0.221166132,-0.158811529,0.594331921,-0.0242116749,-0.00994237699,-0.487826705
86774.313021,-0.170806064,-0.478103396,0.496412814,-0.0604575649,-0.0424816795,-0.372314483
86774.323048,-0.204598882,-0.757522468,0.292102539,-0.0733019859,-0.100242443,-0.263675094
86774.333076,-0.105807522,-0.886393324,0.00896188961,-0.062574774,-0.137344271,-0.169706777
86774.343103,0.184905097,-0.896678791,-0.228873638,-0.0562170111,-0.137442008,-0.0703181326
86774.353131,0.487816981,-0.860275644,-0.519288078,-0.0570865348,-0.10924127,0.0312111527
86774.363158,0.662739175,-0.746133351,-0.778488465,-0.0454194918,-0.0749722421,0.137817219
86774.373186,0.59565294,-0.590821282,-0.845626649,-0.0474498868,-0.0538656265,0.211078659
86774.383214,0.243569395,-0.449901822,-0.785219819,-0.00172021426,-0.0426750258,0.225695148
86774.393241,-0.125658762,-0.321395744,-0.776602212,0.104615279,-0.004137218,0.203596234
86774.403268,-0.588989683,-0.300295052,-0.591633183,0.221287042,0.0502943322,0.174180031
86774.413296,-1.04416864,-0.504125434,-0.394208577,0.350437045,0.0993926376,0.16033718
86774.423323,-1.34311717,-0.697242918,-0.241592249,0.433000892,0.104598314,0.1670385
86774.433351,-1.60712686,-0.616453517,-0.300075418,0.437851578,0.0437908918,0.200075269
86774.443379,-1.59935243,-0.280796461,-0.454163571,0.338249892,-0.110556073,0.251026064
86774.453406,-1.21834535,0.143098448,-0.616859979,0.225325972,-0.300124675,0.313654006
86774.463434,-0.663819956,0.577561951,-0.759463446,0.145185351,-0.441338509,0.37858054
86774.473461,-0.253079054,0.978676252,-0.537543281,0.0713337585,-0.500202119,0.409691066
86774.483489,-0.103207934,1.28293758,-0.123995213,0.0423092954,-0.491242409,0.401730627
86774.493515,-0.0895103212,1.59843049,0.387284915,0.0181285907,-0.440686584,0.311553329
86774.503544,-0.0868955356,1.94254291,0.827327022,-0.0310296342,-0.317508459,0.164705291
86774.513570,-0.0116905839,2.0186066,0.942826794,-0.0677455664,-0.166376188,0.0247740261
86774.523599,-0.0182486273,1.89163807,0.81058047,-0.0768807456,-0.0282758437,-0.0932119936
86774.533627,-0.00873633723,1.77064028,0.426266095,-0.0729488507,0.0542153046,-0.210376173
86774.543654,-0.0100853407,1.74903504,-0.0476969862,-0.0417504534,0.0644056201,-0.332333773
86774.553682,0.154597637,1.60680289,-0.41154082,-0.0133196125,0.0327856429,-0.422858357
86774.563709,0.401761549,1.32483406,-0.60600833,-0.00475488603,0.00051905273,-0.461028099
86774.573737,0.541970304,0.976511987,-0.632271483,-0.00684307097,-0.0180751365,-0.472242683
86774.583764,0.58465275,0.626721009,-0.540816603,-0.00194418617,-0.00510794017,-0.471157193
86774.593792,0.565111452,0.240359712,-0.475952794,0.00777102541,0.0180194844,-0.454865277
86774.603819,0.519753723,-0.00772668526,-0.481475357,0.0171935558,0.0210227296,-0.417840153
86774.613847,0.621442046,-0.106971671,-0.507928479,0.0194718894,-0.00109295873,-0.358137161
86774.623874,0.803696921,-0.14370193,-0.510730677,0.00636540912,-0.0361864977,-0.28835994
86774.633902,0.837936387,-0.220730334,-0.431277786,0.0102706682,-0.0978474692,-0.233051121
86774.643929,0.841020762,-0.232781934,-0.267200153,0.0412632041,-0.161952943,-0.190720707
86774.653956,0.998745446,-0.263574547,-0.161484693,0.0597641841,-0.208523378,-0.138051376
86774.663985,1.11724593,-0.306888569,0.0732680653,0.0676546022,-0.234410629,-0.0740180612
86774.674011,1.19492422,-0.289265453,0.400823026,0.0394368097,-0.224322036,-0.00877408125
86774.684040,1.22088532,-0.361850504,0.686735479,0.0203209054,-0.155378655,0.0457024798
86774.694067,1.23995067,-0.363638557,0.966622095,-0.0072571924,-0.0192844793,0.0816319808
86774.704095,1.12414125,-0.334178142,1.09377373,-0.0552620031,0.167524293,0.102652848
86774.714122,0.978974139,-0.280254354,1.00391401,-0.104569629,0.356301665,0.113594979
86774.724150,0.8900555,-0.266052116,0.494298598,-0.150210351,0.499460161,0.116097286
86774.734177,0.751366137,-0.185016668,-0.269977801,-0.158713549,0.563441515,0.0924508125
86774.744205,0.592135653,-0.12540508,-1.08582774,-0.153212547,0.578371704,0.0621285886
86774.754233,0.203823294,-0.231072134,-1.54699096,-0.157490909,0.54417032,0.0385739952
86774.764260,-0.465537052,-0.468542298,-1.8384137,-0.131652385,0.439652205,0.00795749482
86774.774287,-1.05408688,-0.818999046,-2.07212951,-0.0761217475,0.254179031,-0.0267626699
86774.784314,-1.0922208,-1.27698773,-2.23347451,0.00551932259,0.00664592115,0.003495635
86774.794342,-0.625881636,-1.56509097,-2.03429341,0.0488196574,-0.289152175,0.111772843
86774.804369,-0.148434146,-1.38021722,-1.49943776,0.050851915,-0.572238743,0.231382057
86774.814397,0.303025354,-0.886621361,-0.779886641,0.0498910472,-0.760469913,0.305064261
86774.824424,0.52012957,-0.518457984,0.101350835,0.0645283163,-0.831249297,0.309255272
86774.834452,0.479247013,-0.576092609,1.08388888,0.118589416,-0.81027025,0.233389288
86774.844480,0.208458991,-0.777558636,2.02040108,0.191025257,-0.741414189,0.0767043382
86774.854507,-0.00244344763,-0.813928319,2.6754619,0.279446483,-0.630596638,-0.108025834
86774.864535,0.0610644173,-0.73090809,3.1455537,0.339040309,-0.477383077,-0.275249988
86774.874562,0.120135761,-0.631863267,3.54991892,0.300915837,-0.310315251,-0.413489342
86774.884590,0.12395605,-0.508870802,3.5465211,0.250074208,-0.0955965593,-0.479581565
86774.894617,0.374808587,-0.483468065,3.07314254,0.198044837,0.149364457,-0.462501645
86774.904645,0.626777708,-0.377132354,2.34202841,0.11052084,0.354336798,-0.394504219
86774.914672,0.738627287,-0.189262635,1.44027246,0.000912803109,0.483002901,-0.297523409
86774.924700,0.785323425,0.0949121072,0.531531473,-0.0929511115,0.546433508,-0.192212701
86774.934728,0.592940905,0.398487788,-0.237482476,-0.152891934,0.539002538,-0.116026856
86774.944755,0.220371255,0.530970698,-0.890438435,-0.172113299,0.466717124,-0.0944722965
86774.954783,-0.198547327,0.561417128,-1.43834646,-0.130444691,0.343774706,-0.115738168
86774.964810,-0.400381347,0.534514106,-1.81963885,-0.0815658271,0.212842241,-0.146731496
86774.974838,-0.325206791,0.587135689,-2.03929283,-0.0313111804,0.0833289847,-0.165408507
86774.984865,-0.143769808,0.63213792,-2.09199332,0.00377650023,-0.0426491834,-0.174296811
86774.994893,-0.121197472,0.522078804,-1.78533736,0.0141865304,-0.158087626,-0.19405134
86775.004921,-0.13698592,0.228415409,-1.41060446,0.0298688207,-0.237474605,-0.205926642
86775.014948,0.0242925105,-0.178043687,-0.908112623,0.0486054905,-0.276059002,-0.188077867
86775.024976,0.276371886,-0.587453742,-0.437190225,0.0741566569,-0.309210032,-0.136136636
86775.035003,0.60946585,-0.697427042,-0.0264987153,0.0742394775,-0.333569944,-0.0637881532
86775.045031,0.990078228,-0.484687743,0.377107804,0.0325359777,-0.344240457,0.0114453509
86775.055058,1.19156775,-0.114632268,0.737548551,-0.0302147567,-0.330435961,0.0639812648
86775.065086,1.25315356,0.194630226,1.06217097,-0.103832252,-0.285891116,0.0579702407
86775.075113,1.22806383,0.350958925,1.29729665,-0.122481301,-0.203411967,-0.00490672421
86775.085141,1.00197895,0.380207232,1.41034026,-0.113465175,-0.0971845984,-0.11800798
86775.095169,0.704504214,0.296116305,1.54672091,-0.0812451839,0.0155632561,-0.258768022
86775.105196,0.424377067,0.0891637362,1.57270875,-0.0501157604,0.0935720354,-0.399231672
86775.115224,0.167617935,-0.149283639,1.43998546,-0.0192558486,0.121864662,-0.514349699
86775.125251,0.0927009339,-0.370677333,1.20233405,0.0126368375,0.124008238,-0.5530774
86775.135279,0.134231945,-0.577203018,1.04043026,0.0158110578,0.122601025,-0.51711005
86775.145306,0.216034468,-0.742636522,1.04286245,-0.00483749434,0.12707673,-0.444506198
86775.155334,0.34904447,-0.753904789,0.996337435,-0.0399709828,0.169009537,-0.340890348
86775.165362,0.361753583,-0.7803829,0.8593974,-0.0813975185,0.227746889,-0.208870232
86775.175389,0.0576808393,-0.750794694,0.674306206,-0.131788522,0.282553166,-0.0736738071
86775.185417,-0.400388288,-0.663713646,0.301304083,-0.167388052,0.324976236,0.0628233254
86775.195444,-0.774078612,-0.707821741,-0.174290399,-0.194663882,0.306537837,0.198752135
86775.205472,-0.990675902,-0.738374189,-0.584361731,-0.205716535,0.218687341,0.333189011
86775.215500,-1.03707525,-0.665211337,-0.838076964,-0.213715881,0.102206804,0.465036005
86775.225527,-1.04235041,-0.517745963,-0.880025177,-0.240454808,-0.0220722705,0.592057884
86775.235555,-1.04526184,-0.261168216,-0.798724612,-0.269739449,-0.134286687,0.696576297
86775.245582,-1.02179366,0.0926250557,-0.6248539,-0.295300454,-0.220415726,0.752837718
86775.255610,-0.874839957,0.386315047,-0.369266443,-0.308925748,-0.276381761,0.737603128
86775.265637,-0.614967151,0.517757178,-0.0263537539,-0.295978248,-0.301057279,0.659881711
86775.275665,-0.29029454,0.581334419,0.323987624,-0.267186552,-0.261337847,0.5400666
86775.285693,0.0751310827,0.720116209,0.498269255,-0.234710902,-0.15401645,0.383157104
86775.295720,0.347258171,0.871043049,0.557210689,-0.200457335,-0.0121519947,0.19435899
86775.305748,0.390959804,0.854167244,0.586848287,-0.152004838,0.129063189,-0.0157263502
86775.315775,0.220852098,0.637470659,0.549309707,-0.0758450925,0.236261815,-0.2259949
86775.325803,0.0573079874,0.314341259,0.469076478,-0.00964210276,0.305199623,-0.385952622
86775.335831,0.0507773435,0.043378849,0.358892349,0.0234881528,0.343346745,-0.463212252
86775.345858,0.097401732,-0.205651588,0.290170695,0.0380993187,0.334098637,-0.444312871
86775.355886,0.0333743733,-0.387449494,0.200690915,0.0179061666,0.295330465,-0.351175457
86775.365913,-0.11790486,-0.498271885,0.147619834,-0.0129771791,0.269111663,-0.205952212
86775.375941,-0.426265949,-0.477602972,0.0958510685,-0.039228227,0.258775383,-0.0488483496
86775.385968,-0.88877452,-0.230164792,-0.00153846161,-0.0638073385,0.276741087,0.0787466243
86775.395996,-1.20159412,0.276969213,-0.289050166,-0.121161439,0.32220602,0.156095222
86775.406024,-1.29102152,0.903745076,-0.915369463,-0.16343379,0.354324549,0.167198732
86775.416051,-1.10373266,1.29024103,-1.74683022,-0.139616355,0.345960617,0.107358031
86775.426079,-0.95348482,1.35620257,-2.31807645,-0.0747939423,0.269955873,-0.0278634392
86775.436106,-0.925429815,1.35941058,-2.59231074,0.0222604349,0.134040892,-0.202273577
86775.446134,-0.869141964,1.39260835,-2.56777777,0.0889880657,-0.0059431009,-0.351263076
86775.456162,-0.740479856,1.09228393,-2.19727039,0.130445763,-0.141470566,-0.42358762
86775.466189,-0.395005938,0.584839029,-1.57791743,0.151923358,-0.255519629,-0.417021573
86775.476217,0.0499582822,0.281748282,-0.980958079,0.139387056,-0.34454006,-0.334492087
86775.486244,0.336050402,0.104551275,-0.462027144,0.0993192643,-0.416984946,-0.200325221
86775.496272,0.503199916,-0.013560579,0.101577045,0.00816752017,-0.485109955,-0.0245589912
86775.506300,0.722652449,-0.103987942,0.581045738,-0.10603895,-0.521809876,0.166062891
86775.516327,0.849816063,-0.105788269,0.952841407,-0.210391447,-0.503293753,0.338275135
86775.526355,0.90932536,-0.0596157894,1.23081255,-0.279054642,-0.428223759,0.465382218
86775.536382,0.750339498,0.0442760353,1.47554075,-0.316331714,-0.329527289,0.500240326
86775.546410,0.408722109,0.210182856,1.61925364,-0.321896404,-0.223579556,0.431690037
86775.556438,0.125023533,0.38179841,1.62900172,-0.301878214,-0.111466065,0.303986669
86775.566465,-0.100778734,0.429305426,1.58926884,-0.281543106,0.00224585319,0.160855889
86775.576493,-0.292919409,0.34840135,1.47764153,-0.256920844,0.110433839,0.0215754844
86775.586520,-0.571844341,0.147803328,1.26540104,-0.226279333,0.202141121,-0.124294378
86775.596548,-0.883985313,-0.0602974515,0.935178909,-0.182869554,0.260656923,-0.261834919
86775.606576,-1.08757407,-0.347406055,0.498695372,-0.138036564,0.262057722,-0.374719679
86775.616603,-1.28459937,-0.701427583,-0.0546358456,-0.0876074731,0.203401059,-0.428998351
86775.626631,-1.14837786,-1.23740946,-0.370742945,-0.0681450963,0.128350258,-0.397329897
86775.636658,-0.730969173,-1.72733466,-0.498539889,-0.0463282131,0.0577490591,-0.307119846
86775.646686,-0.345310763,-2.03587849,-0.500699113,0.00520288944,-0.0127016716,-0.207705364
86775.656714,-0.0165211459,-2.20705499,-0.441176664,0.0771484524,-0.0717812404,-0.108422734
86775.666741,0.285955415,-2.29433405,-0.21484219,0.0859177113,-0.123507813,-0.0103864437
86775.676769,0.488794082,-2.03614664,-0.0107137017,0.0834556147,-0.157699868,0.117299348
86775.686796,0.404440121,-1.70261465,0.0875093566,0.0338987149,-0.1620363,0.254334152
86775.696824,0.115878396,-1.65624964,0.24195173,0.0141271418,-0.140305698,0.34124589
86775.706852,-0.328152416,-1.2930783,0.202843709,0.0461452603,-0.121447325,0.32509169
86775.716879,-0.72420377,-0.628522433,0.0660381141,0.0813242868,-0.110076964,0.22301513
86775.726907,-0.764833229,-0.166490247,-0.16247312,0.147866294,-0.140781343,0.0992234051
86775.736934,-0.404150709,-0.014290519,-0.388263989,0.240910217,-0.188452199,-0.0176938921
86775.746962,0.0644233723,0.0213868431,-0.460896095,0.315152764,-0.227931961,-0.0954012051
86775.756990,0.511891976,0.0727048419,-0.235970318,0.334753364,-0.263878763,-0.11806763
86775.767017,0.768138189,0.127270527,0.161353176,0.323330015,-0.265791446,-0.0861267447
86775.777045,0.616267274,0.0153433891,0.704818248,0.297807604,-0.252999485,-0.0166078545
86775.787073,0.0975605028,-0.263218317,1.30069448,0.246266901,-0.222813636,0.0747942254
86775.797100,-0.290813669,-0.507083334,1.73332543,0.177899033,-0.166065931,0.159104317
86775.807128,-0.374765187,-0.543608536,1.8972318,0.119907901,-0.106699005,0.221100584
86775.817155,-0.310106837,-0.403119576,1.79090493,0.0969517156,-0.0699918568,0.232939929
86775.827183,-0.265101866,-0.335995676,1.48764971,0.117431156,-0.0847793296,0.178820238
86775.837211,0.00602656681,-0.413012134,1.21701491,0.191190332,-0.129563317,0.08612784
86775.847238,0.67884005,-0.384336988,1.06240477,0.25749746,-0.142275378,-0.00534454733
86775.857266,1.25134432,-0.107411121,1.07616559,0.306926012,-0.0908848941,-0.103416786
86775.867293,1.5504997,0.106936745,1.22110013,0.329707474,0.0252790004,-0.190647557
86775.877321,1.5295101,0.338525524,1.34161335,0.311622232,0.16707848,-0.254003644
86775.887349,1.15271852,0.410314274,1.17206225,0.240740046,0.300581962,-0.277015746
86775.897376,0.718264882,0.135925159,0.915565862,0.161136821,0.396331638,-0.244487897
86775.907404,0.290455064,-0.0661138462,0.363046546,0.10995806,0.458277315,-0.184493527
86775.917432,-0.046652884,-0.117511952,-0.455955716,0.103313982,0.482000858,-0.121570915
86775.927459,-0.28112668,-0.134577324,-1.26746733,0.0770703927,0.455960453,-0.0724608898
86775.937487,-0.490216662,-0.277247573,-1.96872701,0.0690604076,0.347851306,-0.021243507
86775.947514,-0.599402648,-0.480457193,-2.3283617,0.0738993734,0.179702505,0.0412390456
86775.957542,-0.570356952,-0.658888418,-2.49232652,0.0848795846,-0.00396852195,0.130450144
86775.967570,-0.319795944,-0.864522488,-2.34743816,0.0839629248,-0.170397714,0.244977251
86775.977597,-0.00316197116,-1.03517438,-1.8079753,0.0910730287,-0.277216822,0.370929062
86775.987625,0.258008327,-0.896025441,-1.12332189,0.052130159,-0.309269041,0.497668624
86775.997653,0.310180486,-0.591110913,-0.458919826,-0.0121894423,-0.298654735,0.585746825
86776.007680,0.158730719,-0.35869394,-0.0310755217,-0.0509746559,-0.260264218,0.593594074
86776.017708,-0.0360651467,-0.226915526,0.289725873,-0.0551616773,-0.196469784,0.530234039
86776.027735,-0.176368082,-0.176605252,0.461595767,-0.0342694446,-0.115928881,0.405135244
86776.037763,-0.313968042,-0.0310034794,0.372811568,0.0111600887,-0.0368516371,0.233323529
86776.047791,-0.350352045,0.208841597,0.209099847,0.0670324117,0.0151604312,0.0427032523
86776.057818,-0.241177823,0.28941615,0.0831429781,0.123958543,0.0292046126,-0.139909968
86776.067846,0.0316232188,0.144474449,0.00370528426,0.197468981,0.0220399089,-0.25783208
86776.077874,0.362474737,-0.0824707779,0.0152431618,0.225985304,0.00807242747,-0.283350497
86776.087901,0.531857636,-0.363847268,0.175782099,0.222717077,-0.0143881394,-0.240525797
86776.097929,0.497541964,-0.47033415,0.468479097,0.18356967,-0.0393731184,-0.186436728
86776.107957,0.494515309,-0.595163147,0.66411682,0.137700453,-0.0584743768,-0.127592579
86776.117984,0.601728168,-0.792825617,0.736907915,0.0900130942,-0.0512670614,-0.0400821753
86776.128012,0.586282177,-1.02886242,0.713509504,0.078751117,-0.0143404687,0.0574174821
86776.138039,0.395786347,-1.08664848,0.59685764,0.0893233344,0.0336843133,0.168728828
86776.148067,0.141152246,-0.943807256,0.52904141,0.0732839108,0.053871341,0.273339123
86776.158095,-0.0174091077,-0.739615202,0.337563729,0.0718295574,0.0401462056,0.37616989
86776.168122,0.0513747979,-0.497182044,0.1569225,0.0500928387,-0.0127207348,0.489849597
86776.178150,0.326815249,-0.315998744,0.092913846,0.0116146905,-0.0881095007,0.629927099
86776.188178,0.299171893,-0.0107513668,0.259404385,-0.0594877154,-0.183312967,0.741481006
86776.198205,0.10735972,0.290834346,0.479560463,-0.110647038,-0.219804138,0.803029895
86776.208233,0.167172676,0.448677359,0.592179711,-0.148854882,-0.138805166,0.830723286
86776.218261,-0.0523230386,0.502683491,0.739011025,-0.16556409,-0.0178334713,0.798400521
86776.228288,-0.788755007,0.600795746,0.854233734,-0.147125155,0.110951401,0.67847383
86776.238316,-1.55867248,0.719259592,0.860845261,-0.106614746,0.198650897,0.490151316
86776.248343,-2.1036937,0.774826654,0.686414576,-0.0551518239,0.21499525,0.271213382
86776.258371,-2.34195929,0.988848686,0.33812487,-0.017617764,0.177136824,0.0552451424
86776.268399,-2.04112297,1.24572677,-0.173793555,0.0124799516,0.104443967,-0.106067315
86776.278426,-1.57733656,1.28523723,-0.459146036,0.0294038076,0.0228958502,-0.228518128
86776.288454,-1.36453464,1.33749071,-0.358332377,0.0222761221,-0.0222524535,-0.351471215
86776.298482,-1.3000819,1.40463124,-0.168029,0.000898129772,0.011573419,-0.496686459
86776.308509,-1.27768506,1.3671229,-0.126321026,-0.00317517528,0.121802986,-0.645658612
86776.318537,-1.20386097,1.17013764,-0.422002008,-0.00529877981,0.255155712,-0.773266137
86776.328565,-1.08228188,0.949923474,-0.914251272,0.0031050914,0.345440626,-0.867626965
86776.338592,-0.812824011,0.796168352,-1.64188516,0.0375365689,0.381707281,-0.911719322
86776.348620,-0.419656687,0.53114083,-2.29496036,0.0902533084,0.307479113,-0.892547786
86776.358648,-0.0254674726,0.248783732,-2.77897313,0.163953632,0.110685624,-0.797325909
86776.368675,0.417830129,-0.0216219762,-2.83004339,0.214869544,-0.167856514,-0.621776223
86776.378703,0.989999318,-0.33435865,-2.29010533,0.223407105,-0.447679102,-0.367372423
86776.388731,1.48948832,-0.52249608,-1.23913614,0.213074833,-0.646422625,-0.0642101467
86776.398758,1.81118857,-0.379117244,-0.292974062,0.196129411,-0.755749643,0.216532826
86776.408786,1.94974334,-0.213749572,0.648522945,0.124567613,-0.791859686,0.413134038
86776.418813,1.77833201,0.00641067076,1.44548639,0.0956147835,-0.734719455,0.50731802
86776.428841,1.54928798,0.313829145,2.0119676,0.072208792,-0.565468371,0.507874131
86776.438869,1.23093427,0.605644611,2.4834792,0.0126184355,-0.326215804,0.438355774
86776.448896,0.839733645,0.931973318,2.64878549,-0.0223065242,-0.0541502014,0.301470369
86776.458924,0.487187158,1.27386141,2.43673849,-0.0465362296,0.201089829,0.108065479
86776.468952,0.264551246,1.55618695,1.89186063,-0.0634086877,0.373987824,-0.0922095627
86776.478979,0.192084414,1.72972156,1.163046,-0.0986926407,0.439471513,-0.265889466
86776.489007,0.103876846,1.7967253,0.552003768,-0.194453254,0.423918366,-0.401290447
86776.499035,0.00109217915,1.68047121,0.0390513229,-0.24594228,0.378017992,-0.489988089
86776.509062,-0.102831575,1.3302235,-0.422519894,-0.253480375,0.359393984,-0.547888398
86776.519090,-0.456941804,0.889260185,-0.542825021,-0.259564638,0.366759211,-0.597231448
86776.529118,-1.14966892,0.628115313,-0.586668839,-0.265099198,0.377759129,-0.669261694
86776.539145,-1.566929,0.402074232,-0.84103406,-0.252249181,0.378298432,-0.736319542
86776.549173,-1.51838796,0.0396107469,-1.15971949,-0.236685663,0.323548645,-0.777139425
86776.559201,-1.24628835,-0.277098447,-1.42936002,-0.24841103,0.204686955,-0.781208217
86776.569228,-1.06228159,-0.528927099,-1.54526077,-0.199140415,0.0219821185,-0.76144433
86776.579256,-0.774904249,-0.908823621,-1.36227444,-0.128880635,-0.1849114,-0.712487221
86776.589284,-0.286991334,-1.36255443,-0.712079764,-0.0244394504,-0.334296614,-0.609811664
86776.599311,0.328313086,-1.8063423,0.0310281755,0.0849938318,-0.388094872,-0.441630393
86776.609339,0.975286171,-1.9199773,0.795332632,0.101631664,-0.362129599,-0.228562072
86776.619367,1.54902246,-1.56473105,1.32219962,0.0274490472,-0.276332915,-0.0102515761
86776.629394,1.78502128,-1.04166506,1.55016374,-0.0591401719,-0.15020749,0.166350618
86776.639422,1.56408574,-0.599713833,1.56395495,-0.0974763781,-0.0202036835,0.24288401
86776.649450,1.1115806,-0.297652794,1.52978556,-0.0970468074,0.0885632709,0.231229484
86776.659477,0.64501406,-0.0690841672,1.2273288,-0.036293447,0.179864436,0.161476776
86776.669505,0.344946679,0.000946961994,0.860176568,0.0554127693,0.231620312,0.0730310604
86776.679533,0.334855347,0.0978924381,0.53243982,0.153470621,0.249646172,0.0058786571
86776.689560,0.378639252,0.298809124,0.368552742,0.1918585,0.228682578,-0.0168458298
86776.699588,0.35084319,0.580922294,0.365390478,0.176860109,0.182918817,0.0112228226
86776.709616,0.506967525,0.717248325,0.271111774,0.119361661,0.145934701,0.10076043
86776.719643,0.737937258,0.88607118,0.291949979,-0.00714168744,0.134176314,0.221592575
86776.729671,0.580643149,1.16052189,0.375159008,-0.133637577,0.145645738,0.299771518
86776.739699,0.0965856664,1.38385046,0.396355526,-0.239634588,0.196600005,0.303086102
86776.749726,-0.439121777,1.37695412,0.30424832,-0.313080043,0.274569631,0.230980217
86776.759754,-0.859281007,1.21955787,-0.0807061064,-0.341437399,0.35204792,0.102435559
86776.769782,-1.18924025,1.05770551,-0.732666625,-0.319954991,0.401880443,-0.057798855
86776.779809,-1.30536276,0.865653903,-1.52202135,-0.252550125,0.3982535,-0.220093489
86776.789837,-1.07320506,0.62799176,-2.29642342,-0.173825741,0.293492734,-0.348542005
86776.799865,-0.514150496,0.218971325,-2.85543736,-0.0878570378,0.0961934999,-0.404178381
86776.809892,0.148890731,-0.336779959,-2.92970438,-0.0234120023,-0.144225761,-0.384463251
86776.819920,0.741669942,-0.895279591,-2.39058639,0.0249062609,-0.338280708,-0.3070409
86776.829948,1.07106403,-1.16978809,-1.53488259,0.0758027285,-0.439755678,-0.212053403
86776.839976,1.16144616,-1.25082731,-0.651559536,0.094461903,-0.458097935,-0.134377524
86776.850003,1.12133832,-1.30648694,0.182591779,0.0801556706,-0.417875141,-0.0756979585
86776.860031,0.983222882,-1.27501541,0.810724847,0.0760767683,-0.305826366,-0.0320133306
86776.870059,0.80432404,-1.29275214,1.26531453,0.083721377,-0.153280243,0.0045310976
86776.880086,0.543145485,-1.23437301,1.55650288,0.0873984024,-0.00864130445,0.0351238921
86776.890114,0.159232384,-0.902326149,1.59111827,0.102790937,0.103323579,0.0584382713
86776.900142,-0.201010575,-0.397154165,1.5591683,0.092483975,0.146149084,0.0611427128
86776.910169,-0.763026253,0.288682538,1.57601715,0.031396918,0.166243702,0.0281650536
86776.920197,-1.44609839,0.850931989,1.66783735,-0.0495171882,0.224200994,-0.0478592925
86776.930225,-1.98240964,0.88654793,1.55593882,-0.138774365,0.321605563,-0.127729625
86776.940252,-2.3483012,0.170509529,1.18718675,-0.221474305,0.377232879,-0.17529954
86776.950280,-2.29787567,-0.853209797,0.410924734,-0.202753082,0.348986596,-0.153625935
86776.960308,-1.98749425,-1.55950762,-0.399577995,-0.117515676,0.258966953,-0.0877579749
86776.970335,-1.62420674,-1.82727476,-0.957891676,-0.00662484858,0.1136657,0.0123342732
86776.980363,-1.13479357,-1.8179037,-1.15808224,0.0697937608,-0.0538244955,0.168707892
86776.990391,-0.683737539,-1.65645174,-0.884795461,0.0512341894,-0.224140316,0.377679765
86777.000418,-0.633216947,-1.29975486,-0.174292153,-0.0446470641,-0.343245924,0.578668535
86777.010446,-0.555022312,-0.974558003,0.425920643,-0.114575014,-0.351234347,0.753253639
86777.020474,-0.370640654,-0.737494191,0.861913182,-0.129256487,-0.286320329,0.878990531
86777.030502,-0.346373424,-0.338158627,1.10328098,-0.110402912,-0.219648093,0.918593884
86777.040529,-0.395514033,0.132825366,1.14348147,-0.0948553756,-0.145336315,0.859034956
86777.050557,-0.471982575,0.524011964,0.987328199,-0.0634010434,-0.0855347514,0.739442229
86777.060585,-0.291100961,0.887810425,0.450690342,0.00644035358,-0.0336206891,0.593375027
86777.070612,0.112427452,1.00537436,-0.0252501766,0.0593544357,0.00568783376,0.438401967
86777.080640,0.140398505,0.916832667,-0.234626502,0.169000775,0.0152581697,0.28170529
86777.090668,-0.182418687,0.882298091,-0.255035668,0.284116149,0.0170613956,0.134341925
86777.100695,-0.643108665,0.984725834,0.170491591,0.325887561,0.0228918549,-0.00593154971
86777.110723,-1.33062229,1.08912283,0.618626404,0.328923315,0.048222512,-0.142016962
86777.120751,-1.82661775,0.938279798,0.871083162,0.280660182,0.107110061,-0.227192044
86777.130779,-1.8864104,0.580903699,0.712293114,0.237285554,0.19573766,-0.237335488
86777.140806,-1.67107823,0.211584101,0.277832022,0.164051816,0.238520548,-0.20296739
86777.150834,-1.45399966,0.025934396,-0.57426996,0.118365288,0.216499135,-0.145120606
86777.160862,-1.19789929,-0.112367977,-1.54679631,0.0894297808,0.149224758,-0.0874884576
86777.170889,-0.976527476,-0.114897568,-2.25822258,0.103623897,0.053658288,-0.0560341328
86777.180917,-0.827796247,0.121688653,-2.68429578,0.139731824,-0.0940166563,-0.0457298271
86777.190945,-0.451168627,0.250601412,-2.81313025,0.152427658,-0.304495335,-0.0345908888
86777.200972,0.107513303,0.272433049,-2.52793851,0.185112625,-0.52072376,-0.0173652992
86777.211000,0.80783234,0.0981354166,-1.74851832,0.248405576,-0.688569188,0.0054302942
86777.221028,1.4514757,-0.127708936,-0.817453863,0.297096938,-0.811127901,0.0173013359
86777.231056,1.84852344,-0.229983645,0.120891402,0.350733012,-0.876544952,-0.00252190512
86777.241083,2.02180452,-0.133094977,1.01805008,0.378773153,-0.845566273,-0.0281268656
86777.251111,2.20257259,-0.0478707353,1.84136436,0.328942478,-0.712655365,-0.0320046954
86777.261139,2.19816763,-0.151661511,2.40553437,0.259244114,-0.52078259,-0.0126911858
86777.271166,1.92361156,-0.213561648,2.65434137,0.164477125,-0.292208046,0.0207272246
86777.281194,1.63328524,-0.13233181,2.67456408,0.0732164532,-0.0476116054,0.0503538288
86777.291222,1.27077324,0.0128982792,2.34892635,-0.0023901558,0.179730996,0.0806898922
86777.301250,0.936649859,0.15484679,1.85413266,-0.0703476369,0.34137848,0.0908493251
86777.311277,0.59101432,0.333295404,1.07595633,-0.0871561766,0.435234934,0.0761340261
86777.321305,0.312571181,0.430933941,0.322342779,-0.0878171697,0.473841727,0.0460970327
86777.331333,-0.00740706139,0.472740481,-0.121624392,-0.101525262,0.464802682,0.00766042527
86777.341360,-0.441414126,0.519352594,-0.460948702,-0.114247978,0.43258962,-0.0250221528
86777.351388,-0.646994712,0.567359377,-0.883904065,-0.105752766,0.375035256,-0.0630196035
86777.361416,-0.64727236,0.563476837,-1.16590314,-0.0889074728,0.322022617,-0.106306091
86777.371443,-0.764696817,0.525884115,-1.41198218,-0.0487336852,0.291169912,-0.156938642
86777.381471,-0.967045728,0.494930174,-1.49558752,-0.0424222611,0.243828759,-0.233721569
86777.391499,-1.16735203,0.414505223,-1.43209733,-0.0530882217,0.190885916,-0.329020381
86777.401527,-1.13780737,0.191804794,-1.3239263,-0.0516573042,0.13358134,-0.412791193
86777.411554,-1.11493167,-0.281056829,-1.16068687,-0.0255910829,0.026229063,-0.474186093
86777.421582,-1.04105073,-0.897995061,-0.86110245,0.0197138153,-0.125876054,-0.49413985
86777.431610,-0.458670674,-1.47138027,-0.4965946,0.0703900382,-0.285243869,-0.425246
86777.441638,0.667305095,-1.72260807,-0.15162264,0.148626789,-0.393831611,-0.27468285
86777.451665,1.97504934,-1.71741621,0.274911166,0.17721796,-0.420633674,-0.0865235999
86777.461693,3.02048647,-1.48552585,0.87169691,0.177347124,-0.330350101,0.0893185362
86777.471721,3.55642378,-0.910432737,1.50729724,0.135047331,-0.127166629,0.222069651
86777.481748,3.30982247,-0.339872372,2.13356101,0.0626058877,0.140079185,0.298408389
86777.491776,2.21544829,0.0959308558,2.38481132,0.0179657154,0.455591619,0.294299662
86777.501804,0.610878712,0.50595053,2.0738369,-0.0422725901,0.751142085,0.193710715
86777.511832,-0.83076065,0.809334415,1.2329519,-0.103508517,0.929142714,0.0331825614
86777.521859,-1.66178404,0.768690928,0.0955208136,-0.0780604184,0.945066273,-0.114363484
86777.531887,-1.91263161,0.555853064,-1.07991004,-0.00199813861,0.789208472,-0.197658122
86777.541915,-1.62628281,0.436339672,-2.00214705,0.0551724732,0.500484288,-0.197255716
86777.551942,-1.04523357,0.584133621,-2.49821733,0.0729509369,0.157600924,-0.131935567
86777.561970,-0.401676209,0.745685315,-2.37652689,0.0536946841,-0.126350895,-0.0456699058
86777.571998,-0.0528285039,0.74541344,-1.58159056,0.0184352305,-0.264053375,0.0106072128
86777.582026,-0.256281723,0.651695657,-0.645707303,0.016879946,-0.263960421,0.0033410443
86777.592053,-0.852220859,0.50799475,0.062699325,0.0175606497,-0.184173718,-0.0578051358
86777.602081,-1.29678607,0.367497241,0.383629315,-0.00213822071,-0.0890623778,-0.136810213
86777.612109,-1.43718384,0.440198321,0.296663564,-0.0363404006,-0.000177512178,-0.21644485
86777.622137,-1.36237819,0.606036241,-0.273698868,-0.0537249818,0.0463702828,-0.277453333
86777.632164,-1.21291755,0.617700521,-0.968326561,-0.0614723824,-0.00543618994,-0.326222211
86777.642192,-0.871606674,0.43766661,-1.49687113,-0.0638260841,-0.124919437,-0.345559955
86777.652220,-0.295280877,0.113522627,-1.74849786,-0.050680723,-0.278250694,-0.313651025
86777.662248,0.147846336,-0.232288488,-1.47396021,-0.0552895889,-0.418074906,-0.250599623
86777.672275,0.424978832,-0.486482444,-0.886513955,-0.0426307842,-0.511315584,-0.177387729
86777.682303,0.667952891,-0.678101506,-0.339278717,-0.010067516,-0.566065133,-0.101516664
86777.692331,0.841036252,-0.908525807,0.276305835,-0.00754497014,-0.596056342,-0.0546002835
86777.702358,0.827167594,-1.00875611,0.883909325,0.00761720445,-0.583651304,-0.0542194545
86777.712386,0.673486267,-0.968060385,1.39321611,0.0446764231,-0.509251118,-0.108594276
86777.722414,0.430629551,-1.00055666,1.9054227,0.0630056262,-0.382205576,-0.19368574
86777.732442,0.169673845,-1.02277543,2.21803553,0.055058755,-0.230309516,-0.270528853
86777.742469,-0.0675320059,-1.06503732,2.30174608,0.0349452309,-0.0805727541,-0.319314241
86777.752497,-0.194678084,-1.14276959,2.20040109,0.010370913,0.0310035776,-0.321785629
86777.762525,-0.186629364,-1.11299814,1.88310157,-0.00435849838,0.078334339,-0.29202801
86777.772553,-0.0581501373,-0.949901993,1.48827223,-0.0301046073,0.0714825615,-0.235337585
86777.782580,0.0331238326,-0.750198628,1.19663204,-0.0565077178,0.047887221,-0.164311871
86777.792608,0.0680311876,-0.516096223,0.988427685,-0.0719710961,0.0380779989,-0.0926603153
86777.802636,-0.0227379015,-0.331563539,0.905045637,-0.0998767614,0.00695363432,-0.0410988554
86777.812664,-0.226368084,-0.217896536,0.898362798,-0.123509921,-0.0181860719,-0.0147596626
86777.822691,-0.309603125,-0.0943223976,0.800237355,-0.129841581,-0.0270045977,-0.0062487321
86777.832719,-0.229204039,-0.0657130468,0.747943104,-0.125496104,-0.0384372808,-0.0143580576
86777.842747,-0.140850778,0.0977303795,0.703125473,-0.100727908,-0.0484499671,-0.0433260575
86777.852775,-0.0295598565,0.284856295,0.719879624,-0.0891599357,-0.0454893336,-0.0905526951
86777.862802,0.118348147,0.404105847,0.828272778,-0.0822538286,-0.0295300744,-0.126393259
86777.872830,0.0718896166,0.554674156,0.883955503,-0.117759094,0.0194515828,-0.146553919
86777.882858,-0.16464155,0.607300708,0.896892141,-0.162568107,0.0793029293,-0.142833218
86777.892886,-0.41621115,0.545348329,0.768532888,-0.248946145,0.13909781,-0.108656861
86777.902913,-0.500508558,0.502854975,0.273849674,-0.32139799,0.19928579,-0.0519104935
86777.912941,-0.404135658,0.457697152,-0.413904042,-0.401268303,0.272712588,0.00043340493
86777.922969,-0.257755887,0.280421016,-1.13636491,-0.366101831,0.346183866,0.054983709
86777.932997,-0.286744081,0.097608397,-1.78682613,-0.282434881,0.34094891,0.0776647851
86777.943024,-0.808148859,-0.0147231931,-2.04922152,-0.201810643,0.25344196,0.0681162924
86777.953052,-1.34306968,0.0310770561,-2.17141991,-0.154774413,0.145157039,0.0705472231
86777.963080,-1.55514124,-0.0427186863,-2.12654207,-0.137278512,0.0406836234,0.106972337
86777.973108,-1.79813809,-0.296194448,-1.97583421,-0.119447842,-0.0651868805,0.161947176
86777.983135,-1.86415487,-0.578263231,-1.79633514,-0.0816482678,-0.134204552,0.217504188
86777.993163,-1.66167693,-0.625918314,-1.72881234,-0.0304663107,-0.175411642,0.264763832
86778.003191,-1.40910166,-0.40405251,-1.74760822,0.0102773914,-0.208296359,0.28534314
86778.013219,-1.17387339,-0.0154495346,-1.84566878,0.0229170192,-0.231658146,0.282229394
86778.023246,-0.934542511,0.244735772,-1.92456404,0.0352690294,-0.238253459,0.278182447
86778.033274,-0.715421037,0.308199322,-1.95839032,0.0497736707,-0.279583067,0.276033551
86778.043302,-0.469816775,0.347993865,-1.96031749,0.0701351315,-0.359398276,0.292500675
86778.053330,0.0118825994,0.398015677,-1.80177528,0.085537523,-0.470045418,0.342977673
86778.063357,0.531141889,0.433985766,-1.28606798,0.0916883647,-0.584680378,0.405191541
86778.073385,0.775447051,0.607002273,-0.524993011,0.0921480209,-0.678744018,0.444599122
86778.083413,1.02473263,0.759801592,0.343065249,0.113103904,-0.732258916,0.445324838
86778.093441,1.38606083,0.833508195,1.18114163,0.111856751,-0.755377054,0.393929809
86778.103468,1.56791173,1.05793157,1.96916949,0.100560419,-0.708005011,0.281178236
86778.113496,1.6515913,1.30893565,2.64953134,0.0781086385,-0.574060261,0.121540628
86778.123524,1.67149675,1.33874144,3.1610821,0.0302534942,-0.375559658,-0.0649288446
86778.133552,1.48636552,1.25958593,3.50135159,-0.00968806073,-0.124513052,-0.281162083
86778.143579,1.07157169,1.08710462,3.58590794,-0.0166634116,0.162447348,-0.502494991
86778.153607,0.734643624,0.763885354,3.22371246,-0.0156652592,0.404484481,-0.680747032
86778.163635,0.633321576,0.533306849,2.50342659,-0.0292825345,0.530057311,-0.806857526
86778.173663,0.601347791,0.38632966,1.7331074,-0.0482069552,0.558268189,-0.890883207
86778.183690,0.464969189,0.171747436,1.16316933,-0.0527774729,0.545535088,-0.936191857
86778.193718,0.276844618,-0.168619952,0.887290785,-0.0711191967,0.523846805,-0.965150237
86778.203746,-0.00293386149,-0.48105282,0.780007052,-0.0787494183,0.512645543,-1.00595582
86778.213774,-0.302969678,-0.594967588,0.752829123,-0.0918207467,0.522217512,-1.06826758
86778.223802,-0.508746225,-0.61589771,0.637850744,-0.0873373151,0.54840678,-1.14704001
86778.233829,-0.564671819,-0.659267334,0.264057764,-0.0645529032,0.558787465,-1.19705331
86778.243857,-0.477559937,-0.867124487,-0.198285607,-0.0447584279,0.532198489,-1.18821692
86778.253885,-0.46044762,-1.16098804,-0.603688947,0.0142763937,0.47505343,-1.12884498
86778.263913,-0.460083025,-1.68245887,-0.928785409,0.0733226687,0.369332075,-1.02770472
86778.273940,-0.411851932,-2.2569153,-1.08600251,0.134951934,0.212716654,-0.868599772
86778.283968,-0.187967334,-2.73001153,-1.15273562,0.210573465,0.0531123318,-0.651636302
86778.293996,0.176123021,-3.06780059,-1.01091073,0.291524261,-0.0794339925,-0.403169751
86778.304024,0.55266267,-3.1098888,-0.81846567,0.357590348,-0.146874815,-0.129198909
86778.314052,0.972548855,-2.78237505,-0.57162383,0.343778402,-0.162124068,0.168757945
86778.324079,1.32624086,-2.30478194,-0.39347734,0.269712687,-0.133257806,0.489055544
86778.334107,1.39774308,-1.60054514,-0.401117625,0.219367757,-0.0752874538,0.762590647
86778.344135,1.29573481,-0.723704954,-0.62777651,0.207230136,-0.0379145145,0.938821614
86778.354163,1.1401608,-0.0229245832,-0.619126755,0.15254958,-0.0635383874,1.01463509
86778.364190,1.02404012,0.435754128,-0.67351184,0.152848646,-0.120719381,1.02619827
86778.374218,0.89868297,0.777903212,-0.582312397,0.194830447,-0.161867082,0.969633579
86778.384246,0.6454865,0.932660789,-0.174471016,0.245400161,-0.204706416,0.854135215
86778.394274,0.524892474,1.04274789,0.273522927,0.281092912,-0.237327218,0.705325544
86778.404302,0.53748176,1.17923382,0.559714781,0.32144621,-0.208157077,0.561793923
86778.414329,0.586485006,1.28565224,0.751595781,0.291092545,-0.112019099,0.432424217
86778.424357,0.335190863,1.42681457,1.02056937,0.246439844,0.0398053154,0.29789117
86778.434385,-0.0785517048,1.53248269,1.08634095,0.201634556,0.246144637,0.176264331
86778.444413,-0.328965705,1.45854037,0.745059658,0.11569117,0.424005985,0.104815714
86778.454440,-0.601080226,1.39137998,-0.169707747,0.0520205796,0.504828393,0.0841823369
86778.464468,-0.833017927,1.240782,-1.20980541,-0.0277671963,0.460941076,0.10120713
86778.474496,-0.913190949,0.871124224,-1.98093007,-0.117906675,0.351225495,0.162703514
86778.484524,-0.832798731,0.487495275,-2.61062615,-0.133158073,0.196868703,0.273735762
86778.494552,-0.623852468,0.149110876,-3.01430164,-0.103882737,0.00942051224,0.404289246
86778.504579,-0.40021527,-0.109775695,-2.93963716,-0.0788074732,-0.212954491,0.532690346
86778.514607,-0.246847101,-0.163980383,-2.39178875,-0.0615014546,-0.406111717,0.641527891
86778.524635,-0.0907373788,-0.0273656344,-1.56359722,-0.0591016822,-0.52430892,0.731523275
86778.534663,0.078690821,0.0282239317,-0.636473611,-0.0636314526,-0.585967481,0.783754826
86778.544690,0.321919293,0.121778121,0.126487614,-0.0712070763,-0.603473008,0.790198088
86778.554718,0.511410184,0.291886193,0.790974437,-0.0858022645,-0.591397166,0.754828334
86778.564746,0.591575754,0.461689218,1.43529935,-0.103331991,-0.544328153,0.673083961
86778.574774,0.803713507,0.563026901,1.94686121,-0.107932337,-0.455092847,0.568728507
86778.584802,1.10842243,0.599600289,2.30204068,-0.114378788,-0.327780694,0.449901998
86778.594829,1.13641387,0.705004418,2.6236113,-0.112402983,-0.167945474,0.313497037
86778.604857,0.868776638,0.830819102,2.85544613,-0.107171208,0.0101414304,0.150602654
86778.614885,0.586200344,0.780627888,2.8278187,-0.0871197358,0.187110618,0.00424569659
86778.624913,0.380241718,0.610639131,2.70396728,-0.0803398564,0.332541049,-0.112983994
86778.634941,0.10532836,0.367605743,2.43358908,-0.119398043,0.406334847,-0.203922942
86778.644968,0.0127332248,0.146092917,1.8707436,-0.131873101,0.409981489,-0.268707007
86778.654996,0.15657281,-0.00180726862,1.07490244,-0.113827512,0.380934924,-0.300160795
86778.665024,0.280472307,-0.160024412,0.595517331,-0.0988490954,0.307483077,-0.309396893
86778.675052,0.205620042,-0.166982341,0.291799173,-0.0710334405,0.224807933,-0.310751647
86778.685080,0.155932612,-0.197161718,0.276764685,-0.0582247041,0.164653242,-0.305659682
86778.695107,0.197728558,-0.353879197,0.465765162,-0.0688943937,0.121019743,-0.261425644
86778.705135,0.277170782,-0.387170276,0.58103054,-0.0816245675,0.101633795,-0.183048293
86778.715163,0.180043556,-0.271994475,0.701584673,-0.12153177,0.102075346,-0.0951176435
86778.725191,0.0488145921,-0.123797864,0.778484957,-0.14695245,0.0979796723,0.0157026164
