t,ax,ay,az,gx,gy,gz
92633.171337,-0.991491421,-0.170469089,0.503258234,0.0928671188,-0.0665665062,-0.0648398666
92633.181363,-0.915437159,-0.308774549,0.049113952,0.0230930909,-0.0251412985,-0.0468283711
92633.191389,-0.935165941,-0.193762232,-0.151751735,-0.0547588304,0.0153653801,-0.0483855238
92633.201415,-0.707980915,0.0446322264,-0.106454795,-0.0872427323,0.045947524,-0.0142475261
92633.211441,-0.662652703,0.125552195,0.0111182756,-0.0464737364,0.0210669416,-0.00692516436
92633.221468,-0.503536748,-0.242823802,0.0633347851,0.0426353677,-0.051485555,0.0306696141
92633.231494,-0.58542242,-0.487964812,-0.324113211,0.17513561,-0.106563719,0.0221102157
92633.241520,-0.31072201,-0.834268532,-0.824203837,0.305165527,-0.110774183,0.0597169803
92633.251546,-0.37384789,-1.06719597,-0.285515477,0.343143789,-0.0877034829,0.079853143
92633.261573,-0.260113192,-1.25416239,0.626539746,0.260215876,-0.0275330839,0.108025122
92633.271599,-0.339587236,-1.33681203,1.09004281,0.121706752,0.0308170414,0.124706897
92633.281625,-0.292869652,-1.49193625,0.355690422,-0.0608729147,0.0423546529,0.149959798
92633.291651,-0.490977601,-1.33415041,0.0944290115,-0.264043602,0.0172447732,0.195237245
92633.301677,-0.372428415,-1.22430954,0.344704334,-0.346422913,-0.0129008794,0.188254978
92633.311704,-0.291367066,-0.447633934,0.732620532,-0.29028401,0.0955286606,0.245961155
92633.321730,-0.330791058,-0.413451934,-0.825033858,-0.157861518,0.0779794885,0.22236314
92633.331756,-0.406836296,-0.212136403,-0.644322486,-0.0121634328,0.0219039733,0.257122185
92633.341782,-0.564794167,-0.266293964,-0.330467549,0.0589674688,-0.0593040639,0.26361018
92633.351809,-0.505026366,-0.261170812,0.0370500047,0.0811947487,-0.0475227737,0.257340308
92633.361835,-0.337203738,-0.368595615,-0.0165798786,0.106020731,-0.0306883973,0.262650098
92633.371861,-0.402201038,-0.547806775,0.113540539,0.0902026198,-0.0582667643,0.261159803
92633.381887,-0.63207629,-0.636304193,0.0297481573,0.0560462452,-0.0231255533,0.26178139
92633.391913,-0.655247322,-0.510637357,0.0561562717,-0.00629036406,0.0240909609,0.246099647
92633.401940,-0.582843984,-0.511860944,0.35636613,-0.0793555179,-0.0225329993,0.240011658
92633.411966,-0.236467546,-0.092143923,0.0376877181,-0.12135836,0.0588803648,0.221901889
92633.421992,-0.242345955,0.453433776,-0.0205978821,-0.209142285,0.154309957,0.200392331
92633.432018,-0.416119016,0.778449647,0.511575396,-0.289432856,0.140200792,0.185550268
92633.442044,-0.742080241,0.947117968,0.276134655,-0.213742095,0.051904483,0.159025456
92633.452071,-0.559872055,1.47327827,-0.983862484,0.00266558027,0.00682408992,0.167843993
92633.462097,-0.381836076,0.979639159,-0.520708381,0.0878515816,-0.0544701607,0.159402545
92633.472123,-0.634931387,0.686076483,-0.000780836489,0.155568299,-0.0528155395,0.130918186
92633.482149,-0.446509587,0.218379404,-0.0232767459,0.2001885,-0.0898696945,0.120274867
92633.492176,-0.698862665,0.000302104567,0.104446548,0.174056766,-0.114161456,0.112484056
92633.502202,-0.235961405,-0.0702590033,0.0134885119,0.0727349497,-0.0328839102,0.102916646
92633.512228,-0.320049263,0.13175189,0.215512136,-0.0654916339,0.0669015406,0.0771428378
92633.522254,-0.414719049,0.308831609,0.488572706,-0.199468079,0.0913110061,0.0834555955
92633.532280,-0.182227349,0.6002142,0.667500702,-0.219551774,0.0737759604,0.0577587554
92633.542307,-0.388487205,0.7397901,-0.407487076,-0.0543289953,0.0443991593,0.0618959771
92633.552333,-0.538817686,0.533240485,-0.724676126,0.0540129221,-0.0221513675,0.0689003574
92633.562359,-0.658889332,0.0686237995,0.120485828,0.165825469,-0.145409377,0.0300309894
92633.572385,-0.517550916,-0.282314375,-1.23336331,0.313079116,-0.0995859744,0.0410857716
92633.582411,-0.421486753,-0.450384658,-0.762619195,0.346197364,-0.0788657831,0.0462483087
92633.592438,-0.215399861,-0.877731607,1.15431859,0.237752391,-0.0835249813,0.0537285948
92633.602464,-0.552278677,-0.963388321,0.720645432,0.0441014371,-0.0254808513,0.059949472
92633.612490,-0.490308762,-0.941193806,0.941102539,-0.169558915,0.057302708,0.0698103564
92633.622516,-0.73372472,-0.753363469,0.273974847,-0.289137783,0.13980612,0.0680468188
92633.632542,-0.738315336,-0.479858626,-0.386474098,-0.299351545,0.144914059,0.0877273114
92633.642569,-0.545378652,-0.195898714,-0.148837893,-0.224906328,0.0540504551,0.082335736
92633.652595,-0.386105314,0.361156511,-0.706034553,-0.0368621223,0.067260003,0.094484012
92633.662621,-0.425864749,0.406346007,-0.28310374,0.0443088985,0.0134257993,0.0998004855
92633.672647,-0.699288855,0.075160727,1.01555368,0.0246339957,-0.0610319243,0.0648536788
92633.682673,-0.778048649,0.116286262,-0.175698427,0.00338676434,-0.0455624217,0.07110146
92633.692700,-0.81980039,0.368675983,-1.05357666,0.0184461414,0.0276113937,0.0619676145
92633.702726,-0.641453117,0.309612019,-0.0134287211,-0.0242451303,0.0429858214,0.0478762979
92633.712752,-0.280591496,0.354309129,1.04663504,-0.052782888,-0.0347114482,0.042626399
92633.722778,-0.16648327,0.645086448,0.122199646,-0.0074803843,0.0141575581,0.0195775399
92633.732804,-0.163626785,0.760836102,-1.009281,0.0447596475,0.040149743,0.0352113576
92633.742831,-0.778104398,0.122913462,-0.186462398,0.0243451889,-0.0169971657,0.0207107136
92633.752857,-0.838494862,-0.0694278863,0.0931775501,-0.0272849821,-0.0618218945,0.0341948302
92633.762883,-0.602106538,0.0886973772,-0.700540632,0.016033731,-0.0403501594,0.0329798976
92633.772909,-0.589190979,-0.01814347,-1.29170854,0.110258502,-0.0151989979,0.0160637641
92633.782935,-0.488275211,0.0086551781,-0.0113449006,0.132717458,0.0277854858,0.0196182852
92633.792962,-0.309914128,-0.27668563,1.88635101,0.058661615,-0.0829969512,0.0225014234
92633.802988,-0.596319223,-0.302154509,1.38598156,-0.00781407811,-0.0744484754,0.0242769526
92633.813014,-0.413427402,0.32262881,-0.30747538,0.004456969,0.0285516775,0.0338962929
92633.823040,-0.523960126,0.225078846,-0.446186516,-0.017786019,0.0659256785,0.0224119419
92633.833066,-0.781511065,0.150059079,0.460623208,-0.0921806195,0.0032223526,0.0332137229
92633.843093,-0.165211624,0.0653073319,0.285175455,-0.0366007224,-0.0431102568,0.0423856484
92633.853119,-0.183725588,0.217100086,-1.16731,0.0449263617,0.0611532948,0.0631958576
92633.863145,-0.547442233,0.240606762,-0.190681477,-0.01239871,0.0425646997,0.00208856015
92633.873171,-0.64030424,0.02074331,1.08704772,-0.07468232,-0.0345271581,0.00665961009
92633.883197,-0.424231339,0.648334124,-0.357830772,0.0086141634,0.0188327378,0.0097752422
92633.893224,-0.373911238,0.133559085,-0.55867717,0.039296174,-0.00234764884,0.0218833046
92633.903250,-0.468693545,-0.0797126037,0.516089074,0.0429247297,-0.101541342,0.014422458
92633.913276,-0.173529079,-0.293150607,-0.527837795,0.132619453,-0.0149625109,0.0248268967
92633.923302,-0.54331328,-0.103059924,-0.10698671,0.121326861,-0.0196331625,0.01646457
92633.933328,-0.512066055,-0.565879972,0.639259527,0.0472276001,-0.0869280489,0.0189996319
92633.943354,-0.593295163,-0.269294552,0.0307079422,0.00255014563,-0.0221051087,0.0121803427
92633.953381,-0.301430907,-0.174143138,-0.42004319,-0.0626600184,0.0595378226,0.0150765305
92633.963407,-0.0556779442,0.315927851,1.01074598,-0.245586964,0.0510972014,-0.0207195493
92633.973433,0.0682884126,0.683482594,0.160392891,-0.212428214,0.123550629,-0.0157522211
92633.983459,0.278299017,0.944908914,-0.862113588,-0.134800526,0.0889596252,0.00888201817
92633.993485,-0.379417251,0.75518173,-0.223325856,0.012784407,-0.0311558598,-0.00375761056
92634.003512,-0.312403168,0.431148367,-0.0846527134,0.146048976,-0.0798128785,-0.0149831014
92634.013538,-0.558583476,0.0597894453,0.40195533,0.204281134,-0.181105958,-0.00575950892
92634.023564,0.115950638,-0.169549965,-0.606206983,0.229783831,-0.143176393,-0.0220330214
92634.033590,-0.182436516,-0.201275256,-1.15769169,0.175069985,-0.00753628532,-0.0150675239
92634.043616,-0.537047534,-0.263296791,0.475516825,-0.0360321351,0.0456875211,-0.0489469288
92634.053643,-0.0484391977,-0.146812721,2.21380134,-0.239022272,0.0161136503,-0.0579569383
92634.063669,0.631728132,0.248675137,0.908359376,-0.197283613,0.109904325,-0.0488915337
92634.073695,-0.390141146,0.322538245,-1.57054126,-0.0334118516,0.0634398891,-0.0572863488
92634.083721,-0.567972944,0.000812355645,-0.987644925,0.0420213877,-0.0560620108,-0.0286371285
92634.093747,-0.618935581,-0.0677959925,0.106347997,0.0590714752,-0.0690502466,-0.0376143796
92634.103773,0.129174971,0.293105888,0.176738461,0.013031282,0.0346484541,-0.0535645826
92634.113800,0.102069266,-0.0682476635,0.249029791,0.00336054551,-0.0272996032,-0.0354524223
92634.123826,0.0846543405,-0.28223309,-0.377532667,0.0886900923,-0.0197783036,-0.035509151
92634.133852,0.172196787,0.025435669,0.263537039,0.0239566337,0.0403944871,-0.0305125253
92634.143878,-0.432371245,-0.0982240649,0.859988436,-0.033604397,-0.025581598,-0.0474198727
92634.153904,-0.861577193,0.0288157582,-0.183896931,-0.0617843703,-0.0186387373,-0.047618006
92634.163931,0.0787512083,0.0757331566,-0.606881521,0.0121966475,-0.0255949141,-0.0268280419
92634.173957,0.388329454,-0.237130285,-0.792755975,0.0943786032,0.0430137089,-0.0173937945
92634.183983,-0.329736836,-0.393449595,-0.320737013,0.121107688,0.00713640056,-0.00554565677
92634.194009,-0.515704704,-0.408988598,1.46881708,0.0191823854,-0.0652613656,-0.0344851656
92634.204035,-0.311764688,-0.471322341,1.00163212,-0.0550106191,-0.125142263,-0.0399670122
92634.214061,0.36785252,0.315796918,-1.55913724,-0.0601174966,0.121143928,-0.00792172981
92634.224088,0.259782588,0.181841908,-0.239166399,-0.125739919,0.138875528,-0.0336774258
92634.234114,-0.010999872,0.0946140356,1.29499839,-0.167075905,0.0719646646,-0.00605192372
92634.244140,-0.625485148,-0.0918105446,0.208690181,-0.0683205598,-0.10450145,-0.0183501361
92634.254165,-0.471726081,0.175047992,-1.47906826,0.0778901777,-0.0142477171,0.00405184262
92634.264191,0.282535504,0.257603727,-0.429057687,0.100284962,-0.00256682676,-0.0257987293
92634.274217,0.428123047,-0.29391445,0.707023149,0.0433428488,-0.00780899333,0.00701540838
92634.284244,-0.366619035,0.0799558523,0.372954276,-0.00796081823,0.0185621607,-0.0304890895
92634.294270,-0.0724440048,-0.359923027,0.0997768023,-0.0191655368,-0.0791739838,-0.00130750296
92634.304296,-0.263021773,-0.240472782,-0.84371167,0.0216623205,-0.00667368783,0.000158300984
92634.314322,0.0401303081,-0.0552833151,-0.684946757,0.0398272067,0.119918077,-0.00318902602
92634.324348,0.177249759,-0.39805234,1.83441624,-0.00629554361,-0.0612192245,0.00556158869
92634.334374,0.294131633,-0.652470607,0.522972404,0.0617394312,-0.102499017,0.00939387771
92634.344401,0.0905666059,0.00320400002,-1.58510871,-0.0280184154,0.0559305719,0.00545026864
92634.354427,-0.0982660219,0.228261842,-0.63423773,-0.0850891569,0.10254441,0.00740263182
92634.364453,-0.0728405755,0.0722064255,0.898341256,-0.152100163,0.091971664,0.00600473898
92634.374479,-0.171238447,0.158974517,1.25207637,-0.146662252,-0.0383139045,-0.00308862479
92634.384505,0.0504581979,0.137694925,-0.5645937,0.0499954238,-0.0927116366,-0.00288595782
92634.394531,0.186020894,0.126366068,-2.09500645,0.186220375,-0.000397682185,-0.0249840716
92634.404558,0.451127892,-0.170579838,0.29299402,0.147041006,-0.0164887679,0.0164184974
92634.414584,0.447576739,-0.438630069,1.4611464,0.0333613209,-0.0813833417,-0.00275732727
92634.424610,0.0292347972,-0.142109731,0.0998790936,-0.0100114527,0.0303328002,-0.0238266612
92634.434636,-0.217496468,0.0433866651,-0.226274768,-0.0755979144,0.101789942,-0.017846
92634.444662,-0.213708036,-0.0618965775,1.04906665,-0.176171141,-0.0136434461,-0.0105590584
92634.454689,-0.0726421851,0.20878897,-0.0106428898,-0.161122414,0.0366657956,-0.0122096842
92634.464715,0.332925657,0.608445145,-1.20675939,-0.00623775318,0.00584450108,0.0102980206
92634.474741,-0.095965362,-0.0421127765,-1.25474162,0.155382035,-0.0460474582,4.40519187e-05
92634.484767,0.0778929383,-0.257615585,-0.185367589,0.288949934,-0.0633995475,0.0106056159
92634.494793,-0.238155463,-0.555999726,0.988697818,0.16147427,-0.168552594,-0.00295573344
92634.504819,-0.558754668,-0.536823024,0.388658626,0.0314321271,-0.0605832578,0.00433839894
92634.514845,0.0327946543,-0.123014077,-0.0571673251,-0.106296706,0.120054698,0.00096949971
92634.524872,0.32023386,-0.190067761,0.837735688,-0.220382276,0.0845209344,0.00490858163
92634.534898,-0.409782177,-0.0624374794,0.0690823888,-0.182167249,0.0874051435,-0.00983547663
92634.544924,-0.0287208358,0.579958398,-0.442028812,-0.118455099,0.0736863969,0.0096599277
92634.554950,-0.341238218,0.351017321,0.254764535,-0.00501616111,-0.0321457589,0.00597118296
92634.564976,-0.176625474,0.215076124,-0.814765562,0.0710024438,-0.0967852042,0.0329719068
92634.575002,-0.593075638,0.134961627,-1.07034659,0.15301661,-0.0722545625,-0.00043025763
92634.585029,0.411850067,-0.0723030216,-0.304108534,0.229920445,-0.0152333544,0.0127135081
92634.595055,-0.121666022,-0.399189746,0.873490307,0.173355964,-0.0803942473,0.00865618176
92634.605081,-0.408437083,-0.66926319,0.860928348,0.0427715979,-0.13323562,0.00707266609
92634.615107,-0.727143515,0.0175692648,-0.218548558,-0.139711934,0.0795472174,0.00319457137
92634.625133,-0.000530304082,-0.0164940406,0.55591898,-0.183915081,0.125224693,0.0144871728
92634.635159,0.0789751167,-0.262556366,1.08284208,-0.146746131,0.0288033469,0.00973556134
92634.645186,-0.328829001,0.174856872,-0.465549973,-0.020638796,0.010293578,0.0172677798
92634.655212,-1.02116511,0.269871124,-0.789703017,0.02126551,-0.0180174222,-0.000336248067
92634.665238,-0.126410532,0.256600249,-0.233704042,0.105734055,0.0896291493,0.00233783236
92634.675264,0.130890524,-0.0620609377,1.35816826,-0.00955658451,-0.0550824979,0.00817095431
92634.685290,-0.841894149,-0.160637869,-0.253578955,-0.0311071505,-0.0650152878,0.00286620333
92634.695316,-0.959873755,0.47006978,-2.06600364,-0.00781700805,0.0387963264,0.00844898763
92634.705342,0.147551727,0.467138037,-0.273924993,-0.00763884232,0.124611898,-0.00325001274
92634.715369,-0.486480253,0.0854769538,1.49363413,-0.115005376,-0.0217259002,-0.0150284922
92634.725395,-0.369106906,0.276276954,0.61032394,-0.100981707,-0.0676475854,-0.0474724515
92634.735421,0.436810138,0.700164045,-1.27624793,0.11266799,0.0640204309,0.00597079879
92634.745447,0.299201173,0.337904997,-0.173964151,0.0778098754,0.0565542562,-0.0532163574
92634.755473,0.390127188,0.0221997011,1.95897084,-0.0594001771,-0.0397648232,-0.0336903302
92634.765499,0.482917408,0.032341375,-0.28445457,0.032577151,0.00773798232,-0.00758575705
92634.775526,-0.51703661,0.16385153,-2.33156304,0.0656163297,0.0775354414,-0.0492969869
92634.785552,-1.09077656,-0.00139244266,-0.16631802,0.00768032253,0.050958155,-0.0569304047
92634.795578,-0.46777559,0.0173040745,2.11584891,-0.0852482864,-0.0156573548,-0.0578838183
92634.805604,-0.138403651,-0.0310992333,0.364429609,-0.0315437787,-0.0580913664,-0.0506325556
92634.815630,-0.738881372,0.365817963,-1.32783959,0.0228470243,0.0461918956,-0.0437485544
92634.825656,-0.169116541,0.144710703,0.0901269304,0.0283331364,0.0602501913,-0.0627363591
92634.835682,0.218329811,-0.040561565,1.36356047,-0.0880928063,-0.0426029542,-0.0378938584
92634.845709,-0.850127724,-0.150671278,-1.07777177,0.0833252869,-0.0343202555,-0.0326612784
92634.855735,-0.437056334,0.119060732,-1.58307224,0.0392220034,0.0847851022,-0.0378991855
92634.865761,-0.676411472,-0.438515575,0.863262928,0.119266776,-0.0871571021,-0.00541181826
92634.875787,0.0961541419,-0.439030539,0.74756325,0.0918244994,0.00604447839,-0.0222874718
92634.885813,-0.436135895,-0.343638539,0.462960711,0.0337606571,-0.0942879782,-0.00237847735
92634.895839,-0.370456531,-0.885903953,-0.887995049,0.0566843501,0.0293588548,0.0338679435
92634.905865,-0.614482035,-0.573692619,-1.21916236,0.0262076664,0.0266570787,0.0473443376
92634.915892,-0.390240661,-0.575629944,1.39013401,0.00292285161,0.0689547344,0.0237458007
92634.925918,0.0687868225,-0.602896173,1.88263228,-0.122153307,-0.0579086707,0.0239237001
92634.935944,-1.07894138,-0.418181885,-1.66075871,-0.121661151,0.0517805389,0.0174098754
92634.945970,-0.790595704,0.164573963,-1.18146654,-0.205303865,0.117628535,0.0403016092
92634.955996,0.15381034,0.901572242,0.787334119,-0.199197757,0.224627687,0.033297229
92634.966022,0.259003895,0.182710892,1.9297009,-0.166652875,-0.0216862203,-0.000521988247
92634.976048,0.121281715,0.378236934,-0.11932889,0.0516613624,-0.0788230018,0.0479296999
92634.986075,-0.223639172,0.385209331,-1.55751285,0.127577422,-0.0673839317,0.00140161336
92634.996101,-0.570392682,0.52643782,-1.75838555,0.170743001,0.0855784549,0.0242789661
92635.006127,-0.873590214,-0.157187071,0.876325239,0.0262817028,-0.10849435,0.0105735402
92635.016153,-0.239877556,-0.17141037,1.29009309,0.0366051807,-0.0488171743,-0.00135555734
92635.026179,0.395403229,0.30746485,-0.415344803,-0.0463584126,0.0630552976,-0.0209287262
92635.036205,-0.0696727682,0.0726889483,-0.1553822,-0.0693111294,0.0440821408,-0.00270737765
92635.046231,-0.218980076,0.497727091,0.242082748,-0.0702514895,0.0799786283,-0.0317147939
92635.056258,-0.456463593,0.818495826,-0.173984609,0.0029966212,0.045764195,-0.0108678365
92635.066284,-0.818582393,0.0952948027,0.640135725,-0.0327334129,-0.105867939,-0.0365423082
92635.076310,-0.462458523,0.411349953,-0.793234698,0.0474945805,-0.0195932423,-0.0059100954
92635.086336,-0.0970531846,0.422862441,-0.864018545,0.0299038678,0.00586737809,-0.0441245927
92635.096362,-0.108004759,0.54158249,0.7667268,0.0370952017,0.0993248953,-0.0463861494
92635.106388,-0.324590961,0.280184227,1.28283274,-0.026014524,-0.0349990965,-0.0606684206
92635.116414,-0.294036121,0.335316003,0.839986682,0.019091168,-0.11802713,-0.0525753318
92635.126441,-0.0991921968,0.307438474,-1.99012685,0.0624120101,0.0389350487,-0.025361559
92635.136467,-0.693959696,0.546772898,-1.35748245,0.00968781348,0.0517081043,-0.070905876
92635.146493,-0.138938187,-0.113169979,0.912844997,0.0395149491,-0.0537469515,-0.0766258134
92635.156519,0.353070582,0.225667497,0.357505947,0.129155619,0.0304227884,-0.0739735706
92635.166545,-0.492109893,-0.0739611641,0.196208886,0.0625755317,-0.0741733925,-0.0773011861
92635.176571,-0.383437374,-0.00733326742,0.901466694,-0.0132779558,-0.0196728704,-0.0935142456
92635.186597,0.040347015,0.158835839,-0.855144918,-0.000626076811,0.0385526179,-0.0833790569
92635.196623,0.0998225465,0.378952572,-0.082612732,-0.0416374267,0.0743694736,-0.0738113864
92635.206650,-0.178232745,0.0921306944,0.671418752,0.0380890942,-0.0219043323,-0.104629484
92635.216676,-0.379796971,-0.387256659,-0.927996804,0.212145311,-0.0812342332,-0.0804794027
92635.226702,-0.357326708,-0.903324094,-0.25855499,0.364709554,-0.216156633,-0.061644469
92635.236728,0.222556544,-0.870305037,-1.02857724,0.250466613,0.0477051048,-0.0501912726
92635.246754,-0.145440245,-0.299261985,1.73951852,-0.097405883,0.144232167,-0.0800993709
92635.256781,-0.158717604,-0.901141562,1.88467343,-0.346678289,0.0480467884,-0.0537186308
92635.266807,-0.629572272,-0.826421545,-1.21825284,-0.232417765,0.014033695,-0.0668368308
92635.276834,0.228122581,0.261363225,-0.278578372,-0.134472566,0.117027989,-0.0218517767
92635.286860,-0.410825658,-0.413507318,-0.636961017,-0.0160950483,-0.0385368371,-0.0741144536
92635.296886,-0.0313787391,-0.374699229,-0.30543423,0.0942503712,0.0349110125,-0.0128186016
92635.306912,-0.411196939,-0.159953741,0.501037051,0.0113573489,-0.0214017944,-0.0261988552
92635.316938,-0.427053776,-0.324483392,0.372245251,-0.0660088085,-0.114951977,-0.0256393241
92635.326964,1.27472545,-0.485038038,-1.02069613,0.127615777,0.0316616914,0.0257261278
92635.336990,0.512680166,-0.109346256,-0.486475857,0.105711286,0.142016424,0.0114585081
92635.347016,-1.25343504,-0.375741943,1.39697993,-0.144529986,-0.000862430078,0.00979003812
92635.357043,-0.469998672,-0.236215655,0.888632347,-0.199159952,-0.0695429535,-0.0147621768
92635.367069,0.707032599,0.66962358,-1.15363511,-0.070028583,0.0844095929,0.0703204902
92635.377095,-0.397992444,0.357314485,-1.44566283,0.0347604095,0.0223395603,0.0171789782
92635.387121,-0.675148539,0.17332526,0.855904966,0.0314144134,0.0613138585,0.0183475738
92635.397147,-0.179646813,-0.0434336864,1.64580154,-0.0395122231,-0.102706501,0.0128060676
92635.407173,0.305977901,-0.20972209,0.00955351052,0.0412750333,-0.0453563945,0.0403434219
92635.417199,0.95063385,0.326260919,-0.427023551,0.0487611792,0.120657882,0.039920512
92635.427225,-0.310889549,-0.0525413594,-0.129024355,-0.126953396,-0.0339793728,0.0355843486
92635.437252,-1.39514507,0.17446526,-1.73723989,-0.028111231,0.0716892688,0.0188125627
92635.447278,0.818377662,0.496465145,0.07270584,0.0652762405,0.0617756492,0.0517025994
92635.457304,-0.180677635,-0.290817415,0.797584295,0.152487842,-0.115466239,0.016369644
92635.467330,-0.0767137865,-0.547376859,0.168866121,0.176987586,-0.184190186,0.0382062303
92635.477356,0.586607499,-0.0508051833,-0.308297803,0.0815963573,-0.00262757297,-0.00631090124
92635.487382,-0.591506891,-0.279421467,-0.0925589565,-0.0142026055,0.0597809425,0.0133312432
92635.497408,-0.0391413861,-0.190732143,0.928024446,-0.235339256,0.00353258476,-0.030072956
92635.507434,0.898976216,0.402240399,0.71260358,-0.166954073,-0.0110080081,0.00302534261
92635.517461,0.737285844,0.783762658,-2.79956458,0.0508003622,0.228051706,0.0408190595
92635.527487,0.0653831515,0.496239848,-0.497300033,0.0473736725,0.0947336017,-0.00628533458
92635.537513,-0.693670357,-0.435507589,2.92186427,0.0195391118,-0.256085383,0.0225537712
92635.547539,-0.0764798864,-0.290703963,-1.5348147,0.151966391,0.00378372078,0.0204197796
92635.557565,-0.706985547,0.190279153,-0.895272346,0.158083675,-0.113573799,0.024204397
92635.567591,0.399407313,-0.620997026,0.901056944,0.0668475083,-0.0750471742,2.52913567e-05
92635.577617,0.353050161,0.00747740302,0.26980253,-0.0317517728,0.0801349564,0.0132489515
92635.587643,-0.0531433979,-0.387084517,0.0471417752,-0.0454034009,0.0608952104,0.0339342536
92635.597669,-0.229106936,-0.396912595,1.20668357,-0.124730448,-0.0739773826,0.00914475451
92635.607696,-0.0408200599,0.24923847,-0.969268141,-0.091036933,0.042380648,0.00375504874
92635.617722,0.248399992,0.477510305,-1.83409984,0.0530238352,0.111177555,0.0184106896
92635.627748,0.477264606,0.290788715,1.57708515,-0.00980253097,0.019445237,-0.00795486999
92635.637774,-0.0554777089,-0.251686981,1.08212663,-0.0727753662,-0.165136056,-0.0202413635
92635.647800,0.529816156,0.496866309,-1.77292553,0.0303371637,0.084999217,0.0271522509
92635.657826,0.0133791204,0.0818178103,-0.440559909,0.126632271,0.0746033026,-0.0133357873
92635.667852,-0.0568754058,-0.289054844,1.19415259,0.0581922322,-0.040818637,0.00535081456
92635.677878,-0.271449428,-0.607963649,0.616999764,0.0944266743,-0.289268391,9.21370345e-05
92635.687904,0.885858887,-0.653466632,-2.74007195,0.163753537,0.254541917,0.0564006822
92635.697931,-0.341192041,-0.078177357,0.977622298,0.137171996,0.208797051,0.0257397102
92635.707957,-0.405253302,-0.654704138,2.77994586,-0.149811032,-0.053560795,-0.0223702962
92635.717983,0.827227762,-0.586219946,-1.28569673,-0.256630661,-0.353755371,9.70944646e-05
92635.728009,0.218184284,0.616302544,-2.23175534,-0.0663573691,0.380412115,0.0370417939
92635.738035,-0.412851867,0.0860627544,-0.160084094,-0.0447194488,0.239402233,-0.0118330686
92635.748061,-0.946773962,-0.307144299,4.59094548,-0.243443193,-0.0288025809,-0.00490219203
92635.758087,0.68732727,-0.445050274,0.557877129,-0.17034662,-0.4430642,-0.0230859878
92635.768113,0.97478191,0.691431069,-4.31797593,0.173382265,0.256670458,0.0523304747
92635.778139,-0.123813757,0.239580506,-1.43983983,0.159708259,0.108228242,0.0219571194
92635.788166,-0.406320566,-0.554447236,3.00275099,-0.0280810878,-0.0914142968,0.0187219115
92635.798192,-0.453857247,-0.223661586,1.14352481,-0.0977254161,-0.176316933,-0.0166286236
92635.808218,1.24892538,0.146321299,-1.78619593,0.0949753276,0.00588296145,0.0677746715
92635.818244,0.567195454,-0.321737454,-1.40491581,0.208144767,0.123022897,0.0441772001
92635.828270,-0.198075509,-0.204521197,1.64304085,-0.0356878736,0.0913477896,0.0347570697
92635.838296,-0.746009763,-0.105754643,3.23496751,-0.331144574,-0.164934592,-0.00661806633
92635.848322,0.123002721,0.468212023,-3.33047705,-0.000196725026,0.230264394,-0.00133062677
92635.858348,1.34053823,0.815575847,-1.729018,0.191070182,0.215650035,0.0615798937
92635.868374,-0.652309808,-0.2537076,3.50571396,0.114075517,-0.0299695802,0.0375384757
92635.878401,-0.757417073,-0.513176739,-0.814196822,-0.0498758615,-0.39510359,0.0277204657
92635.888427,-0.660448106,0.169003616,-1.95807401,0.0639803983,0.0941028355,0.0462672518
92635.898453,0.721492501,0.138971429,0.0911451675,0.0560838594,0.16641271,0.0228452826
92635.908479,0.639598792,-0.431963012,1.65086117,-0.12033991,-0.0443322712,0.041521232
92635.918505,-0.103245427,-0.32442925,1.30180632,-0.100694569,-0.0451703684,0.0161407752
92635.928531,-0.514088318,0.38357983,-1.51294423,0.0207279972,0.094840525,0.0476451697
92635.938557,-0.264746222,0.0640172556,0.422781845,0.014955862,-0.0497424842,0.0116088739
92635.948583,0.301297944,-0.320451506,0.293904705,0.029469823,0.0372041336,0.053503591
92635.958609,-0.438507629,0.0303875741,-1.27791908,-0.0190090281,-0.052438935,0.00696964784
92635.968636,-0.999481616,-0.164798039,-0.789897078,0.0721925176,-0.0283913889,0.0564969884
92635.978662,0.108037938,-0.311191949,-0.419717027,0.0694462634,0.0290966707,0.0375967989
92635.988688,0.0599433808,-0.0837678339,1.86192208,-0.0947293588,-0.0758657025,0.025315897
92635.998714,-0.218884708,0.14378462,0.214753427,-0.025671192,0.0501361771,-0.0196526429
92636.008740,0.235640427,0.535337421,-1.18501459,0.0330222151,0.0932668655,0.0435806544
92636.018766,-0.427328976,-0.252433488,1.76824076,-0.063540014,-0.128180833,-0.0128951376
92636.028792,-0.249985747,0.380378038,-0.189735721,-0.0172473476,0.0240089672,0.0132970525
92636.038818,-0.378782862,0.126342523,-1.44256195,0.0453124396,0.0201391282,0.00597628847
92636.048844,-0.192828749,-0.147197939,0.303708891,-0.0455117398,0.0117584274,0.0169951165
92636.058870,-0.0846656497,-0.311059189,-0.432677047,0.0450205556,-0.0955200957,0.0115628013
92636.068897,-0.123346915,0.0854109759,-0.606958093,0.099037712,0.16523747,0.0110730458
92636.078923,-0.522554241,-0.230120881,2.06532226,0.000127381662,-0.0126092301,0.0111766433
92636.088949,0.184970964,-0.542099868,1.0818104,-0.103862936,-0.262206273,0.0116099393
92636.098975,-0.382785413,0.265978245,-2.26106152,0.0228140517,0.219536914,0.056370485
92636.109001,0.0826068973,0.411091741,0.473191597,-0.054391785,0.175893842,0.0131883951
92636.119027,-0.373191838,-0.188920472,2.63915616,-0.253582659,-0.137616949,-0.00765510147
92636.129053,-0.206192253,0.535294824,-1.31474396,-0.102249856,0.0079375899,0.00308223151
92636.139079,-0.617302426,0.991353781,-3.05633979,0.0726902611,0.0483574516,0.0195640022
92636.149105,-0.203996022,0.0853943536,-0.0246357593,0.180782659,0.0283400661,-0.00218843074
92636.159132,0.363321818,-0.193912691,2.00629665,0.0525373272,-0.0965030657,-0.00413120688
92636.169158,-0.403666544,-0.332324388,0.214375241,0.0630570776,-0.156728597,-0.00748599005
92636.179184,-0.306284649,0.142879159,-0.920365286,0.0104679032,0.116908012,-0.00990760383
92636.189210,-0.386111598,0.0849812793,0.675131051,-0.115056465,0.0766878931,-0.0143292496
92636.199236,0.198979433,0.0096495777,2.53609911,-0.215157228,-0.0170644333,-0.0580522312
92636.209262,0.586714795,0.160165517,-1.82150632,-0.0228160177,-0.00452547078,0.0385382281
92636.219288,-0.515619364,0.469741717,-2.21001814,0.00653068583,0.0404105804,0.00611663739
92636.229314,-0.197693798,0.31597717,0.17098852,0.0619934141,0.0473611637,-0.00950892699
92636.239340,-0.101012434,-0.201193149,1.09954246,0.0457273587,-0.0593772659,-0.0297082054
92636.249366,0.550229304,-0.284979229,0.956629194,0.0738665811,-0.132541762,-0.00243823567
92636.259392,0.0970896053,0.230905032,-0.642898591,-0.0308824652,0.0998483358,-0.0259504864
92636.269418,0.209750163,0.520604218,-0.268675986,-0.187583926,0.099598801,0.00288622257
92636.279444,-0.250491541,0.0331672131,0.700325698,-0.133127334,-0.00923553737,-0.0231206106
92636.289470,0.24990393,1.09494976,-0.820201615,0.0176911946,0.108347817,0.00728390029
92636.299496,-0.250432286,0.44888225,0.0945675432,0.0979713849,-0.103900531,-0.047032599
92636.309522,-0.537844567,-0.458079925,-0.478894023,0.189919425,-0.121039571,0.00858751814
92636.319548,0.742669437,0.339580748,-0.0119633248,0.122522002,0.0296881592,-0.0518870099
92636.329574,-0.0636795877,-0.321481616,0.822121939,0.000237902876,-0.100543083,-0.0351959137
92636.339600,-0.655525847,0.050988628,-0.63376719,-0.0562730417,0.0963673203,-0.0254215809
92636.349626,0.0654489148,-0.180267101,0.308882494,-0.131283628,-0.0178809573,-0.0458328469
92636.359653,-0.0358867386,0.197082239,0.104794338,0.025619959,0.00323551312,-0.0446695803
92636.369679,0.397948968,0.172403396,-1.03354158,0.0824739165,0.114108233,-0.0177652599
92636.379705,0.145674855,-0.0629228335,2.41752884,0.00293009241,-0.0682016553,-0.0450685216
92636.389731,-0.0147710885,-0.663233774,-0.77091473,0.0689557097,-0.237005593,-0.041217853
92636.399757,-0.600264819,0.424809812,-2.2354957,0.108845336,0.0795766173,-0.043117222
92636.409783,-0.451145175,-0.233390715,0.437930314,-0.0415114076,0.0637095107,-0.0363780899
92636.419809,0.162090111,0.011580016,2.03837404,-0.104948441,-0.0518932508,-0.0200590404
92636.429835,-0.342505644,-0.140310152,-0.742539115,-0.0248634559,-0.0351829806,-0.0272482434
92636.439861,0.100246197,0.403139978,-1.41892797,0.00128559048,-0.0150830399,-0.0197636956
92636.449887,0.333739311,0.160473596,0.117981737,0.0730852089,0.0963838308,-0.0079017101
92636.459914,-0.171588703,0.0430726489,0.611261513,-0.0578965046,-0.00692524551,-0.0376489503
92636.469940,-0.168792223,-0.124105598,1.83470031,-0.0857664891,-0.149251492,-0.0243946673
92636.479966,0.201138109,0.0571933278,-1.93490649,0.0881373934,0.0745778664,-0.0194174858
92636.489992,0.652044213,0.371205757,-1.98937691,0.252780674,0.15519814,-0.0425254671
92636.500018,-0.81506401,-0.734115601,2.27364761,0.212804241,-0.0726403461,-0.00462202692
92636.510044,-0.665279764,-0.673408035,-0.0749999189,0.116619905,-0.265500592,-0.0246924074
92636.520070,0.561035361,-0.532377077,1.51333193,-0.0498162084,-0.0172713601,-0.00580100865
92636.530096,-0.434057116,-0.724396975,-1.50857317,-0.167576658,-0.0704046206,0.0115806445
92636.540122,-0.0357070917,0.465872255,-1.76154489,-0.153729292,0.340965374,0.040833603
92636.550149,0.276045046,-0.0271712645,2.67863536,-0.298213514,0.148017464,-0.0331215827
92636.560175,-0.549570697,-0.0101508639,2.5587996,-0.389923992,-0.182992415,-0.036619906
92636.570201,1.3295913,1.23748521,-2.40343877,0.136236755,0.0172320216,0.0484728845
92636.580227,-0.493089041,0.520236079,-3.45490773,0.308530209,-0.0181541981,-0.0473849369
92636.590253,-0.594855398,-0.23559334,1.11097688,0.268939403,-0.0991395952,0.0203251349
92636.600279,1.21217342,-0.394603113,2.97000608,0.207624388,-0.217227356,-0.0325194417
92636.610305,-0.322389433,-0.873190968,-2.64942254,0.131175411,-0.0226421577,0.00134318731
92636.620331,-0.384954829,0.19946612,-0.14281381,-0.189503791,0.255000932,-0.0438021837
92636.630357,0.883635293,-0.475902691,3.90597993,-0.345187428,0.075969903,-0.0512406645
92636.640383,0.187070457,-0.605890569,-1.14592936,-0.162733706,-0.175029041,-0.0487609921
92636.650409,0.198170766,0.882441498,-2.45763681,0.015992898,0.14814849,0.0146677805
92636.660436,0.369796932,0.188099434,0.940708571,-0.0508242161,-0.0116188002,-0.0627543075
92636.670462,-0.212170085,-0.2474184,1.02768309,-0.00679790273,-0.0580952221,-0.0405099882
92636.680488,0.367890002,0.378588963,-0.436840011,-0.00292460083,-0.0163525694,-0.0203834126
92636.690514,0.166221438,-0.034614274,-0.058820353,-0.0310406578,-0.0459424199,-0.0427462427
92636.700540,0.336209099,0.298041974,-1.09693532,0.0173897254,0.0661542921,-0.0315204902
92636.710566,0.558359456,-0.177726805,-0.236525529,0.0805923916,-0.0539665238,-0.0349184169
92636.720592,0.783149989,-0.242709802,0.95281402,0.0644360981,-0.0254664102,-0.0483362271
92636.730618,0.104619562,0.0940189923,-0.187550193,-0.0734333494,0.0803074224,-0.0390079735
92636.740644,-0.271344506,0.048362572,-0.0243505126,-0.0718783312,-0.0156614508,-0.0255060146
92636.750670,0.00632829082,-0.146267033,0.22658415,0.00858854923,0.00173937704,-0.0226873221
92636.760697,0.64614836,0.210944249,0.114550009,0.0341205388,0.0421698897,-0.03213675
92636.770723,-0.170802321,-0.305030869,0.38034614,-0.00600211181,-0.0876245887,-0.0243262338
92636.780749,-0.491214589,-0.125571744,-0.449612984,0.0462317965,0.0319505429,-0.0157657681
92636.790775,-0.358592198,0.0360485225,0.351384834,-0.0710559436,0.0596194549,-0.0321886806
92636.800801,0.26935839,0.251230922,2.02577526,-0.152040275,0.0510755016,-0.0367687909
92636.810827,0.823581733,0.286965302,-0.0358223393,-0.142212676,-0.00404420983,-0.0333964272
92636.820853,-1.31505037,0.958675719,-3.39507958,0.0296802535,0.070354393,-0.0226106258
92636.830879,-0.491892999,0.180786572,-0.712063897,0.180389342,-0.0182234102,-0.026846117
92636.840905,0.522690688,-0.374529243,0.858264097,0.225987715,-0.175243394,-0.0214825092
92636.850932,-0.361054094,-0.445244007,0.424081822,0.146146951,-0.146294566,-0.0374899699
92636.860958,-0.405664001,-0.269788637,-1.22721648,-0.00366412241,0.0893051832,-0.00115566665
92636.870984,-0.0225024317,-0.205200485,1.1772184,-0.165190967,-0.00865041348,-0.0200952688
92636.881010,1.01035226,-0.0721819342,1.10853708,-0.131282526,0.0823671131,-0.0277196342
92636.891036,0.656515879,0.674511718,-0.110947431,-0.15157448,0.0923134892,-0.0105827233
92636.901062,-0.954955222,0.151012891,-0.47279746,-0.0319050834,0.00501373341,-0.0639838992
92636.911088,-0.249724704,0.467374221,-0.915222663,0.0708553842,-0.00373741355,0.0152392866
92636.921114,0.000569941927,-0.0346554462,0.56524795,0.108069328,-0.0924481021,-0.0250317032
92636.931140,-0.0178066637,0.0262605756,-0.0291564516,0.171145511,-0.0427942702,-0.0387512414
92636.941166,-0.367141159,-0.372213184,-0.526749415,0.0798864267,-0.0374208109,0.0212854607
92636.951193,-1.02306203,-0.259509509,0.908355869,0.00295303391,-0.102100203,-0.0400721697
92636.961219,1.32918593,-0.0753090533,-0.0634339843,-0.0275252466,0.0512390195,-0.0240021261
92636.971245,0.680456946,-0.0321729818,-0.304054174,-0.011429368,0.00450373837,-0.0155788144
92636.981271,-0.413862213,-0.0511958813,-1.04673717,-0.00275065818,0.142020313,0.00177674032
92636.991297,-0.58559047,-0.0223377434,1.17789236,-0.0560532943,0.0167457575,0.00551182394
92637.001323,-0.731348346,-0.484876418,0.582438154,-0.0282722623,-0.2140366,-0.0160384761
92637.011349,0.0571076824,-0.0867351593,-1.08311021,0.0662851311,-0.00355871557,-0.00716189352
92637.021375,-0.559657462,0.044900321,-0.504620585,-0.00496347899,0.0600223898,-0.0207674509
92637.031401,0.432547512,-0.151227505,1.71736222,-0.0947234579,0.0107579057,0.0142760206
92637.041428,0.343010303,-0.0847392728,0.690912557,-0.0479077496,0.031431759,-0.016017702
92637.051454,-0.20613824,0.551229183,-1.4131529,-0.0721007087,0.0355996063,0.00402418188
92637.061480,-0.742439868,0.268760204,-0.184230693,-0.0584794343,0.0125347667,-0.0190145584
92637.071506,0.567539847,0.361644805,-0.00680842622,0.0274240221,0.00748834271,-0.00591686518
92637.081532,0.282345955,0.0646133035,-0.0755674897,0.0446386947,-0.0351065227,-0.0212396296
92637.091558,-0.344751815,0.0499860816,0.264787916,0.00172052301,0.0276058598,-0.0399930744
92637.101584,0.342520693,-0.0646206687,0.602227727,-0.0186025915,0.0140285336,-0.0211879635
92637.111610,0.195634178,-0.243648033,0.128909373,0.0493775211,-0.0854226889,-0.0322275652
92637.121636,-0.233227961,0.101899206,-1.10958379,-0.0259398655,0.10965333,-0.0255339766
92637.131662,-1.14195269,-0.19750277,0.200059716,-0.0930163734,-0.0877859758,-0.0298472332
92637.141689,0.0610764719,-0.0552851965,-0.119218415,0.0279979347,0.0065431872,0.00332297188
92637.151715,0.971381454,-0.177182359,0.24963594,0.0710311509,-0.0830412896,-0.0233786801
92637.161741,0.275813922,-0.310187667,-0.191263661,0.0506971195,0.0898889436,0.000524788524
92637.171767,-0.126527171,0.108043152,0.662913374,-0.129699277,0.0125488818,-0.037079048
92637.181793,-0.506067765,-0.0262381849,0.63011702,-0.178276407,-0.00605116807,-0.0304051625
92637.191819,-0.128453975,0.597728046,-1.9511977,-0.020239104,0.0427179693,-0.0185937794
92637.201845,0.721080267,0.330485332,0.253646345,0.118650866,0.0523879065,-0.00379778874
92637.211871,0.674863144,-0.398133625,0.865763513,0.162333382,-0.160193877,2.43805232e-05
92637.221897,-1.56869941,-0.579204843,-1.25433479,0.145555732,-0.101743871,-0.0117659668
92637.231924,0.443086625,0.00128154406,0.53016553,0.101479342,0.0920255987,0.0141894681
92637.241950,1.00917635,-0.678356378,2.05671693,-0.0543206432,-0.0533481108,0.0199272478
92637.251977,-0.775999608,-0.708587192,-1.80084113,-0.00166249064,-0.129233287,-0.00951080081
92637.262003,-0.0258600396,0.522576724,-0.477109478,-0.0496310838,0.224860339,0.0517291235
92637.272029,-0.661978677,-0.207327596,2.43707759,-0.206182333,-0.0129572775,-0.0285036663
92637.282055,-0.31638073,-0.245126179,-0.340912371,-0.146178382,-0.0723604129,-0.0504710196
92637.292081,1.75447646,0.916799914,-1.17488716,0.0686111353,0.0338027685,0.0341043206
92637.302107,-0.904651122,0.339809625,-2.25205813,0.127946374,0.125531895,-0.020976775
92637.312133,-0.332312861,0.36239566,1.91325187,-0.0414096364,0.114081098,-0.0160307517
92637.322160,-0.912128838,-0.377548042,3.37125522,-0.0487234765,-0.251119511,-0.0298083486
92637.332186,-0.18136253,-0.167040813,-5.0139638,0.146448684,0.0267051815,0.0297266165
92637.342212,0.40080896,0.562985453,-0.854028482,0.277798978,0.0126841704,-0.0210633284
92637.352238,-0.744573081,-0.706589224,1.21157426,0.0713456697,-0.0751860307,-0.0127611892
92637.362264,-0.694871623,-0.334855988,1.82141296,-0.0372700193,-0.101627225,0.00286677236
92637.372290,0.103248411,-0.388207055,-0.744795369,-0.0686090314,0.0269350095,-0.0325455485
92637.382316,0.0604639158,0.5822369,-0.879114992,-0.0518265911,0.185888974,0.0192364244
92637.392342,-0.383568124,-0.0780675399,1.17965294,-0.146255346,0.0895280896,-0.0140070157
92637.402368,0.250379402,-0.196539478,1.87612129,-0.167601126,-0.154665949,-0.00489234795
92637.412395,-0.877067827,0.628873564,-2.71781978,0.0611604131,-0.00984990107,0.00375467016
92637.422421,-0.26474867,0.649586682,-2.57963939,0.121869301,0.15765786,-0.00514028744
92637.432447,0.355237076,0.00592988132,3.03470154,-0.00308967846,-0.0148169629,0.00203719771
92637.442473,-0.599523974,-0.4626499,1.8344063,-0.00346598307,-0.211407782,-0.0260881806
92637.452499,0.196455194,0.0973627133,-1.26883619,0.0341000348,-0.0712450833,0.00034822094
92637.462525,0.207632951,-0.148541262,-1.43946924,0.134886039,0.0663324876,0.0108096501
92637.472551,-0.111781775,-0.177771265,-0.159987064,-0.00655072274,0.117887294,0.0127865145
92637.482577,-0.443880189,-0.288688112,2.10640772,-0.0470073358,-0.0612997764,-0.0137849083
92637.492604,0.17123143,-0.423835966,0.543255314,0.0839032731,-0.00830633263,-0.0151524419
92637.502630,0.175552015,0.12676137,-1.6956722,-0.0103196283,-0.0515150556,-0.033111204
92637.512656,-1.17823082,0.083331174,-1.57988017,-0.0651828744,0.0736713617,-0.0106098881
92637.522682,0.289357203,0.612269416,-0.229483209,-0.0362726659,0.220441623,0.0202159354
92637.532708,0.359047867,0.290925128,3.37789305,-0.167164894,0.00408642111,0.00676164533
92637.542734,-0.62064896,-0.503813721,1.08286137,-0.12709977,-0.309008645,-0.0119667692
92637.552760,0.197379524,1.00346274,-2.79537239,0.033175116,0.152260704,0.0487988474
92637.562786,-0.379465,0.168284782,-0.303644424,0.0413488909,-0.10147489,-0.0140554855
92637.572813,0.153072682,0.127088592,0.126048723,-0.0555978962,-0.0436459498,-0.02747622
92637.582839,0.162063862,0.173410271,0.0217489752,0.0582197509,0.0396643861,0.00212454925
92637.592865,0.903412664,0.242768178,0.171884592,0.00367821266,0.102224974,-0.0146733398
92637.602891,0.454283068,-0.160206035,1.44143633,-0.0722873905,-0.142892914,-0.00583883525
92637.612917,-0.409133468,0.259150974,-1.04906532,0.0227941177,0.0969415291,-0.00340577086
92637.622943,-0.280012911,0.843663439,-0.174437029,0.0099331788,0.203315361,-0.0239853473
92637.632969,-0.154457846,-0.213888453,2.70587875,-0.138826462,-0.157560007,-0.0335711284
92637.642995,0.197197445,-0.297687885,-3.38236915,0.192040411,-0.152145536,-0.00549448804
92637.653022,0.148940113,0.79080359,-2.25926119,0.271423099,0.174329786,-0.0213978203
92637.663048,-0.328010962,-0.197989037,2.674646,0.102074293,0.0854601099,-0.0291204551
92637.673074,-0.164402737,-0.226019912,3.72225944,-0.151913243,-0.195495667,-0.052489963
92637.683100,-0.537340928,-0.335421806,-3.68752581,0.0501240059,-0.138401227,-0.0792842923
92637.693126,0.238150455,1.07166585,-1.56999824,0.0354497223,0.205284236,0.00142626826
92637.703152,-0.431810908,-0.435089327,1.96829922,-0.0461005294,-0.0235779637,-0.0334302453
92637.713178,-0.494478961,-0.333866795,0.163445849,0.0243629846,-0.183071496,-0.0521405531
92637.723205,0.353340339,0.23155007,-0.869276904,0.0825228444,0.00685562403,-0.00460094922
92637.733231,-0.0502489369,0.118046495,-0.368258058,0.0243242509,0.0516380093,-0.0492397888
92637.743257,0.139017242,0.0744336731,0.596483046,-0.0370243289,0.0461455046,-0.0322285822
92637.753283,-0.88480865,-0.123096111,0.570755899,-0.0378278033,-0.144079568,-0.0525434395
92637.763309,-0.390454486,0.259425188,-1.07336798,0.0300700194,0.03955072,-0.0462831488
92637.773335,0.224843084,0.348044223,0.513768522,0.0594755798,0.0494717939,-0.0657585753
92637.783361,0.141918772,-0.252957384,0.695119361,-0.0315925428,-0.071478592,-0.0459691627
92637.793388,-0.629337878,0.141035979,0.0492898931,-0.043250265,-0.12777649,-0.046151322
92637.803414,0.338955256,0.341699055,-2.15670858,0.0375087611,0.146165578,-0.0173540289
92637.813440,-0.0783952368,0.375982579,-0.124246473,0.0234049275,0.0885116069,-0.0804195447
92637.823466,0.217555576,-0.299833209,1.8225294,-0.0386669659,-0.0911726744,-0.059685242
92637.833492,0.130158347,0.102932239,0.470079018,0.0471725739,-0.0976638587,-0.0553448169
92637.843518,-0.588133323,-0.214310076,-1.38762741,0.155463902,-0.0549851076,-0.0568340613
92637.853544,0.259227237,0.115603011,-0.50650976,0.0599866412,0.0792438074,-0.0623806236
92637.863571,0.49621444,-0.475003003,1.53170579,-0.00899668735,-0.0983067469,-0.0336397892
92637.873597,0.430138807,0.265777316,1.1341292,-0.19523819,0.0728855042,-0.027548608
92637.883623,-0.568903904,0.0656967879,-0.872183147,-0.194379064,-0.0670337768,-0.0970656319
92637.893649,-0.634783357,0.929352594,-2.37319444,0.0322974897,0.190311728,0.0151538471
92637.903675,0.430044553,-0.210145467,0.239684455,0.0914931647,-0.0222042573,-0.0750639333
92637.913701,0.672961621,-0.335220255,3.49420647,0.120704053,-0.244258092,-0.0557813091
92637.923727,1.12461416,-0.431017182,-2.38084116,0.172537965,0.157888545,-0.0253174124
92637.933754,-0.888325134,0.33446399,-0.660067168,-0.0357707799,0.116988523,-0.0537711574
92637.943780,-0.0187486321,-0.591713137,1.58092078,-0.273389997,-0.114398898,-0.0805918543
92637.953806,1.41810472,0.80191009,0.754995445,-0.084647777,0.127782045,-0.00685078708
92637.963832,-0.556954414,-0.179425079,-1.44397707,0.0118065947,-0.0386404896,-0.0897051884
92637.973858,-0.281534257,0.0590193742,-0.641987905,0.0647137514,-0.00731372437,-0.0374941832
92637.983884,1.19572359,-0.206052261,1.47316827,0.0525071523,-0.0724306793,-0.0571725486
92637.993910,-0.086972036,-0.186717026,-0.726611478,-0.0330753946,-0.00144731299,-0.0554723857
92638.003937,-0.12542406,0.366227457,-0.116385238,-0.0416193479,0.0729638024,-0.0769294767
92638.013963,0.652399676,-0.00892053661,0.721148121,-0.0479313047,-0.0214939916,-0.0638581483
92638.023989,-0.0387507474,-0.170589592,-0.794508956,0.056843312,-0.0340702364,-0.057072681
92638.034015,0.547323865,-0.00889620588,-0.112398214,0.00763368748,0.053975465,-0.0587483389
92638.044041,-0.278688439,0.182271331,0.477757298,-0.0529449717,0.0409526064,-0.0903209118
92638.054067,0.50168341,-0.122287626,0.907093302,-0.0839987644,-0.090323122,-0.0433568662
92638.064094,0.176442516,-0.012107149,-1.18861583,0.0847812048,-0.0128690784,-0.0433978779
92638.074120,0.917248809,0.245723447,-1.56914308,0.182094184,0.130424438,-0.0608455805
92638.084146,0.119210115,-0.377436399,2.37144981,0.0777009255,-0.0583252439,-0.0269073179
92638.094172,-0.210554284,-0.490805881,0.550955805,0.00685551205,-0.164947288,-0.0474376274
92638.104198,0.382706281,0.262996307,-0.796727801,-0.0174002931,0.0173908232,-0.049543657
92638.114224,0.466663169,0.0825518236,-0.906194138,0.0123277758,0.0922496154,-0.0282101376
92638.124251,-0.297178784,-0.177603635,0.450866368,-0.019121761,-0.00612622057,-0.0437867014
92638.134277,-0.341549805,0.0877370625,0.870866389,-0.0828219079,-0.0415436008,-0.031050664
92638.144303,1.02418154,-0.257640373,0.359468772,0.00704965649,0.0052539988,-0.0180475159
92638.154329,0.874756113,0.0827049501,-0.321498645,-0.0129147307,0.0662656857,-0.0486842549
92638.164355,-0.939676989,-0.124443105,-1.00695519,-0.0461136983,0.00289523718,-0.0516552782
92638.174381,-0.470996488,0.114870733,-0.514245907,-0.0532597587,-0.0994215475,-0.0297736792
92638.184407,-0.345164086,-0.0105454892,-1.53463466,0.0294756047,0.0342206678,-0.0313121868
92638.194434,0.814019174,0.0643708365,0.808478029,0.156272975,-0.0387962812,-0.0562148733
92638.204460,1.13955111,-0.801268837,0.92968858,0.263335494,-0.0701307671,-0.0232460057
92638.214486,-0.344398691,-0.667840391,0.935897956,0.247459603,-0.164004268,-0.0233506678
92638.224512,0.172264536,-1.00866729,-1.56773848,0.113290345,-0.129443364,-0.0060486436
92638.234538,-0.0338397361,-0.396728763,0.616294246,-0.0691673481,0.136220275,0.00682134869
92638.244565,0.327505604,-0.659247846,0.740539635,-0.351194503,0.0655205383,-0.0129579479
92638.254590,1.18843657,0.891941221,2.59523402,-0.505330863,0.138070105,0.017112601
92638.264616,-0.40055159,0.752610564,-1.34124326,-0.252412262,0.172592653,-0.074474041
92638.274642,0.00961731787,1.63096006,-2.43808339,-0.0193017893,0.10106255,0.0422328705
92638.284668,0.306262636,0.202527207,1.30175021,0.14639051,-0.270984249,-0.0417158274
92638.294694,0.10931858,0.278229148,-2.04965807,0.434492079,-0.0665693225,-0.011211448
92638.304721,0.688386058,0.0363886411,-0.0435491341,0.486948637,-0.139688017,-0.00227600952
92638.314747,0.0444955404,-0.693755388,1.55442324,0.185687048,-0.20282224,-0.030310039
92638.324773,0.163249948,-0.145914822,0.376396526,-0.127764078,0.137562765,-0.034880024
92638.334799,-0.00763198475,-0.503333719,0.808751586,-0.288407805,0.0656590222,-0.0166464267
92638.344825,-0.246043494,-0.268661551,-0.330282255,-0.241771611,0.134284152,0.00110540668
92638.354851,0.157822736,-0.0454383225,0.243362266,-0.191821354,0.0309702812,-0.0333974442
92638.364878,-0.100242071,0.145925504,-0.176982622,-0.00114116152,0.0102828464,-0.0281001484
92638.374904,-0.0695009188,0.165238345,-1.0999006,0.10331281,0.00571818813,-0.00402437487
92638.384930,-0.191901314,-0.0289430417,0.276329301,0.0127200592,-0.0421132499,-0.0142208194
92638.394956,0.26261087,-0.00863212985,0.704859249,0.00791758068,-0.0405563654,-0.0512930868
92638.404982,-0.117904186,0.420612762,-1.33055469,0.00717802115,0.169987289,-0.01237738
92638.415009,-0.652868976,-0.0790598754,1.36616452,-0.0236952067,-0.022824507,-0.0260676263
92638.425035,0.0674440616,-0.485890344,0.57917886,-0.00538224539,-0.115654314,-0.0147571793
92638.435061,0.147541379,0.343112795,-1.42627249,0.0135970381,0.0637830927,-0.0162741156
92638.445087,0.0471510964,0.0322303524,-0.781076643,0.0145051764,0.0679661168,-0.0114750998
92638.455113,-0.229738695,-0.0507179434,1.50460911,-0.0767288678,-0.00446760398,-0.0259669578
92638.465139,0.0672953373,0.565817973,0.219652305,-0.0486836494,0.0295422936,-0.0335878587
92638.475166,-0.177501489,0.14780361,-1.01645952,0.0594750471,-0.0286262033,-0.0195447454
92638.485192,-0.180733749,0.0906874002,-0.527424538,0.0342138983,0.0284373483,-0.0291022962
92638.495218,0.177021394,0.221676052,0.603604861,-0.0726094865,-0.00806952896,-0.0468123188
92638.505244,-0.214593075,0.564741868,0.362654416,-0.0373889156,0.0576077497,-0.028955557
92638.515270,0.621567534,0.298954084,0.450198844,0.00573991427,-0.0114868979,-0.00354633724
92638.525297,0.381543521,-0.158376427,0.426259166,0.0194360181,-0.120397934,-0.0324363081
92638.535323,-0.598733846,0.00964150399,-2.08092415,0.155240727,0.046773745,-0.0157779703
92638.545349,-0.0237283978,-0.167128017,0.0507722406,0.126445038,0.00257512532,-0.00238573143
92638.555375,0.611072224,-0.475017433,2.5162201,0.00888590656,-0.162668155,-0.0190430047
92638.565401,0.416575598,-0.0853374031,-1.03411208,-0.04330699,0.10138133,0.00919316
92638.575428,0.45760845,0.216096736,-0.442701012,-0.103293362,0.100087567,-0.00372183939
92638.585454,-0.377005295,0.285002697,0.788005735,-0.165164443,0.110750867,-0.0217357265
92638.595480,-0.0489164644,0.0684720065,-0.68262036,-0.0868869596,-0.0458334179,-0.00218412989
92638.605506,0.498748525,0.140123558,0.0683897304,0.0674850396,-0.0663568021,0.0367986889
92638.615532,0.803600802,0.128556802,-1.0428197,0.176924182,0.034908565,0.0111095713
92638.625559,-0.420891345,0.0136283086,-0.0386508407,0.147421686,-0.00587322027,0.023457318
92638.635585,0.583786122,-0.48171704,2.53934145,0.00803156432,-0.187488289,0.0128717845
92638.645611,0.280065369,-0.269922073,-0.772957634,0.00689652471,-0.0557481029,0.0336026283
92638.655637,1.04921617,-0.0374752712,-2.8728344,0.0491337269,0.182020245,0.0582901308
92638.665663,0.311038527,-0.130427513,1.23604527,-0.0344125652,0.0618914461,0.0220117526
92638.675690,0.117033428,-0.34554883,1.71541459,-0.0945970737,-0.038480697,0.0356415467
92638.685716,0.20774306,-0.281494492,0.37494925,-0.0200522677,-0.119584339,0.00406977105
92638.695742,0.885230307,0.348997615,-2.04916123,0.126540375,0.0767609386,0.0573228741
92638.705768,0.0636634196,-0.153438003,-0.447727316,0.0688810623,0.0126211012,0.0153519859
92638.715794,0.733135227,-0.438658089,1.88424147,-0.0313272946,-0.0913902537,0.0299125532
92638.725821,0.543671919,0.214691144,-0.105326668,-0.0133739658,0.0245656131,0.0270036006
92638.735847,0.652539522,-0.0635230644,-1.38026711,0.0647810227,0.01707574,0.0418925354
92638.745873,0.287752654,-0.384079709,0.216982794,0.0810686476,0.0151667849,0.0265758963
92638.755899,0.764632408,-0.45738723,0.336374312,0.00811801061,-0.0913727076,0.0300377397
92638.765925,-0.22406896,-0.44801011,-0.307084335,-0.0368958027,0.0155649281,0.0287964394
92638.775952,0.605077149,0.110588124,0.468321945,-0.0957926758,0.0474126062,0.0649046408
92638.785978,0.639344379,-0.138687903,0.487857251,-0.0722969347,0.0103368762,-0.000520968449
92638.796004,0.620368461,0.0461815017,-0.314693641,0.026061324,0.0674712716,0.0547697166
92638.806030,0.0555437256,-0.265209475,0.393039033,0.0199363209,-0.0504103617,0.0294374632
92638.816056,-0.050599408,-0.315468822,0.136190762,-0.00380682664,-0.0809363143,0.0376234868
92638.826083,0.36027244,-0.181020641,-1.3509434,0.0582275144,0.0646051748,0.0368447782
92638.836109,0.0455763853,-0.318602298,-0.32340594,-0.0209218976,0.0444948471,0.0506114581
92638.846135,0.257393994,0.00428039708,1.3522716,-0.0546260648,0.0164517614,0.0478239277
92638.856161,0.548102485,-0.125493107,1.09681333,-0.0524662421,-0.0186146141,0.0366602199
92638.866188,0.816306189,0.0254238873,-0.739450501,-0.00448513355,0.00485742256,0.0612712907
92638.876214,0.0690168182,0.0709721527,-1.28755317,0.0325618326,0.037468361,0.0447362581
92638.886240,0.225467938,0.17923653,-0.114164055,-0.0174802937,0.106931856,0.0402131447
92638.896266,0.0675948956,-0.10534261,1.89777432,-0.161013233,-0.0408868955,0.0324753331
92638.906292,0.558140991,0.17077121,0.1879455,-0.0491034672,-0.0389901937,0.0116118606
92638.916319,8.77501842e-05,0.595565278,-2.75247901,0.0850700489,0.0504520705,0.05398222
92638.926345,-0.259228007,-0.236376873,-1.10914949,0.0471961699,-0.0765777843,0.0418845447
92638.936371,0.570473891,-0.0942621207,1.35577172,0.0142502044,-0.00503515568,0.0408800015
92638.946397,1.05958712,-0.208335075,0.867849087,0.0266685258,0.000146823242,0.0400163377
92638.956424,0.621068279,-0.527584363,0.263294463,0.0739143319,-0.125457706,0.0354074718
92638.966450,0.623496529,-0.484120192,-0.394488478,0.0608741655,0.0376260227,0.0354500817
92638.976476,0.398260481,-0.177586008,0.105328591,-0.089837315,0.0413917324,0.0429647224
92638.986502,-0.0210409397,-0.338824125,0.672317747,-0.181357922,0.0327505714,0.0174835989
92638.996528,0.752640796,0.45782127,-0.0108503951,-0.087784017,0.0710470958,0.0650694923
92639.006555,1.51069445,-0.146417895,0.074134996,-0.0183034767,-0.0672210322,0.0415838728
92639.016581,0.442640196,0.0661568614,-0.686106449,0.0403483859,0.0726708232,0.0397007534
92639.026607,0.476082264,0.14453142,-0.0418423302,-0.0415608645,0.0883326067,0.0224266903
92639.036633,0.19151423,-0.432001956,1.76303559,-0.069521124,-0.115602681,0.0239987554
92639.046660,0.305624922,0.150058512,-1.37848432,0.0648326851,0.00288348762,0.0628398912
92639.056686,0.416534864,0.106898585,-1.53327916,0.0771631277,0.0280863124,0.0042631341
92639.066712,0.340289792,-0.267899974,0.726215341,0.00497015335,-0.0168830266,0.0503837572
92639.076738,0.462475362,0.315603295,0.185124012,-0.0140317664,0.0103690999,0.0394541429
92639.086765,0.421031408,-0.018447732,0.480899103,-0.00933208641,-0.0444507392,0.0448241414
92639.096791,0.942196349,-0.0462997799,0.139299834,0.0166089661,-0.00350090838,0.0479557546
92639.106817,0.695398786,0.153000703,-0.376651208,-0.01202614,0.030465048,0.0332734803
92639.116843,0.745793853,-0.00320590355,0.324125656,0.0114909033,0.0103081141,0.0369851285
92639.126869,0.789274463,-0.061141156,0.294513777,0.00164439799,-0.00285988557,0.0494226212
92639.136896,0.231714303,-0.133458003,-0.0394890451,0.00507801121,-0.0390181558,0.0239992881
92639.146922,0.44776996,-0.0800300904,-0.51548334,0.0171109731,0.0103091796,0.0331110278
92639.156948,0.642670309,-0.0707535819,-0.429078145,0.00910843957,0.00797012472,0.0161834428
92639.166974,0.740113469,0.0185648517,0.22754335,-0.0191223998,0.0489756151,0.00605783834
92639.177001,0.968019796,-0.0271161368,0.941054024,-0.0511751422,-0.0588746869,0.0202282512
92639.187027,0.474679777,0.414416866,-0.734368083,0.00959979325,0.01267886,0.00304127567
92639.197053,0.763287862,0.28220744,-0.972990961,0.0198383159,0.0149518682,0.018468968
92639.207079,0.781873393,0.0684481324,0.886743172,-0.0202518464,0.0227863549,-0.00190954061
92639.217106,0.783999591,0.180327978,0.446758348,-0.00572829738,-0.0518135817,0.010266432
92639.227132,0.718491054,0.00788026647,-0.301440192,0.00539492771,-0.0434078441,0.0128574207
92639.237158,1.25621174,0.00918694689,-0.140110981,0.0210718918,0.0196723214,0.0093412496
92639.247184,1.26017918,-0.111178458,-0.0629482466,0.0226447541,0.0337963945,0.0153163182
92639.257211,1.22630014,-0.210994211,0.281719177,0.00818405628,-0.0581111589,0.0111290295
92639.267237,1.43451663,-0.045222707,-0.149989986,0.0121734715,-0.031476883,0.0149240339
92639.277263,1.58603786,0.405260769,-0.567712124,0.0140179773,0.0750801845,0.00710605866
92639.287289,1.47858228,0.293737244,0.453728187,-0.0179945496,-0.00395950465,0.0189225035
92639.297316,1.13685924,0.0680585851,0.169832335,0.017006842,-0.0566600019,0.013832671
92639.307342,1.49758684,0.0324468264,-0.467722056,0.0296129151,0.00602841448,0.0115404878
92639.317368,1.49030589,-0.11729484,-0.042651893,0.0375177092,-0.0029195405,0.0124667356
92639.327394,1.4795482,-0.191071933,-0.0195340523,0.0135095795,0.000396894063,-0.00278332421
92639.337421,1.31504693,-0.192623291,0.224977299,-0.00352852604,-0.0294081399,0.00665944665
92639.347447,1.69159842,-0.105188314,0.016668311,0.00413312159,-0.00327959959,0.0136569025
92639.357473,1.63111385,-0.0720300864,-0.356639516,0.0199834588,0.0187306276,0.0244184689
92639.367500,1.36836439,-0.263277173,0.209202223,0.0249800808,0.00687343558,0.0214991117
92639.377526,1.29975555,-0.345383082,0.351574804,0.0326324082,-0.0453045496,0.0286872512
92639.387552,1.1607824,-0.372667431,-0.118488932,0.0552626192,-0.0480302924,0.0270020025
92639.397578,1.1671298,-0.298335828,-0.511472351,0.0396434455,0.0103467295,0.0235092671
92639.407605,1.03836562,-0.28915635,-0.0280961289,-0.0174731039,0.0204728677,0.00892313326
92639.417631,0.97121998,-0.0996081031,0.434048504,-0.0498787151,0.0143185679,0.00947786997
92639.427657,0.956920017,-0.00495767912,0.293077607,-0.0644246363,0.00936615398,0.00247056027
92639.437683,0.831021163,0.0894538581,-0.268025413,-0.014157468,0.00432665437,0.00789515291
92639.447710,0.810247912,-0.0812973887,-0.513078617,0.0385691277,0.00941835181,0.0276885642
92639.457736,0.652285621,-0.304479957,0.0893302271,0.0484846062,-0.0177538802,0.0110033279
92639.467762,0.713243363,-0.462315334,0.215580526,0.0441417894,-0.0442113222,0.0387587951
92639.477788,0.69217997,-0.376909818,-0.100225546,0.0235257293,-0.00997318956,0.0373366656
92639.487815,0.818111193,-0.30132721,0.0159107706,-0.0117590255,0.0220505244,0.031133098
92639.497841,0.752825651,-0.0666136143,0.18373285,-0.0607755692,0.0257123692,0.0413111666
92639.507867,0.707961185,0.153420043,0.272238232,-0.117177057,0.0374369382,0.0181725578
92639.517894,0.854063965,0.417954831,-0.00985320074,-0.125835004,0.0517847186,0.0180351393
92639.527920,0.997746095,0.631004219,-0.3583282,-0.0741379806,0.0483742713,0.00814176201
92639.537946,1.0746748,0.656356395,-0.280322,-0.000850717753,-0.000335475309,0.00393050526
92639.547972,1.24635947,0.375824247,-0.0559579493,0.03407531,-0.0303088219,0.0179344708
92639.557999,1.25791533,0.158456393,-0.0494247481,0.0418264396,-0.0166848877,-0.00289437791
92639.568025,1.50551178,0.00966141427,-0.0741324884,0.054170189,-0.0175506805,0.00639499434
92639.578051,1.45576225,-0.0274102244,0.114550593,0.0476401202,-0.0197219567,-0.00159049371
92639.588078,1.42697279,-0.0880404332,0.20068457,0.0249012518,-0.0168838256,-0.00271488038
92639.598104,1.28784972,-0.106055855,0.0961159417,0.00175891388,-0.00471158162,-0.00246640817
92639.608130,1.18482715,-0.21855913,-0.1937093,0.0234836503,-0.00766209722,-0.00146958661
92639.618156,1.1761071,-0.284584512,-0.258384894,0.0644803546,-0.0228498389,-0.00100140237
92639.628183,1.21117316,-0.352456235,0.00785079826,0.0794052384,-0.0450060086,0.00185190783
92639.638209,1.1839508,-0.373786206,0.0473638935,0.0459396928,-0.0256813129,0.00800301078
92639.648235,1.23396644,-0.26429857,0.282606482,-0.0331916124,0.0182416702,-0.00810991285
92639.658262,1.25632791,-0.0259783649,0.243092217,-0.0877493941,0.0506291708,0.0115623264
92639.668288,1.13252976,0.0976298032,0.101602264,-0.0940525629,0.0272761791,0.00112726203
92639.678314,0.663981392,0.104781703,-0.288639162,-0.0127577106,-0.00481198239,-0.00458894727
92639.688340,0.823716246,0.0711903255,-0.236081292,0.0120552271,-0.00530733051,0.00917054097
92639.698367,0.568978867,0.136316111,0.233324857,-0.0246215598,0.00248641032,-0.0117320778
92639.708393,0.713179942,0.32425853,-0.0118277157,-0.0119896545,0.0137987195,0.00798277127
92639.718419,0.738216403,0.304415016,0.0186860805,0.0024276334,0.000107142148,-0.004092001
92639.728446,0.432194278,0.34057217,-0.00270508255,0.00350863255,0.00495272526,-0.0145402389
92639.738472,0.364563123,0.323312554,-0.0700297293,0.00612092718,-0.00216403999,-0.0204774892
92639.748498,0.294754733,0.128484668,0.016630317,0.0122605791,-0.00571456621,-0.0185373766
92639.758524,0.198222678,-0.0429823624,-0.0270346372,0.00873082552,0.000676753994,-0.0210652487
92639.768551,0.0836093706,-0.200180921,-0.00755953684,0.0110887881,-0.0047736715,-0.0245744964
92639.778577,0.0339468382,-0.279125425,-0.0148444332,0.0229433156,-0.0107908181,-0.0163048493
92639.788603,-0.0589153963,-0.273129162,-0.0263074919,0.0188090257,-0.00342957396,-0.0123793488
92639.798630,-0.171289666,-0.249627199,0.0678350191,-0.00156415648,0.00294177258,-0.00591985193
92639.808656,-0.251367119,-0.151710028,0.0441846789,-0.00338948726,0.0048683032,-0.00251153914
92639.818682,-0.281754019,-0.041676851,0.00169402919,0.00438055165,-0.00159119395,0.00330826723
92639.828709,-0.302471155,-0.0245634201,-0.00757414989,0.000919241184,0.00416416326,0.000188639748
92639.838735,-0.313859432,0.0177128745,0.102401306,-0.00846094404,0.00245175092,-0.0102360366
92639.848761,-0.294187238,0.0849172011,-0.0197187612,-0.00492400069,0.00297452952,-0.00706261453
92639.858788,-0.329732489,0.106473692,-0.0767301037,0.00470492478,-0.00108253024,-0.00377627426
92639.868814,-0.311158502,0.0369596825,0.0055822688,0.00247292921,0.00453993516,-0.00494273809
92639.878840,-0.346645703,-0.0179937046,0.0750129479,-0.00192900955,-0.00295047136,-0.00778166821
92639.888866,-0.322028271,0.0254558716,0.0096224841,0.00219356363,0.00172950153,-0.00251393543
92639.898893,-0.315575515,0.0715655155,-0.0271825212,0.00167904097,0.000772361474,-0.00457948317
92639.908919,-0.332393452,0.0678343662,0.0343232101,0.00298106043,9.56521885e-05,-0.00380956345
92639.918945,-0.312053405,0.0493864352,0.00230719265,0.00186759282,-0.00119970925,-0.00256639962
92639.928972,-0.314582485,0.0411090025,0.00171448746,0.001854277,-0.000177854434,-0.00377946963
92639.938998,-0.320295894,0.00535984461,-0.00681017978,0.00235255437,0.00330209802,-0.00468760786
92639.949024,-0.296922727,0.0174090875,-0.00276645735,0.000813513604,0.00193589647,-0.00240101722
92639.959051,-0.303682504,-0.0103009764,0.0109990332,0.000720302999,-0.00216909986,-0.00138475524
92639.969077,-0.281928334,-0.0591419085,-0.0124853028,0.00553716255,-0.0050426505,0.00131542365
92639.979103,-0.307520584,-0.0921736423,0.00412914738,-0.00171782098,0.00258757198,-0.00184814503
92639.989130,-0.297216632,-0.0310929863,0.0211784819,-0.00607022502,0.00388346636,-0.00199808144
92639.999156,-0.253255325,0.0533224047,-0.00606374533,0.000542137498,-0.00281944405,-0.000378080283
92640.009182,-0.216132651,0.0522349565,-0.03059496,0.00501944406,-0.00180877419,0.00174765465
92640.019209,-0.163377249,-0.0298819665,0.0126549837,-0.00212155607,0.000767567782,0.00114657952
92640.029235,-0.109489874,-0.0258103697,0.0295535115,-0.00522813339,0.000640535034,-0.00378160049
92640.039261,-0.00829223419,0.065363446,-0.0331510742,0.00193790022,0.00228530332,0.00172049029
92640.049288,0.0464888559,0.0480482454,-0.00860583103,0.00169608511,-0.00146682444,-0.00188782682
92640.059314,0.0310960793,0.0136187919,0.0105466132,-0.000693569176,0.000859446829,-0.00109500309
92640.069340,0.0571716145,-0.00526637975,-0.0118990274,7.12906646e-05,0.000814705743,-0.000193257455
92640.079367,0.062906578,-0.000548941038,0.00500768378,-0.00119743925,0.000564901163,9.1168459e-05
92640.089393,0.0777073618,0.00105105977,-0.00950833282,0.000710449373,-0.000504624326,0.000996909465
92640.099419,0.0799136214,-0.0116730685,-0.0108550713,-0.00048238049,0.00197131653,-0.000111232151
92640.109446,0.0286491382,-0.00223404458,0.00605514701,-0.00136601737,0.00075132249,0.0016190241
92640.119472,-0.021319195,0.0105527371,0.0186264593,0.000408180482,0.00106797228,-0.000123481837
92640.129498,-0.0608794995,-0.00126662432,0.0183265996,0.000625228119,-0.00312197906,0.000187575247
92640.139525,-0.0584163105,0.00956796383,-0.0353921311,-0.000144159055,0.00119207567,-0.000232139241
92640.149551,-0.060454237,0.0290865197,0.0172785518,0.000505652237,-0.00069903512,0.000314074929
92640.159577,-0.034523275,0.0141561684,0.0157827603,0.000178616045,0.000352647277,9.72937676e-05
92640.169604,-0.00642737646,0.0266879707,-0.00965212521,0.000916577951,-0.00132780731,-0.000985014823
92640.179630,0.0156202595,0.0131107875,-0.00591001607,8.80685572e-05,0.0015705108,-0.00149421172
92640.189656,0.0087531639,0.00753000999,-0.00142088796,-0.0010704065,0.000689803453,0.00155990188
92640.199683,-0.00165163626,-0.00296018516,0.00845402485,-1.76589067e-05,-0.000753363589,-3.63966567e-05
92640.209709,-0.0222556356,0.00684831134,7.54880794e-05,0.00116105612,-0.000422332664,0.000313275855
92640.219735,-0.0183554909,0.00478133234,-0.00546110326,0.000156245502,-0.000674800244,0.00132341346
92640.229762,-0.0403143389,0.0137482269,-0.0102506756,0.00055199124,-0.00110037345,-0.000697926257
92640.239788,-0.012795473,0.00616701455,0.00725867758,0.00109687403,0.000491664284,-0.00166998022
92640.249814,-0.015190177,-0.0049605652,-0.000374593776,4.43927299e-05,-0.000429256814,-0.0016984759
92640.259841,0.0103454974,0.0262240429,0.00351832201,0.000698731356,-0.000195697527,-0.000928822544
92640.269867,-0.0144776357,0.0115644897,0.00800745012,0.000546398648,0.000955587025,0.000588647451
92640.279893,-0.0216261877,0.0107341581,0.00606449936,0.000464373227,-0.000989053161,-1.56244379e-05
92640.289920,-0.0278968015,-0.00155276605,0.00157478673,-0.000391300401,0.000287399865,0.000183047156
92640.299946,-0.0262357091,0.00259472728,-0.00516007449,0.000246260332,0.000117756431,0.000276524934
92640.309972,-0.00976156695,3.11604053e-05,0.00112412035,-0.000126315875,0.000540400162,-0.000403913308
92640.319999,-0.00195987109,0.0065456386,0.00202369954,0.00132084593,0.000722294038,0.000601429853
92640.330025,-0.00430785899,0.00942570581,-0.00276353474,0.000974901212,0.000985946977,0.000104218151
92640.340052,-0.0296254337,0.013914085,-0.00486255284,-0.00166535655,-0.000715014054,0.000384648691
92640.350078,-0.00805087688,0.0109044914,0.0117466367,0.00128888783,0.00203283551,0.00233275107
92640.360104,-0.0258852654,0.00434748923,0.0141414228,0.000535479589,-0.00147960754,0.000438444677
92640.370131,-0.0102783665,0.00770295541,-0.0181832222,-0.000847766217,0.000559574929,0.000706092815
92640.380157,-0.00354671559,0.00621068929,0.00186763219,-0.0002011507,-0.00169718777,0.000269866909
92640.390183,-0.0157566518,0.00468914228,-0.0235719295,0.00013414126,0.00344803953,4.56286478e-05
92640.400210,-0.00285065962,0.0112093378,0.0334440892,0.00288305596,0.00603183848,-0.000259835843
92640.410236,0.0168427505,0.0072471562,0.245953452,0.00560746996,0.0124591107,-0.000215095107
92640.420262,-0.165932961,-0.0486769391,0.019832328,-0.00609286221,-0.0355105454,-0.00129633826
92640.430289,-0.0515996802,0.0901325794,-0.260147812,-0.00570057843,0.0245253614,-0.00277412647
92640.440315,0.162295863,0.116949841,0.0347955038,0.00771083405,0.00998450188,0.00492853428
92640.450342,-0.128340513,-0.0496817505,-0.0551185759,0.00325057238,-0.0144353535,0.000741512876
92640.460368,0.0831221168,-0.0427075823,0.160351975,-0.00365074326,-0.00448525114,-0.00293071998
92640.470394,-0.0523043579,-0.105448701,-0.214045402,0.00326948079,0.0022357686,0.00195697917
92640.480421,-0.0064477023,0.0351337822,-0.12006831,-0.00374155699,0.0191489721,-0.000799126562
92640.490447,0.00474461781,-0.0474141891,0.210326843,-0.00332184297,-0.0122952375,0.00110263693
92640.500473,-0.0763893586,0.0318952935,0.0353887935,0.00222632058,-0.0083846522,-0.00161405337
92640.510500,0.0695291973,0.0587124089,-0.0979348043,-0.00352850415,0.00922337012,0.00186030649
92640.520526,-0.119475636,0.0338659725,0.0627642917,-0.00250664934,-0.00126176094,-0.00450331682
92640.530553,0.0767145011,0.0712080439,-0.0153430303,0.00599762287,0.00316068414,0.00628647989
92640.540579,-0.047642846,-0.0335672309,0.0704034083,-0.00320013634,-0.0119650054,-0.00372673908
92640.550605,-0.0121321777,0.0261605127,-0.0310579013,-1.89905234e-05,0.0124215607,0.00131409186
92640.560632,-0.000764943955,0.00456412766,-0.0620282091,0.00137490804,-0.00438964343,0.00116868353
92640.570658,-0.0325155519,0.00852345974,0.0662118018,0.000875032699,6.02322447e-05,-0.000867036742
92640.580684,-0.0103609439,-0.0328708826,-0.0524467263,0.00218424249,-0.00369908614,2.6187289e-05
92640.590711,-0.0430141998,0.000823370229,0.00531105065,-0.00290452548,0.00754158409,-0.00190060922
92640.600737,-0.00081731803,-0.00109068323,0.00740422353,0.000744005158,-7.26595704e-05,0.00285473083
92640.610764,-0.0389634129,0.013334148,0.0472084107,-0.000889577886,-0.00300826178,-0.000854786125
92640.620790,-0.00635250286,0.0140652022,0.0165309483,0.00114108251,-0.00341039942,0.000424329552
92640.630816,-0.00915108407,0.019245089,-0.026416213,-0.00221103847,0.00413300447,-0.00146837869
92640.640843,-0.0218653348,0.0434370435,0.00395554438,0.000653191312,-0.00138240214,-0.000167158071
92640.650869,0.00556353298,0.0172129622,6.7304773e-05,0.00104840451,-0.00187588599,0.00105496625
92640.660896,-0.0305721308,0.017247248,-0.0180388453,-0.000425388874,-0.0020623072,-0.00115412531
92640.670922,-0.0105783358,-0.012979895,-0.0334515185,0.00101112017,0.00215853681,-0.00136131943
92640.680948,-0.0173996424,0.00656123803,0.0292495601,-0.000378783542,0.000357707269,0.00191969507
92640.690975,-0.0167262183,-0.0133892978,0.0283499809,-0.00100755585,-0.000244167163,-0.00110698735
92640.701001,-0.0236390482,0.00392283408,0.0133803753,-0.00216922674,-0.00248974468,-0.000416430284
92640.711028,-0.00195989849,0.0120062786,-0.0292704334,-0.00100702325,0.0010405418,0.00113166532
92640.721054,-0.00494209721,0.0188702461,0.00110541565,-0.000346559316,-0.000755760348,0.00107707119
92640.731080,-0.0110159783,0.0249386245,0.01905959,-0.000417549699,-0.00338388723,1.00288424e-05
92640.741107,-0.0109219525,0.0125277635,-0.00263844705,0.000425607099,-0.000720726205,0.000976223859
92640.751133,-0.0263473025,0.0308138001,-0.0111672059,0.00144692943,0.000550400587,0.000432938698
92640.761160,-0.0208716613,0.0212614156,-0.00802364722,-0.000617819414,-0.000257602422,-0.00034843256
92640.771186,-0.0335104447,-0.00704096994,0.0359698083,-0.000631934189,4.36010354e-05,-0.000935659383
92640.781212,-0.0153880377,-0.00632909534,-0.000689651074,0.0025931541,-0.000566262863,9.74524301e-07
92640.791239,-0.0145215479,0.00577598767,0.0103835316,0.000141980435,-0.00034122576,-0.00143420288
92640.801265,-0.0145103963,0.00628070405,0.00649470747,2.66655868e-05,0.001760541,-0.0004783949
92640.811292,-0.0107999747,0.0150040539,0.00290048237,-8.57198441e-05,-0.0012949038,0.000199912477
92640.821318,-0.0199570763,0.0142801236,-0.00248647136,0.00101523091,-0.000646157767,-0.000815816794
92640.831345,-0.00602909786,0.0158996145,-0.0120638625,0.00129646076,0.00193737494,-1.97986257e-05
92640.841371,-0.0215197499,0.00917226078,0.0142717712,0.000540122989,-0.000398483704,0.000746925722
92640.851397,-0.00689047306,0.0155798445,0.00305187354,0.00102828049,-0.000576649205,-0.00154871923
92640.861424,-0.0141046605,0.010902884,-0.00278165492,0.000698581122,-0.00125282572,-0.000647505384
92640.871450,-0.00490152317,0.0115877062,-0.0187905404,0.00168421692,-0.00139770179,0.000996464293
92640.881477,-0.0161877093,0.00335341843,0.00245741478,-0.000670550025,-0.000984911686,0.00124333928
92640.891503,-0.0214503699,-0.0172600017,0.0169681707,0.000274073233,6.30421613e-05,0.000686205353
92640.901529,-0.00177170985,0.00581281255,0.00454474245,-0.000173071499,-0.000269853039,0.000532540854
92640.911556,-0.0313282373,0.00618838613,-0.0056329527,0.00160378953,-0.00127945735,0.00137170347
92640.921582,-0.0034223266,0.0110007731,0.0151666742,-0.000202366279,0.000316042458,-0.000829399202
92640.931609,-0.0278839969,0.014995487,0.0207020965,0.000770752801,-0.00155775772,-0.0003130125
92640.941635,-0.00588797692,0.0113517237,-0.000698418903,-0.00113580421,0.00131845626,0.000309368025
92640.951662,-0.0236804397,0.023197827,-0.00638406332,0.000337722728,-0.00220756907,0.00208889263
92640.961688,-0.0175066966,-0.00333091817,0.00214411105,-0.00128813703,0.00201300858,-0.000160413433
92640.971714,-0.0102794442,-0.00180478632,0.0198019328,0.00018086257,-0.00209252047,-0.00114791339
92640.981741,-0.0271326488,0.00530239707,0.00723295862,0.00139925875,-0.000632042875,0.00101270935
92640.991767,0.00345417614,0.0186688235,-0.00428796783,0.000954510894,-0.000613134466,0.000861973863
92641.001794,-0.0191710405,0.00825923758,0.00872816561,-7.53335019e-05,-0.000260798256,0.000586869556
92641.011820,-0.019542559,0.00625315846,0.0102227881,0.000721217965,-0.00160036829,-0.00241531209
92641.021847,-0.0233885669,-0.000931309685,-0.00309612769,0.000363289163,-0.0012395099,0.000626018632
92641.031873,-0.0132121595,0.00582326088,0.000939995954,-0.00104898515,-0.000102872839,-0.00102407635
92641.041899,-0.0105153719,0.0228364646,0.00258425603,-0.000342714874,-0.00101154332,0.000507774192
92641.051926,-0.0212700769,0.025808594,0.0172475722,0.00125518175,-0.00155323033,-0.000954834383
92641.061952,-0.00489926271,0.018370078,0.0102151893,0.00108607103,0.00044200989,0.00155066781
92641.071979,-0.0201286015,0.00595382845,0.0042255935,-0.00147029733,-0.000377444662,0.000184998277
92641.082005,-0.00690628712,0.00643531009,-0.00685109631,-0.00136084131,-0.00128185411,-0.000770010625
92641.092032,-0.0133905072,0.010810566,-0.00550435788,0.00217264054,-0.000485835476,0.000787405658
92641.102058,-0.0148582462,0.0100311426,-0.000567485999,-0.00113287473,0.00176773151,0.000639333751
92641.112085,-0.0150895707,0.00714283731,0.0148434336,0.00066342742,-0.000157201308,-0.00113539641
92641.122111,-0.0195333938,0.0114770854,0.00227387491,0.000305232201,-0.0004722533,-0.000374264654
92641.132137,-0.0192598696,0.0127366753,-0.00341586117,0.000586994708,0.000104321172,0.00023639797
92641.142164,-0.00774452348,0.0173023027,-0.0020708763,0.000539856747,1.19094088e-05,0.00104120503
92641.152190,-0.0192689753,0.0048802992,0.0104980979,0.000641323177,-0.00265711057,-0.000126857881
92641.162217,-0.000229626936,0.00617607463,0.00152217976,-3.03260579e-05,0.000419373047,0.000824690226
92641.172243,-0.00732028388,0.0145212571,0.00152568689,0.000274605891,0.00119142351,-0.000226992753
92641.182270,-0.0149084101,0.00712670816,0.0281594268,0.00103893307,0.00110114227,-0.000674935628
92641.192296,0.0101119946,0.00928578589,0.0521026124,-0.000997053559,-0.00264752353,2.97365594e-05
92641.202323,-0.020482767,0.00871403215,0.0100538613,0.00436602022,-0.00234765117,-7.33282533e-05
92641.212349,-0.00701785774,0.0253285919,0.00122465811,-0.000344845391,0.000873175746,-0.00056548008
92641.222376,-0.0105238063,0.017567219,-0.0291511909,-0.00060237308,-0.00270771072,-0.000272798922
92641.232402,-0.031383228,-0.0028389334,-0.0590816343,0.00063386631,-0.00134017749,0.000213494885
92641.242428,0.0063966639,0.000634149533,-0.0644680035,0.00330128848,3.98726019e-05,0.000574086222
92641.252455,-0.0246336944,-0.0036358194,-0.0418709718,-0.00117948009,0.000216440186,-0.000495971751
92641.262481,-0.00455394727,-0.0156649511,0.0314508696,-0.00163301638,0.000549601629,0.000844929728
92641.272508,-0.0221613221,-0.0180483026,0.0688561788,-0.000685463701,-0.00243686721,1.05615589e-05
92641.282534,-0.0130855146,0.0309381937,0.0303958075,-0.00199547269,7.95536957e-05,-0.000171598617
92641.292561,-0.0275294113,0.0301778586,0.0389204748,-0.000501971908,-0.00148239021,-0.00206883495
92641.302587,-0.0140995277,0.0362529042,0.015279487,0.00300967229,-0.0018946476,-0.000113009114
92641.312614,-0.00990068316,0.0295973553,0.0043617871,0.00116117219,-0.000915136998,0.000508838694
92641.322640,-0.0206326421,0.0149979347,-0.0083568247,0.00132442396,-0.0017388527,-0.000691714336
92641.332667,-0.0170895352,0.00308645632,-0.0242172417,0.00197503426,-0.0003175236,0.00107316336
92641.342693,-0.0159637415,-0.0133575875,0.00556531767,0.00137262712,-0.00130529014,0.000623887766
92641.352720,-0.000120248277,-0.0197363835,0.0106541652,-0.000829807,-0.000918865315,-8.69097305e-05
92641.362746,-0.0213071849,0.00454721306,0.0064608052,0.000658367428,0.000519774277,-0.000829931919
92641.372773,-0.0131596393,0.00994395753,-0.000571577652,-0.000534462493,-6.45233036e-05,0.000481674809
92641.382799,-0.0108336714,0.00148163321,0.0100509386,-0.000132325147,0.000467043608,0.000297650124
92641.392825,0.000834919856,0.00885764187,0.0226216664,0.00046688611,0.000870778871,0.00149846998
92641.402852,-0.00122963886,0.0251791553,0.022023116,-7.26703268e-05,-0.00187866867,-0.000638451066
92641.412878,0.0030477873,0.0194693628,0.0019745997,0.000976615137,-0.00117825728,-7.30618951e-05
92641.422905,-0.00662053355,0.0198698881,-0.00580363309,0.000121474108,-0.00240624113,-0.00179692601
92641.432931,0.00634655485,0.00672000879,-0.00969421078,-0.000115280896,0.000168503267,-0.000670674827
92641.442958,-0.00868058505,0.00857476981,-0.00146297353,0.000436259683,-0.000908745331,-5.06905955e-05
92641.452984,-0.00836515329,9.2078546e-05,0.00721717653,0.00204667311,0.00144548901,-0.00142648035
92641.463011,-0.0184366298,0.000774873178,0.00841603092,0.000228533189,-0.000743362931,-6.8800163e-05
92641.473037,-0.0214986889,0.00953977891,0.00721717653,-0.000559229852,-0.000265592006,0.000578614313
92641.483064,-0.0167822822,0.0126205015,0.0175404176,0.000456499768,-9.70138886e-05,0.00170113648
92641.493090,-0.00694594784,0.0189544173,0.0250193752,-0.000862297585,0.000502996384,0.000218554761
92641.503117,-0.00808253696,-0.000841384646,-0.000420186483,0.000101766682,-0.000895962231,-0.000913289015
92641.513143,-0.0030935102,0.023524045,-0.025709526,0.00177398174,0.00224815473,0.0016308016
92641.523170,-0.00248507771,0.00906421556,-0.0107434276,0.00121658216,0.00106890686,-0.000520766352
92641.533196,-0.00877742389,0.0195002694,0.00601949118,-0.000670800085,-0.000816078619,-0.00112077651
92641.543223,-0.0203100819,-0.00945106329,0.00287827054,0.00298465464,0.000228413269,-8.64044996e-06
92641.553249,-0.0217782365,-0.0077632198,0.000934150735,0.00097583236,0.000256110104,-0.000122356799
92641.563276,-0.0255242363,0.00606395603,0.0211328892,3.70681107e-05,-0.00067892577,0.00117406937
