t,ax,ay,az,gx,gy,gz
89717.816733,-0.0684582539,-0.177444479,0.247829098,0.338109314,-0.303214759,-0.035615094
89717.826760,-0.422926575,0.132123721,0.51834992,0.435890734,-0.186535016,-0.016556181
89717.836788,-0.269423675,0.177210232,0.651601037,0.382450402,-0.0216616504,0.0180060565
89717.846816,-0.131160794,0.242833774,0.929509632,0.132403299,0.124782629,0.0440991744
89717.856843,-0.126584572,0.331265433,0.863147108,-0.1674404,0.141328052,0.0672793314
89717.866871,0.161325411,0.317885142,-0.034860301,-0.233874559,-0.00877969526,0.108240612
89717.876898,0.589709448,0.288982142,-1.34838854,-0.115695193,-0.198930457,0.0924145132
89717.886926,0.615507468,0.27681152,-1.35164783,-0.130254954,-0.324654549,-0.00376102328
89717.896953,0.68860668,0.150713489,0.00807575443,-0.0975974128,-0.299630165,-0.113485657
89717.906981,0.557491406,0.112022378,0.745054397,0.060056664,-0.176675215,-0.182295084
89717.917008,0.0565340073,0.177805714,0.982640333,0.322151393,-0.0399666429,-0.206849426
89717.927036,-0.528307908,0.260514684,0.781211752,0.535339296,0.0436161347,-0.217699945
89717.937064,-0.734467683,0.361303867,0.685745883,0.727117777,0.0901000127,-0.209323496
89717.947091,-0.242571908,0.357049716,0.408719917,0.82351464,0.136313051,-0.247805387
89717.957119,0.123736562,0.246675544,0.382291929,0.80733037,0.215568185,-0.281802773
89717.967146,0.611316519,-0.160281236,0.641869917,0.71190238,0.276541263,-0.281419277
89717.977174,0.585712561,-0.0947665612,0.64811378,0.595216513,0.278575391,-0.258689195
89717.987201,0.353920552,-0.122229628,0.254909996,0.516359508,0.2433929,-0.225324035
89717.997229,0.15402634,0.0455417809,-0.144064772,0.52054733,0.172557607,-0.20308052
89718.007256,0.0456043248,0.377169544,-0.696987993,0.633060515,0.0918379948,-0.202452004
89718.017284,-0.146599917,0.706510001,-1.37988082,0.678740144,0.0131295985,-0.236806795
89718.027312,-0.31677214,0.830962237,-1.29230776,0.57309705,-0.0819172859,-0.296982497
89718.037339,-0.134441715,0.629428441,-1.07206634,0.418256879,-0.183931276,-0.353101701
89718.047367,0.124654261,0.315522432,-1.03610246,0.219437808,-0.286565483,-0.385033011
89718.057394,0.243077373,0.0726635235,-0.84777652,0.0783038437,-0.350987077,-0.395578325
89718.067422,0.239456406,0.00314934914,-0.782119514,0.0029302591,-0.389615446,-0.394682437
89718.077449,-0.0390588486,0.0900653978,-0.750396927,-0.03735511,-0.424662381,-0.395092577
89718.087477,-0.372492712,0.215272708,-0.720661129,-0.0179832783,-0.460414767,-0.387037843
89718.097504,-0.460273213,0.275832226,-0.924666868,0.0219460279,-0.526308596,-0.375000626
89718.107532,-0.455032098,0.368044829,-1.23308692,-0.00136222388,-0.618367136,-0.361800671
89718.117559,-0.356042293,0.358431307,-1.29568278,-0.111306839,-0.724313021,-0.337102503
89718.127587,-0.1277523,0.280581576,-1.16474579,-0.247519791,-0.83040297,-0.288699806
89718.137615,-0.0859561358,0.32296482,-1.24486854,-0.363853067,-0.932612956,-0.240758657
89718.147642,-0.273637201,0.502929721,-1.46068279,-0.542428136,-1.0485779,-0.211005285
89718.157670,-0.137070237,0.330989319,-1.37161042,-0.80563128,-1.1370883,-0.185902596
89718.167697,0.354307651,0.0159711108,-0.954980173,-1.10347176,-1.17640245,-0.176179662
89718.177725,0.707401397,-0.234979444,-0.360350146,-1.34877563,-1.1594094,-0.184152901
89718.187752,0.955269365,-0.509560172,0.189131994,-1.45693004,-1.12188411,-0.20907636
89718.197780,0.866008781,-0.725961939,0.594294511,-1.41277564,-1.06873143,-0.247728944
89718.207807,0.756735044,-0.84289379,1.07793903,-1.21496236,-0.992590308,-0.285388172
89718.217835,0.825762257,-0.868578339,1.66712949,-0.89244926,-0.871155739,-0.321681738
89718.227862,0.781889651,-0.724616808,2.27734872,-0.458804339,-0.662631273,-0.38480556
89718.237890,0.601208528,-0.37344877,2.82998436,0.00496091973,-0.377308428,-0.485516459
89718.247917,0.482633733,0.0225520235,3.45611602,0.459466636,-0.0335159339,-0.599885404
89718.257945,0.475790881,0.45253334,3.84173797,0.980609715,0.346010894,-0.728130162
89718.267973,0.573282557,0.732186732,3.62596405,1.4423573,0.702700257,-0.857896447
89718.278000,0.784202312,0.962235551,3.53816594,1.77236474,1.02800965,-0.959315181
89718.288028,0.915307942,1.32007547,3.1051568,1.86243284,1.21665788,-1.03336442
89718.298055,0.662360478,1.55677089,2.14850957,1.71440029,1.23886168,-1.08907425
89718.308083,0.571974397,1.98746795,0.801792768,1.34997678,1.15083706,-1.12991595
89718.318110,0.480060814,2.56378052,-0.508348166,0.87296313,1.01155829,-1.21409953
89718.328138,0.617089257,2.1658614,-1.55347564,0.240355596,0.83633399,-1.30156016
89718.338165,0.79077453,1.65249687,-2.30888952,-0.381409407,0.619763315,-1.29933619
89718.348193,0.681318861,1.19968179,-3.02841668,-1.05576122,0.339808404,-1.27877152
89718.358220,0.123472797,0.647991834,-3.47658656,-1.70270491,0.0541550629,-1.22000432
89718.368248,0.200071468,-0.205232303,-3.71178823,-2.25026417,-0.278485447,-1.09153533
89718.378275,0.17132322,-1.0949142,-3.71227865,-2.6001761,-0.607118249,-0.917963207
89718.388303,-0.193186238,-1.70734329,-3.61458634,-2.72384405,-0.936565399,-0.691949546
89718.398331,-0.409097518,-2.36887564,-3.20029592,-2.69376493,-1.20490897,-0.450829327
89718.408358,-0.575402179,-2.84528422,-2.31734814,-2.58401632,-1.37925088,-0.223958895
89718.418386,-0.564971824,-3.23681071,-1.11375268,-2.37795496,-1.44928753,-0.047088258
89718.428413,-0.474550234,-3.53755453,0.13250819,-2.03084135,-1.42753637,0.0792827308
89718.438441,-0.314433175,-3.62687825,1.16265086,-1.60195649,-1.30473626,0.249006793
89718.448468,0.415993854,-3.52817442,2.23848094,-1.04992545,-1.16937757,0.338722557
89718.458496,0.499641128,-2.98918094,2.63343478,-0.24139373,-0.996760786,0.169925824
89718.468523,-0.54945876,-1.91322812,2.69990193,0.481550902,-0.654603183,0.108049929
89718.478551,-0.828151198,-1.19174164,3.56354355,1.16340399,-0.282651186,0.0834535062
89718.488578,-0.743439655,-0.791079066,3.70435662,1.89984739,0.145147294,0.0860407725
89718.498606,-0.203010005,-0.569941722,3.48259311,2.60305309,0.615640223,0.0665080771
89718.508633,0.287917509,-0.439779657,3.38868908,3.07148647,1.06440973,0.012978808
89718.518661,0.598051526,-0.30560631,3.59176719,3.27898979,1.44196665,-0.0963881612
89718.528688,0.820834007,-0.154675452,3.53352542,3.29198909,1.69584441,-0.230266333
89718.538716,0.78078885,0.269683202,2.80119198,3.23260379,1.75613523,-0.354455918
89718.548744,0.039256344,1.14669999,1.26195529,3.42392612,1.60317707,-0.404816836
89718.558771,-0.68390727,1.96942887,-1.60419227,3.72039294,1.29266739,-0.317239314
89718.568799,-0.149390936,1.92402891,-3.49037134,3.543221,0.938968182,-0.12651597
89718.578826,0.762595753,1.14731199,-3.44853536,2.72668815,0.669702649,0.0200777315
89718.588854,1.08893286,0.0753736593,-2.80202551,1.56973791,0.492813379,0.0752935857
89718.598881,1.22974039,-1.00930754,-2.37848504,0.543412924,0.291283727,0.0910083652
89718.608909,0.897242708,-1.33152552,-2.78643806,0.0894624814,-0.0237602424,0.107501052
89718.618936,0.0911605726,-0.819909001,-3.79122301,0.204527289,-0.489075184,0.143500865
89718.628964,-1.20171972,0.242289876,-4.62494996,0.662918568,-0.997209251,0.218666717
89718.638991,-1.63618418,1.08110319,-4.87646739,1.08061719,-1.34767377,0.347974658
89718.649019,-0.697030225,1.05613665,-3.68163275,1.01274979,-1.50500298,0.469724774
89718.659046,-0.30390126,0.618107641,-1.71084589,0.659002125,-1.46598423,0.483027279
89718.669074,-0.568762303,-0.0835926216,-0.654713616,0.202089176,-1.3274231,0.423222542
89718.679101,-0.644589259,-0.847081378,-0.0574199233,-0.0918923914,-1.19529569,0.369499117
89718.689129,-0.54049044,-1.35991663,-0.114282797,-0.115652584,-1.17829943,0.34427312
89718.699156,-1.22185679,-1.13445104,-0.891252674,0.169780761,-1.27879119,0.342853397
89718.709184,-1.30087655,-1.08558209,-1.89219146,0.499753356,-1.47449946,0.433281541
89718.719211,-0.628875118,-0.86394878,-2.32621884,0.663917005,-1.68437302,0.554288924
89718.729239,-0.071311086,-1.26437053,-2.12232709,0.638117611,-1.86798203,0.654969752
89718.739267,-0.0162409407,-1.63681487,-1.87235221,0.469519824,-2.03961587,0.758863926
89718.749294,0.125382868,-1.72621238,-1.70059805,0.274396926,-2.20059824,0.906048834
89718.759322,0.607533932,-1.82940271,-1.65394385,0.225559875,-2.36356974,1.01108742
89718.769349,1.03117903,-1.90259829,-1.75166539,0.194878668,-2.55220342,1.11154795
89718.779377,1.33637252,-1.77120873,-1.29524381,0.282101721,-2.70779848,1.22296548
89718.789404,1.41079327,-1.39002345,-1.13485217,0.369208395,-2.78002882,1.28015614
89718.799432,1.77413383,-1.40986124,-0.674934567,0.102942608,-2.83444524,1.38388383
89718.809459,2.38537801,-0.926408012,0.319629429,-0.198886752,-2.76051903,1.47074366
89718.819487,2.84492415,-0.562664132,0.989807156,-0.628891408,-2.58913994,1.48795569
89718.829514,2.91446764,0.243822054,2.31975987,-1.03109956,-2.36133289,1.4155035
89718.839542,3.00936536,1.15225171,3.36642464,-1.09799576,-2.05165434,1.25496924
89718.849569,4.16238096,1.10695586,4.03683969,-1.08567464,-1.66261172,1.08462834
89718.859597,3.76427713,2.15404514,5.16685026,-0.995359182,-1.02109611,0.772454739
89718.869624,3.01227628,2.89445274,6.37800885,-1.02532005,-0.17138052,0.389463395
89718.879652,2.80378609,3.42187064,7.83859578,-1.14227855,0.792398274,0.00243658852
89718.889679,3.27965588,3.51064578,9.18197964,-1.42543602,1.83566296,-0.354127407
89718.899707,3.77503818,3.6653997,10.7941869,-1.76014256,2.98163581,-0.641075492
89718.909734,4.23273694,3.84172628,11.4184995,-1.82272339,4.21474123,-0.892975926
89718.919762,3.95553912,4.00592345,10.2218932,-1.47663796,5.32185125,-1.27863896
89718.929789,2.17367821,3.88345559,7.84257053,-0.911841631,6.05226183,-1.82027221
89718.939817,1.28557932,2.76582723,5.07569349,-0.217819765,6.39239073,-2.35482788
89718.949844,1.95868083,1.82860893,1.68450967,0.784491539,6.3030653,-2.76277733
89718.959872,2.6848803,0.578727415,-2.54328572,1.78063524,5.68959761,-2.98301959
89718.969899,3.56580623,-0.959117273,-6.00490151,2.30760431,4.63993883,-2.97341061
89718.979927,4.0089124,-2.09792914,-7.98825267,2.42773438,3.39899588,-2.72875547
89718.989955,2.69792157,-2.54307997,-9.18710823,2.17913723,2.26864243,-2.34882784
89718.999982,0.485068559,-2.66703807,-8.57012258,1.56030631,1.4579215,-1.84419405
89719.010010,-1.16099382,-3.03545783,-6.62975892,0.793145776,0.95694381,-1.2055757
89719.020037,-2.27704418,-3.7306075,-5.04574259,0.0682170615,0.604813218,-0.462133229
89719.030065,-2.95656082,-4.3594832,-4.31556837,-0.475040376,0.282856494,0.285753757
89719.040092,-3.09970321,-4.67451332,-4.27364763,-0.861547053,-0.0475177057,0.948731482
89719.050120,-2.90002177,-4.55097491,-4.2066053,-1.1933471,-0.379210413,1.47006142
89719.060147,-2.51516028,-3.91439696,-3.99552451,-1.44974589,-0.699767947,1.83412862
89719.070175,-1.98703818,-2.86690071,-3.87189696,-1.65608513,-0.999430597,2.03834963
89719.080202,-1.52964176,-1.80084151,-3.62455419,-1.80101597,-1.27708852,2.11368442
89719.090230,-1.40365377,-0.846249968,-3.23154856,-1.89944506,-1.51926887,2.07385874
89719.100257,-1.78639709,0.248808318,-3.25794264,-1.97550392,-1.78925586,1.9083389
89719.110285,-1.91259479,1.1454706,-3.67256623,-1.88531756,-2.11966157,1.65454531
89719.120312,-1.48876366,1.51861914,-4.39460391,-1.69607043,-2.5228548,1.37527394
89719.130340,-0.97853319,1.39744454,-4.73048305,-1.42972636,-2.92014289,1.11455369
89719.140367,0.0056371291,0.972791505,-4.18024453,-1.12991381,-3.22292852,0.888059616
89719.150395,0.965457436,0.449754596,-2.90641352,-0.848973751,-3.31338358,0.714282274
89719.160422,1.89328569,-0.125344436,-0.935921252,-0.589866817,-3.1975162,0.591500163
89719.170450,2.69249107,-0.538940836,1.43063486,-0.238139942,-2.88794684,0.443131149
89719.180477,2.97581906,-0.567178212,3.46886737,0.0986388773,-2.38092828,0.239726901
89719.190505,2.99814341,-0.305826748,5.5176768,0.432859749,-1.70247304,-0.027280027
89719.200532,2.91358209,0.0489147645,7.19663994,0.837807477,-0.929522872,-0.342058748
89719.210560,2.68254017,0.46960021,8.35317261,1.11870873,-0.0560840294,-0.652401686
89719.220587,2.69537715,0.897643106,9.64003554,1.03056121,0.918202519,-0.910338938
89719.230615,2.97117942,1.1321652,10.4589507,0.93805635,1.8957814,-1.06810892
89719.240642,3.25612595,1.08143228,9.58588894,0.890187085,2.70111394,-1.18763375
89719.250670,3.64878642,0.977581077,8.30819131,0.849318504,3.3068161,-1.29132652
89719.260698,4.63954225,0.713388216,7.1606708,0.764233172,3.81600285,-1.33338296
89719.270725,5.48965832,0.449952128,6.44983899,0.644348264,4.36879158,-1.33316505
89719.280753,4.79071306,0.68076846,5.28072857,0.53119725,4.83152866,-1.38032675
89719.290780,2.91974412,1.38909815,3.01380188,0.456441492,5.00102949,-1.49105406
89719.300808,1.35106463,1.75002069,-0.158014971,0.350914538,4.72710133,-1.66332388
89719.310835,-0.161610219,1.77258397,-4.28814026,0.486863047,3.8733747,-1.79449964
89719.320863,-0.81094207,1.4207069,-9.29423824,0.79944092,2.50707984,-1.80237114
89719.330890,-0.647792366,0.105348015,-12.5747165,1.03588176,0.944654107,-1.61294723
89719.340918,-0.503587893,-1.50205671,-13.3430565,1.01131666,-0.439626634,-1.23173702
89719.350945,-1.15142943,-2.52848504,-11.811746,0.701948225,-1.38083243,-0.730479956
89719.360973,-2.1960239,-2.96316387,-8.92797156,0.194751024,-1.90523922,-0.161827713
89719.371000,-2.95570771,-3.35635362,-6.5542761,-0.444108546,-2.16771102,0.446677148
89719.381028,-3.00762056,-3.62037602,-5.02071395,-0.997519791,-2.35785413,1.03012323
89719.391055,-2.80089796,-3.52830301,-4.57107516,-1.35390615,-2.56711674,1.51415253
89719.401083,-2.38876794,-3.36541722,-4.61822912,-1.59322548,-2.81749105,1.86933994
89719.411110,-1.57526662,-3.07263985,-4.35940517,-1.69874871,-3.05957365,2.08422446
89719.421138,-0.712407096,-2.63080355,-3.64864467,-1.62657475,-3.24350905,2.15990782
89719.431165,-0.0917703751,-2.25552413,-2.44112532,-1.37138712,-3.31347656,2.09963918
89719.441194,0.283029006,-1.87319114,-0.934503202,-0.99350667,-3.22692561,1.9409107
89719.451221,0.800808725,-1.44108684,0.790543644,-0.613261342,-2.98550892,1.71942413
89719.461249,1.37241297,-0.998193584,2.58794203,-0.219790503,-2.62069702,1.47581923
89719.471276,1.80766668,-0.623897695,4.0851171,0.171057418,-2.11247873,1.22136319
89719.481304,2.34651899,-0.300246135,5.52362255,0.572970271,-1.51526213,0.932262003
89719.491331,2.73755976,0.126613533,6.80583503,0.879842281,-0.829970717,0.609420538
89719.501359,2.94116217,0.815525817,7.99742323,0.955481112,-0.0609107427,0.287388414
89719.511386,3.29681452,1.40152815,8.84339709,0.994134009,0.745054722,0.0187830701
89719.521414,4.17528633,1.58263525,8.95336319,1.03149843,1.5364815,-0.226786211
89719.531441,4.68676256,1.7146444,8.93768924,1.0660795,2.28492641,-0.498722643
89719.541469,4.89812129,1.79703598,8.89701061,1.02343166,3.02391076,-0.73044616
89719.551496,5.52859566,1.83587424,8.83782367,0.829741597,3.78144145,-0.900558233
89719.561524,6.04372545,1.95255504,8.51696792,0.647598147,4.56047058,-1.04847932
89719.571551,5.87250672,2.25625508,7.06058837,0.598089457,5.24733639,-1.24877274
89719.581579,4.53063677,2.75018835,4.66938531,0.618486583,5.62231159,-1.54517853
89719.591606,2.7909719,3.16154242,1.63928638,0.702239037,5.5418191,-1.88794231
89719.601634,1.43984926,3.16207433,-2.22595405,0.901600838,4.9005084,-2.2041173
89719.611661,0.349532363,2.40399182,-6.4489207,1.17798686,3.76909399,-2.40184355
89719.621689,-0.208498995,1.09860838,-10.2313075,1.53893077,2.35112143,-2.35611653
89719.631717,-0.113861722,-0.328014834,-12.7135627,1.68072724,0.874859869,-2.10704422
89719.641744,-0.786949492,-1.75573483,-13.1753946,1.58816135,-0.424837828,-1.70542097
89719.651772,-2.16623023,-2.8666859,-12.2730705,1.23184693,-1.38301039,-1.14992118
89719.661799,-3.21288039,-3.86223628,-10.1528834,0.703252912,-1.98533297,-0.43878451
89719.671827,-3.15024478,-5.05118624,-7.90017224,0.0417612158,-2.31154346,0.380177736
89719.681854,-2.47382436,-5.82575081,-5.71413986,-0.58793813,-2.44699073,1.17481172
89719.691882,-2.24547255,-5.71217645,-4.26876745,-1.10072339,-2.50818014,1.80993116
89719.701909,-2.45974001,-5.05749966,-3.53969155,-1.48428762,-2.5998919,2.25199199
89719.711937,-2.35487605,-4.19915732,-3.46960269,-1.62990928,-2.78145933,2.51382709
89719.721964,-1.76294462,-3.26112566,-3.93171109,-1.61738861,-3.050488,2.58767533
89719.731992,-0.94962376,-2.33940463,-3.97279362,-1.45710182,-3.33574939,2.51081252
89719.742019,0.0696168493,-1.6006071,-3.37343657,-1.20755696,-3.52133965,2.33679676
89719.752047,1.0888956,-1.05920306,-1.92330732,-0.932041466,-3.52983379,2.0970912
89719.762074,1.86147864,-0.538922826,-0.0186240364,-0.64098537,-3.38405037,1.80279601
89719.772102,2.45994576,0.0160908647,1.81628954,-0.300056845,-3.06427979,1.48018813
89719.782129,3.28254283,0.300552826,3.60559405,0.055158779,-2.59886408,1.16038883
89719.792157,3.8590936,0.630502573,5.48546204,0.431583017,-1.97803962,0.810563803
89719.802184,3.93127299,1.22798843,7.12132312,0.827476561,-1.22960401,0.399481922
89719.812212,3.7113665,1.88647221,8.51474966,1.0268333,-0.37405321,-0.0270161089
89719.822239,3.95535178,2.28080441,9.98282607,1.08724499,0.549715579,-0.39083162
89719.832267,4.55790004,2.65529736,10.8432388,1.18204951,1.5791893,-0.77566582
89719.842294,4.63337204,2.71740749,10.9329722,1.21329725,2.58514333,-1.12495494
89719.852322,5.27078235,2.39318167,10.9851888,1.23077965,3.53175306,-1.42012763
89719.862349,5.79454553,2.14551171,10.3423877,1.1968292,4.43636465,-1.61381328
89719.872377,5.7609437,2.02203234,8.78801598,1.15635312,5.24103975,-1.76867712
89719.882404,5.06761949,2.18931227,6.48759267,1.08769739,5.77520466,-1.94632435
89719.892432,3.60932827,2.32478866,3.52945189,1.07055593,5.91415787,-2.13538289
89719.902459,1.92475664,2.32291965,-0.342754284,1.04045928,5.54089546,-2.29170394
89719.912487,1.05550084,1.95281369,-4.38421579,0.956434429,4.65480566,-2.37161565
89719.922514,0.687045787,1.07573041,-8.11034117,1.11672151,3.37407231,-2.27741718
89719.932542,0.301331117,-0.398040264,-11.8654811,1.21869397,1.88452685,-1.98312473
89719.942569,-0.0728687638,-2.04875185,-13.2006717,1.04568756,0.480092585,-1.53912485
89719.952597,-0.580336348,-3.12448753,-12.3516326,0.727799654,-0.615107417,-0.974928856
89719.962624,-1.90606115,-3.52914589,-10.300903,0.305100054,-1.30807865,-0.363242865
89719.972652,-2.98439254,-3.72322119,-7.87265353,-0.209149957,-1.70188749,0.259291559
89719.982679,-2.68808407,-3.97664972,-5.74379617,-0.697139323,-1.88548553,0.860274076
89719.992707,-2.11227199,-3.82304671,-4.12689581,-1.21371651,-1.93320429,1.36482215
89720.002735,-1.95942054,-3.05541574,-2.88200096,-1.70342946,-1.92159963,1.70286918
89720.012762,-1.9649076,-1.92219439,-2.28616389,-2.05418754,-1.9159888,1.86746991
89720.022790,-2.12300367,-0.951682154,-2.37641349,-2.30963564,-1.98461533,1.87416744
89720.032817,-2.06921041,-0.142905373,-2.62226983,-2.48151922,-2.14209843,1.76764452
89720.042845,-1.34571523,0.50561633,-2.89763984,-2.49120688,-2.35747957,1.61228871
89720.052872,-0.313777707,0.669823726,-2.87814136,-2.39679098,-2.5491395,1.40897417
89720.062900,0.114114382,0.58326367,-2.27472246,-2.23353982,-2.65196729,1.15068054
89720.072927,0.345910117,0.539149803,-1.3318378,-1.91530311,-2.66161752,0.858771503
89720.082955,0.842079185,0.417076644,-0.273933846,-1.45883358,-2.58687401,0.533384085
89720.092982,1.3152346,0.18103063,0.828593681,-0.889187336,-2.41552663,0.194028124
89720.103010,1.93877055,-0.154345124,2.02868726,-0.296067297,-2.1561079,-0.115364611
89720.113037,2.22883063,-0.380073011,3.28947701,0.238286659,-1.80670702,-0.388868064
89720.123065,2.03602769,-0.261996739,4.31646152,0.652501702,-1.40084398,-0.655637145
89720.133092,2.17099087,-0.111678889,5.03597406,0.996007919,-0.971524656,-0.895257235
89720.143120,2.68857214,-0.0949094951,5.5130731,1.30338216,-0.532197356,-1.08008003
89720.153147,3.48248322,-0.336506366,5.97772942,1.5531702,-0.0663926005,-1.20046425
89720.163175,4.36808649,-0.86209285,6.72481036,1.79147124,0.465214044,-1.26776445
89720.173202,4.61893201,-1.30667413,7.48464264,2.11688232,1.09829485,-1.28704333
89720.183230,4.16847869,-1.50889504,7.92999045,2.35103345,1.8233434,-1.30244017
89720.193257,4.06977837,-1.48357355,8.71364258,2.27857208,2.61694479,-1.28688991
89720.203285,4.47949081,-1.24547498,9.63506126,1.88819242,3.5392549,-1.21353853
89720.213312,4.67819873,-0.660830492,9.81954689,1.4569459,4.57749796,-1.07973814
89720.223340,3.88491485,-0.329688758,8.20906809,1.06443536,5.46735811,-0.921497047
89720.233367,1.88531953,0.0847255711,5.21352258,0.597245097,5.93582726,-0.802144051
89720.243395,0.000419467521,0.544852873,1.48156718,0.125271693,5.80683994,-0.690359175
89720.253422,-0.282655131,0.835110662,-3.50816127,-0.111793317,4.97228956,-0.557405651
89720.263450,0.25471009,0.647951867,-9.43277402,-0.157810077,3.466151,-0.401638448
89720.273478,0.833088508,0.281958893,-14.3036598,-0.0550464131,1.58437586,-0.27737987
89720.283505,-0.00820069598,0.0512951568,-16.7894666,0.0103304619,-0.231931224,-0.232006803
89720.293533,-2.28177487,0.146273973,-16.2728579,0.144022211,-1.66444719,-0.190324068
89720.303560,-3.7088554,0.0293235635,-14.0844185,0.202750236,-2.6561439,-0.0824412778
89720.313588,-3.57978916,-0.508798979,-11.2050344,0.13019827,-3.29347777,0.0930154994
89720.323615,-2.97857362,-0.999369496,-8.66609348,-0.0784119219,-3.62967849,0.325832218
89720.333643,-2.16509041,-1.11744759,-6.55597296,-0.446468771,-3.77849436,0.556645989
89720.343670,-1.79149179,-1.04050113,-4.99634991,-0.772379994,-3.88071728,0.744052649
89720.353698,-1.84174197,-0.909429697,-4.48135631,-1.01672614,-4.03529835,0.892049849
89720.363725,-1.10477859,-0.904439342,-4.21337757,-1.10277772,-4.20787096,1.01120257
89720.373753,0.566588174,-1.27104533,-3.73263287,-0.997512996,-4.31201506,1.08033478
89720.383780,2.1368884,-1.94835525,-2.34453776,-0.762560129,-4.32900906,1.09498405
89720.393808,2.45583336,-2.12281019,-0.315018136,-0.40612933,-4.20602608,1.05329657
89720.403835,2.2167829,-1.73679223,1.57479374,-0.0699555874,-3.90980363,0.955064476
89720.413863,2.53657453,-1.32802847,3.24717049,0.174137771,-3.463305,0.842164576
89720.423890,3.35162046,-1.14413613,4.75794681,0.345492214,-2.97340679,0.765573144
89720.433918,3.73472838,-0.958264455,5.91943681,0.372276962,-2.43357706,0.729998112
89720.443944,3.89479532,-0.350289794,6.82895813,0.368922442,-1.80693161,0.693845391
89720.453972,4.09939668,0.0581618277,7.30097885,0.244917139,-1.13266921,0.649554133
89720.464000,4.78948907,0.513176171,7.98457427,0.0124649853,-0.423892945,0.589903295
89720.474027,5.60782118,0.944635305,8.63006472,-0.184628382,0.323631853,0.487706631
89720.484055,5.92106529,1.34867627,8.83566094,-0.252224743,1.1217128,0.340305716
89720.494082,5.92196078,1.64070633,8.82047448,-0.249738142,1.94704902,0.146407083
89720.504110,6.12684856,1.76807321,9.05101751,-0.161910817,2.8065896,-0.112477742
89720.514137,6.24586364,1.81883236,9.13259397,0.0236313529,3.73248506,-0.426346987
89720.524165,6.00664163,1.99457924,8.72550955,0.306415111,4.64652109,-0.788965404
89720.534192,5.12278784,2.09656823,7.4027669,0.56878072,5.36650419,-1.16511691
89720.544220,3.70726345,1.8032794,5.22074318,0.811766446,5.75892925,-1.49316132
89720.554247,2.73319045,1.22311761,2.42281167,1.02367866,5.7986908,-1.72529662
89720.564275,1.74506555,0.609687749,-0.431705071,1.09865654,5.51775122,-1.86345768
89720.574302,1.09390568,0.039466918,-3.01508549,1.20900106,4.97177792,-1.8788662
89720.584330,0.998382385,-0.447991897,-5.90362432,1.21533728,4.18962955,-1.77814651
89720.594357,0.415536684,-1.1251608,-8.13506528,1.03075099,3.22132134,-1.55512142
89720.604385,-0.47814139,-1.76526283,-9.71542367,0.804222822,2.15450382,-1.2205528
89720.614412,-1.6908624,-2.36816179,-10.9468979,0.484034389,1.06681764,-0.801256418
89720.624440,-2.92962196,-3.04173735,-11.2150754,0.131906688,0.0530128852,-0.312889934
89720.634468,-3.49583195,-3.64591028,-10.647618,-0.180692226,-0.785676777,0.210715503
89720.644495,-3.61051572,-3.98156817,-9.48653191,-0.500700295,-1.42035055,0.711576998
89720.654523,-3.50934843,-3.85718864,-8.0617072,-0.824674606,-1.88057542,1.11775994
89720.664550,-3.09887933,-3.47169645,-6.63622373,-1.04821169,-2.19597435,1.44497478
89720.674578,-2.66005712,-3.01092486,-5.62130668,-1.23954964,-2.43822813,1.6656512
89720.684605,-2.5393136,-2.19540094,-4.73513233,-1.34813976,-2.64713454,1.75188017
89720.694633,-2.44396654,-1.24021838,-4.293792,-1.36043191,-2.85278225,1.75222874
89720.704660,-1.52046725,-0.657051412,-3.9397921,-1.30966079,-3.06508684,1.70137298
89720.714688,-0.549634043,-0.286870922,-3.48535147,-1.2388705,-3.27248883,1.60383773
89720.724715,0.0242368348,0.0358859908,-2.92724178,-1.16883361,-3.44654393,1.47615051
89720.734743,0.710835901,0.284894435,-2.27029062,-0.998063207,-3.56431127,1.31934869
89720.744770,1.54399894,0.426848937,-1.68182204,-0.751588166,-3.61548686,1.12770927
89720.754798,2.27389083,0.313410554,-0.773028446,-0.467083246,-3.60069084,0.905531287
89720.764825,2.79398161,0.194434631,0.380029245,-0.118763611,-3.49988246,0.658367336
89720.774853,3.17135011,0.336146483,1.62188633,0.204356134,-3.28003454,0.380653411
89720.784881,3.28802565,0.6259623,2.9785745,0.456979603,-2.91278338,0.0717829093
89720.794908,3.30263548,0.969588398,4.31571274,0.641299129,-2.39504695,-0.24646911
89720.804936,3.37314255,1.19406256,5.65720743,0.749223173,-1.77497733,-0.535204768
89720.814963,3.33612771,1.32190619,6.74274992,0.729330182,-1.08379841,-0.76977092
89720.824991,3.34664092,1.37432115,7.53668204,0.669790149,-0.366794229,-0.925926447
89720.835018,3.88630835,1.16957321,7.83754364,0.509569883,0.35598582,-0.988900363
89720.845046,4.39787548,0.79573113,8.0662349,0.360895932,1.06879842,-0.993000031
89720.855073,4.30948846,0.513577445,7.73183227,0.3090325,1.73049045,-0.963989735
89720.865101,4.11898372,0.338125163,7.06906628,0.303413749,2.31270218,-0.941413641
89720.875128,4.28251015,0.273528772,6.64305854,0.280010164,2.85221815,-0.931220889
89720.885156,4.60275098,0.321527079,6.28634178,0.420561939,3.41656399,-0.952819407
89720.895184,3.9965597,0.349008083,4.9781251,0.659111977,3.87269759,-1.02895701
89720.905211,2.16491769,0.436898548,3.44846288,0.832447529,4.13909483,-1.13470626
89720.915239,1.0507231,0.56234396,1.83639417,0.88459301,4.17150593,-1.22265744
89720.925266,0.633252749,0.561977319,0.0543891773,0.765709519,3.98977661,-1.27979314
89720.935294,0.295113046,0.551261425,-1.53315299,0.702150524,3.6682899,-1.30718887
89720.945321,-0.356841444,0.492882009,-3.41582259,0.639149189,3.21216846,-1.31096363
89720.955349,-1.33746675,0.174875798,-4.8463119,0.562014997,2.64092135,-1.24840569
89720.965376,-1.87449141,-0.360341817,-5.96678308,0.521835625,1.99021769,-1.10558701
89720.975404,-2.2499589,-0.830367559,-6.91648678,0.431291282,1.29382348,-0.908458591
89720.985431,-2.86116071,-1.11612614,-7.46595606,0.294180036,0.585253477,-0.674504936
89720.995459,-3.17529914,-1.37827237,-7.82951406,0.143260032,-0.103981376,-0.408093482
89721.005486,-3.40366336,-1.67511728,-7.99675629,-0.0305511672,-0.771210313,-0.122856945
89721.015514,-3.68068553,-1.95356246,-7.97676331,-0.154681101,-1.40486419,0.173555285
89721.025542,-3.45886678,-2.19377247,-7.87692112,-0.226220533,-1.99291205,0.475778788
89721.035569,-2.7987098,-2.38060232,-7.28482792,-0.321102858,-2.49707294,0.768393576
89721.045597,-2.12412201,-2.20630403,-6.24999504,-0.441677183,-2.89133239,1.02015376
89721.055624,-1.44200527,-1.68591734,-5.21349394,-0.574804068,-3.18565178,1.20231926
89721.065652,-0.681991572,-1.12562067,-4.06308881,-0.748537481,-3.3708818,1.31339467
89721.075679,0.138955612,-0.761104053,-2.75334477,-0.90625149,-3.43853259,1.37208986
89721.085707,0.921371479,-0.504905771,-1.49171564,-0.990630567,-3.3992703,1.37887859
89721.095734,1.51696641,-0.325680399,-0.31297757,-0.986653388,-3.24882078,1.31557953
89721.105762,1.90246239,-0.134766928,0.935551834,-0.887688756,-3.0095253,1.17874527
89721.115790,2.27342599,0.0123757897,2.11014156,-0.683401644,-2.66850376,0.961437881
89721.125817,2.82016147,0.0857145822,3.18094883,-0.385535628,-2.24021149,0.697463512
89721.135845,3.23304289,0.170034641,4.41620199,-0.0724727884,-1.72439218,0.415282965
89721.145872,3.37475145,0.341554845,5.76898263,0.141348422,-1.11482418,0.144234672
89721.155900,3.4233752,0.577375817,7.09441466,0.259968013,-0.420853049,-0.095796302
89721.165927,3.75645506,0.747966923,8.08130622,0.281733483,0.336682051,-0.275221437
89721.175955,4.35805142,0.765493082,8.78224441,0.187780097,1.15418196,-0.394613355
89721.185982,4.65448994,0.756485892,8.94773249,0.0562508404,1.96786284,-0.466096073
89721.196010,4.81098457,0.729009709,8.62685628,-0.0409747809,2.70208788,-0.528574109
89721.206038,5.30746577,0.651303369,8.22932996,-0.142487288,3.37541127,-0.569983065
89721.216065,5.71486818,0.636069998,7.81809893,-0.164746523,4.03799343,-0.623156548
89721.226093,5.590358,0.730333067,6.85198069,-0.016054783,4.68030405,-0.728084266
89721.236120,4.47204721,0.854022137,5.32208642,0.162121341,5.14015341,-0.890916348
89721.246148,2.83099616,0.802211432,3.8007361,0.268147379,5.36197233,-1.0806812
89721.256175,1.81620099,0.617337095,2.0525568,0.433454573,5.32233,-1.22688389
89721.266203,1.39253938,0.267588276,-0.535825956,0.649041772,4.99865389,-1.2918334
89721.276230,0.896578107,-0.0665055854,-3.16804434,0.843593121,4.37070608,-1.29567814
89721.286258,0.233124208,-0.284787686,-5.82866465,1.14753532,3.45647407,-1.22739077
89721.296286,-0.369415058,-0.374902842,-8.4321836,1.18669879,2.39048767,-1.10966563
89721.306313,-0.790286893,-0.717627169,-9.66190075,1.06609917,1.29597068,-0.92890048
89721.316341,-1.26647145,-1.02741617,-10.281719,0.821149349,0.288856208,-0.705595493
89721.326368,-2.05274662,-1.32596935,-9.96055695,0.514164388,-0.523808479,-0.429011285
89721.336396,-2.78693373,-1.72444479,-9.01323518,0.240022793,-1.15445411,-0.0983217806
89721.346423,-3.25889395,-2.00969878,-7.98177149,0.00344488211,-1.63769138,0.257837385
89721.356451,-3.0831706,-2.22326934,-6.91205669,-0.261270404,-1.98839295,0.58448875
89721.366479,-2.58459505,-2.25848284,-5.77105184,-0.510570228,-2.24186826,0.847936869
89721.376506,-2.22570387,-2.00809923,-4.96872949,-0.666033566,-2.43810821,1.03909147
89721.386534,-1.84660826,-1.70181312,-4.4089019,-0.722403646,-2.59487343,1.1523397
89721.396561,-1.67532888,-1.43643799,-3.96736517,-0.749406517,-2.75114369,1.20966184
89721.406589,-1.47046637,-1.20694096,-3.46097807,-0.689868867,-2.89731669,1.23406887
89721.416616,-0.863737767,-0.992468777,-3.12125161,-0.585738719,-3.02576065,1.22870243
89721.426644,-0.112820177,-0.93016225,-2.53506208,-0.530502915,-3.11037445,1.2148875
89721.436672,0.686764486,-0.866406256,-1.53981127,-0.49738279,-3.13469911,1.18594003
89721.446700,1.19892381,-0.67897259,-0.563240032,-0.444658071,-3.07870674,1.13148105
89721.456728,1.5113962,-0.408056923,0.43299102,-0.353101522,-2.93297482,1.05735457
89721.466755,1.96747379,-0.290919613,1.48495682,-0.299305141,-2.70964098,0.974804521
89721.476783,2.37835381,-0.229516612,2.58439982,-0.235599667,-2.4022212,0.875641763
89721.486809,2.65786166,-0.131747435,3.43863823,-0.116954505,-2.0330534,0.753006399
89721.496838,2.96484028,-0.00990457729,4.19968047,0.00241636927,-1.61020219,0.614210665
89721.506866,3.13159619,0.144908822,4.92847405,0.105564855,-1.14680278,0.446252316
89721.516893,3.26343481,0.381769074,5.54846941,0.182993338,-0.651547313,0.27318868
89721.526921,3.43961994,0.68734572,6.05150602,0.238095462,-0.118614383,0.102155671
89721.536948,3.73977017,0.916125249,6.48827715,0.280063421,0.442335486,-0.0794639289
89721.546976,3.96380455,0.97151089,6.80931761,0.331077337,1.0416503,-0.267500937
89721.557003,3.89297804,1.0185142,6.90651308,0.426265895,1.65663338,-0.444068521
89721.567031,3.80526848,1.06204208,6.8737103,0.53058356,2.25564194,-0.59403646
89721.577058,4.013901,1.01636666,6.89810356,0.550031841,2.85730934,-0.707497537
89721.587086,4.37122186,0.937136473,6.90077074,0.509254277,3.4880116,-0.791481376
89721.597113,4.30767674,0.989188878,6.37969168,0.491347969,4.11562395,-0.880996585
89721.607141,3.44902928,1.02851975,5.23669654,0.47997573,4.63596439,-1.00191712
89721.617169,1.80428551,0.998989557,3.66018839,0.320598871,4.93228197,-1.12592459
89721.627196,0.495814336,0.935673269,1.92309163,0.181303024,4.96321726,-1.19693768
89721.637224,0.10465353,0.708311935,-0.736335084,0.236488521,4.67877102,-1.19643462
89721.647252,-0.26797596,0.403677539,-3.98870782,0.359839469,4.02815247,-1.14956486
89721.657279,-0.760183723,0.0461221381,-7.01543114,0.561279178,3.01966429,-1.05042338
89721.667307,-1.10751701,-0.361163508,-9.95232455,0.65427804,1.75899458,-0.905569851
89721.677334,-1.41581109,-0.882997471,-11.4601479,0.62530154,0.485660344,-0.683442235
89721.687362,-1.3693438,-1.34816481,-11.7337672,0.519374847,-0.644549847,-0.405649751
89721.697390,-1.67945005,-1.45332922,-10.5710527,0.381875008,-1.46671128,-0.114056796
89721.707417,-2.37273729,-1.30213342,-8.54933231,0.154343307,-1.99650884,0.15498054
89721.717444,-2.78552445,-1.29150214,-6.53839113,-0.0865816846,-2.29971242,0.409823477
89721.727472,-2.75304199,-1.35733202,-5.02178771,-0.273984075,-2.44393182,0.637088001
89721.737499,-2.59076994,-1.2991718,-3.91661873,-0.440931767,-2.50284266,0.81045264
89721.747528,-2.46002409,-1.08793099,-3.08070275,-0.603921473,-2.50816607,0.920395374
89721.757554,-2.14604435,-0.813117733,-2.52831845,-0.738915205,-2.51147389,0.972299814
89721.767583,-1.78946087,-0.546604978,-2.28316471,-0.800834239,-2.53650618,0.981075466
89721.777610,-1.37166508,-0.311234087,-2.20255447,-0.819601297,-2.61452603,0.943758726
89721.787638,-1.08874691,-0.0432696713,-2.17953015,-0.78107971,-2.73144603,0.880869508
89721.797665,-0.705889092,0.166077428,-2.2833126,-0.702922106,-2.87730908,0.809893072
89721.807693,0.124179922,0.126922645,-2.23213537,-0.620393395,-3.03010654,0.742291152
89721.817721,1.12474973,-0.0134587626,-1.83066937,-0.52743572,-3.14732361,0.666824877
89721.827748,1.64251732,-0.0360427888,-1.22045131,-0.436565787,-3.21725392,0.582609594
89721.837776,1.9016068,0.0358045961,-0.552744942,-0.316337913,-3.21628833,0.488979548
89721.847803,2.36834358,0.0841156225,0.224349438,-0.176187992,-3.11485958,0.394294053
89721.857831,2.91085325,0.0513394344,1.10627256,-0.0953836814,-2.90826178,0.302352697
89721.867859,3.39214478,0.0351994698,2.26851601,-0.0590975732,-2.61728287,0.209635839
89721.877885,3.6463627,0.0440586297,3.4064001,-0.0336420164,-2.23926425,0.114545271
89721.887914,3.63914824,0.081611823,4.3504614,0.0241909251,-1.78133345,0.0126452725
89721.897940,3.559546,0.145258658,5.05090918,0.0723978654,-1.25530005,-0.077449739
89721.907969,3.71753876,0.166598237,5.72558129,0.0343977548,-0.699968636,-0.151248589
89721.917997,3.9918581,0.167972156,6.38855011,0.0426650085,-0.122568697,-0.215350613
89721.928024,4.30819638,0.175767924,6.67456077,0.119390674,0.485861331,-0.304596871
89721.938052,4.55926636,0.141592537,6.94272889,0.21409668,1.12230921,-0.428512156
89721.948079,4.55412052,0.0501212907,7.40383073,0.323152602,1.80140996,-0.555909753
89721.958107,4.15859998,0.0926736075,7.59379684,0.424671769,2.49256706,-0.647495627
89721.968134,4.13947998,0.207874835,7.35861212,0.500288785,3.17893243,-0.730484784
89721.978162,4.21274892,0.166790106,6.6264663,0.569959998,3.7981658,-0.813488066
89721.988189,3.48661491,0.0480662579,5.36883999,0.630845487,4.25805616,-0.913517952
89721.998217,2.61594764,-0.0997550902,3.93592958,0.694054544,4.55439377,-0.98584491
89722.008245,2.26851762,-0.385019893,2.37038473,0.652926266,4.67071962,-1.0017848
89722.018273,1.79814628,-0.687358141,0.922100817,0.463041782,4.62501335,-0.94816035
89722.028300,1.36585464,-0.846541279,-0.754956198,0.293704689,4.41264439,-0.836474061
89722.038328,0.696738256,-0.921839681,-2.8854134,0.134696394,3.96573448,-0.686109066
89722.048355,-0.216216839,-0.918058117,-4.92869091,0.00319722528,3.29013109,-0.496931463
89722.058383,-0.847863614,-0.88514822,-6.8622221,-0.0726948753,2.44446373,-0.298552573
89722.068411,-1.59351305,-0.94667324,-8.54534587,-0.13412708,1.49204862,-0.112924367
89722.078438,-2.37214253,-1.04726917,-9.56413362,-0.147243142,0.508605778,0.0609209239
89722.088466,-2.77546746,-1.12772407,-9.86091234,-0.121711157,-0.40266934,0.228481427
89722.098493,-3.10009426,-1.13094318,-9.29569545,-0.0952763557,-1.13908422,0.382583648
89722.108521,-3.26079891,-0.980512527,-8.25182996,-0.123761259,-1.7103138,0.508473694
89722.118549,-3.03518135,-0.740821436,-7.12249158,-0.160777599,-2.12345743,0.60293442
89722.128575,-2.64430806,-0.566486613,-5.99447656,-0.228631213,-2.40542102,0.671031952
89722.138604,-2.33951204,-0.407614148,-4.93658313,-0.323862672,-2.58078074,0.716409326
89722.148632,-2.04389857,-0.139026486,-4.01374873,-0.433915675,-2.69076324,0.745934963
89722.158659,-1.73465814,0.128994483,-3.26930399,-0.548239291,-2.76360941,0.758930385
89722.168687,-1.38049311,0.282726516,-2.64041865,-0.669712961,-2.80589581,0.748544633
89722.178714,-1.03983003,0.301888751,-2.06900115,-0.750330329,-2.83234811,0.724383891
89722.188742,-0.559889114,0.199071643,-1.58872874,-0.750969231,-2.84576535,0.695444345
89722.198769,0.0855683056,0.0559103955,-1.151241,-0.674532235,-2.83548331,0.64041096
89722.208797,0.664409958,-0.0490473779,-0.632148149,-0.532294393,-2.80469251,0.563015461
89722.218824,1.28451798,-0.137583447,-0.018117256,-0.352349162,-2.71804786,0.462766886
89722.228852,1.8892522,-0.185865978,0.847799317,-0.171314135,-2.56624508,0.350211591
89722.238880,2.40352303,-0.276066912,1.89643685,-0.00225027069,-2.33202577,0.243208438
89722.248908,2.81230169,-0.29565541,2.97335822,0.138206437,-2.000597,0.135246292
89722.258935,3.02777546,-0.193579475,4.02607689,0.226953089,-1.5867157,0.0359274223
89722.268963,3.21489319,-0.0795392545,4.98603719,0.278527588,-1.11147785,-0.065172568
89722.278991,3.44330973,0.0587808364,5.82733954,0.28354606,-0.586617887,-0.15021129
89722.289018,3.71102339,0.112886521,6.58731386,0.260217041,0.019932786,-0.22193101
89722.299046,4.05767263,0.0743595138,7.19680828,0.232963309,0.688143313,-0.289371312
89722.309073,4.21405971,0.0084856504,7.66271782,0.248409912,1.40283644,-0.363486826
89722.319101,4.16108888,-0.0655152592,7.87365365,0.291937947,2.10848808,-0.419645429
89722.329129,4.39428359,-0.107519587,8.03324098,0.313709021,2.80305815,-0.444892466
89722.339156,4.80206623,-0.120540689,8.00539436,0.268493325,3.52322078,-0.441642344
89722.349184,4.9116673,-0.0114256494,7.53316965,0.226795167,4.24413967,-0.448062688
89722.359212,4.48729213,0.143891754,6.34805911,0.191787377,4.86382389,-0.490660757
89722.369239,3.19276378,0.427581562,4.67218926,0.105514541,5.2794137,-0.598726749
89722.379267,1.8743729,0.732720108,2.6745518,0.0329420716,5.44554901,-0.714202762
89722.389294,1.47659129,0.725568921,0.438209631,0.00537063088,5.33420181,-0.792100728
89722.399322,0.753077179,0.532458087,-1.99382112,0.0522241555,4.94876528,-0.849242032
89722.409350,-0.337018882,0.403261067,-4.78862836,0.259033799,4.24265432,-0.862910211
89722.419377,-0.95662078,0.281851925,-7.7550413,0.476583689,3.24627066,-0.820537448
89722.429404,-1.13757911,-0.0613768442,-9.92150154,0.606491387,2.09072852,-0.730299711
89722.439433,-1.36008891,-0.409211354,-11.1020218,0.628153026,0.917378366,-0.609333873
89722.449459,-2.13589252,-0.49404287,-11.4993062,0.593043208,-0.159953892,-0.471734732
89722.459487,-3.22573169,-0.444727781,-11.009561,0.507549345,-1.06259739,-0.319770783
89722.469515,-3.99537137,-0.513152644,-9.83057214,0.313135117,-1.78568316,-0.123717099
89722.479542,-4.21108566,-0.625997225,-8.5926448,0.0658608675,-2.35259676,0.103498742
89722.489570,-3.59675374,-0.762119221,-7.51710757,-0.181204572,-2.79745889,0.354408175
89722.499597,-2.43509686,-1.04608375,-6.41148091,-0.393058777,-3.12271571,0.606729388
89722.509625,-1.61240188,-1.09178226,-5.36211974,-0.567950368,-3.34061909,0.806152761
89722.519653,-1.16743561,-0.849779677,-4.30112951,-0.718398511,-3.47962809,0.930012941
89722.529680,-0.960765698,-0.535079813,-3.3325779,-0.778601348,-3.57260489,0.981643915
89722.539708,-0.689489746,-0.25262773,-2.60900644,-0.754479766,-3.63483238,0.966247916
89722.549736,-0.424342653,-0.0419346233,-2.06847099,-0.68774575,-3.68886471,0.895417154
89722.559763,-0.0419246864,0.0225529003,-1.78685361,-0.524205565,-3.74887514,0.80408138
89722.569791,0.785318457,-0.125519062,-1.6602865,-0.293843776,-3.82887769,0.703091621
89722.579819,1.57135135,-0.331672333,-1.37467566,-0.094027862,-3.88467765,0.606749117
89722.589846,2.35621592,-0.453745346,-0.864996535,-0.00243243109,-3.88195944,0.527240157
89722.599874,3.21032749,-0.432575278,-0.111465402,0.0447787568,-3.7947731,0.462382585
89722.609902,3.78489643,-0.422965154,0.743131904,0.0917233601,-3.63921261,0.406223983
89722.619929,4.14088254,-0.357924673,1.76190446,0.134400785,-3.40885949,0.340584517
89722.629957,4.37271824,-0.230045019,2.79868496,0.162914708,-3.06534386,0.270213157
89722.639984,4.55552746,-0.205850197,3.83684202,0.157200634,-2.6172452,0.193916798
89722.650012,4.73482634,-0.213240453,4.9968637,0.183433309,-2.07375979,0.109014958
89722.660040,4.67373065,-0.235268892,5.93320581,0.296934843,-1.4414233,0.00234736083
89722.670067,4.64389899,-0.258000509,6.71853844,0.432632476,-0.732088804,-0.125917926
89722.680095,4.73393786,-0.143006495,7.72117527,0.597578585,0.0405754782,-0.274567068
89722.690123,4.96263994,-0.00986263784,8.83096372,0.601137102,0.932081401,-0.408276141
89722.700150,4.81264257,0.199176418,9.87751159,0.549970031,1.92976046,-0.505398929
89722.710178,4.46233743,0.40534328,9.78699019,0.457689613,2.88725424,-0.543760717
89722.720206,4.68378618,0.458648608,9.16008287,0.265028566,3.71281409,-0.530305088
89722.730233,5.52933275,0.246942086,8.24336316,-0.00988502055,4.40432024,-0.46350795
89722.740261,6.10464725,0.174945356,7.0888278,-0.200682938,5.01044893,-0.38813597
89722.750289,6.07761369,0.340230903,5.55201044,-0.265275508,5.54009867,-0.366939336
89722.760316,5.21523056,0.524928422,3.8713481,-0.327002794,5.91845274,-0.443960905
89722.770344,3.26119229,0.944511532,2.22850549,-0.51570183,6.05442047,-0.619552672
89722.780372,1.08073078,1.54416903,0.143102649,-0.565150857,5.86191463,-0.877002597
89722.790399,-0.368199764,1.69996019,-2.9399376,-0.274581134,5.30158949,-1.09949934
89722.800427,-0.523195862,1.26598045,-6.42207303,0.232294858,4.35928726,-1.20684397
89722.810455,0.165042934,0.378465502,-9.38751916,0.717900455,3.15814757,-1.20017993
89722.820482,0.600285495,-0.574623011,-10.9977045,1.03426397,1.92575061,-1.12232935
89722.830510,0.144596687,-1.10493546,-11.1211263,1.12885249,0.918119788,-1.00029051
89722.840538,-1.14207635,-1.16732032,-9.72901439,1.03108788,0.274823397,-0.845101655
89722.850565,-2.83649272,-1.01033396,-7.63847536,0.729770422,-0.0806364268,-0.654140711
89722.860593,-4.01649336,-1.03528369,-5.79778144,0.384065777,-0.243587747,-0.396775395
89722.870621,-4.16348571,-1.31843618,-4.64902875,0.0114546586,-0.299290955,-0.0773326904
89722.880648,-3.76599124,-1.78330541,-3.82864176,-0.387059689,-0.313278139,0.288347304
89722.890676,-3.24451501,-2.13893803,-3.26431802,-0.691331983,-0.32027775,0.624705017
89722.900704,-2.77607478,-2.13469864,-3.04805837,-0.907821417,-0.355014682,0.871367037
89722.910731,-2.71502585,-1.8295427,-3.01043094,-1.04721427,-0.437547892,1.02106178
89722.920759,-2.67993876,-1.42412183,-3.14520941,-1.03368533,-0.590454638,1.08893991
89722.930787,-2.60700767,-0.988871775,-3.61643226,-0.944805264,-0.859573722,1.06835663
89722.940814,-2.61890327,-0.496978631,-4.29028487,-0.768862963,-1.25228131,0.984136701
89722.950842,-2.54239579,0.0259019185,-5.30828995,-0.512507379,-1.79142952,0.849859834
89722.960870,-2.61747149,0.469371077,-6.6775278,-0.255055845,-2.50045872,0.69808501
89722.970897,-2.38993684,0.642619128,-8.05966546,0.0410221368,-3.34811282,0.585454822
89722.980925,-1.43924034,0.510317713,-9.35525882,0.223340809,-4.29360914,0.551175177
89722.990953,-0.0194775845,0.106047322,-9.58421078,0.311118871,-5.18504953,0.657209992
89723.000980,2.56605051,-0.491110031,-8.42507289,0.287045747,-5.82989311,0.871539831
89723.011008,5.10342262,-1.10244014,-6.07596067,0.0773375332,-6.11158705,1.10982513
89723.021036,6.87643358,-1.41787738,-3.02203662,-0.152262628,-6.10077381,1.29427195
89723.031063,7.19956897,-1.23779875,-0.081603932,-0.179732874,-5.87488699,1.36392915
89723.041091,6.05504998,-0.742547236,1.92789932,-0.037780799,-5.49412584,1.28390086
89723.051119,4.69208317,-0.227528507,3.38462783,0.0662649125,-5.02358818,1.09866226
89723.061146,4.49039331,0.273143864,4.60170528,0.189662486,-4.44912815,0.846286416
89723.071174,5.00040883,0.70427552,5.36588757,0.259928912,-3.80601382,0.560330033
89723.081202,5.32483952,1.04100455,6.35370676,0.309189409,-3.12687397,0.260441095
89723.091229,5.33872542,1.3203746,7.19071288,0.354819477,-2.37835121,-0.0331045128
89723.101257,5.15563972,1.53665909,7.756208,0.387538284,-1.59289086,-0.310656756
89723.111285,4.9331625,1.55410912,8.15309544,0.425986856,-0.802308023,-0.541100085
89723.121312,4.83789713,1.27336399,8.19824625,0.444538981,-0.0425912663,-0.70349437
89723.131340,5.090327,1.02805315,8.1799665,0.395170361,0.673834503,-0.808056951
89723.141368,5.51187542,0.826867295,8.25028097,0.35057199,1.39674854,-0.892187536
89723.151395,5.59307018,0.57429261,8.02309251,0.352847397,2.09143591,-0.964606106
89723.161423,5.1016825,0.478590011,7.54985424,0.407476306,2.70453405,-1.03234386
89723.171451,5.0258215,0.579364799,7.03190881,0.498086095,3.29677153,-1.08547544
89723.181478,5.31096706,0.412837289,6.48964493,0.609812081,3.89272118,-1.14580429
89723.191506,5.00003415,0.257246184,5.85338759,0.807184577,4.45341635,-1.2500037
89723.201534,3.68834101,0.363315718,4.37280183,0.939605713,4.86896467,-1.40253496
89723.211562,2.48549872,0.368907254,2.63632056,0.980000257,5.08093739,-1.56709719
89723.221589,2.15000712,0.237106921,0.992170378,0.959905386,5.06801176,-1.6498121
89723.231617,1.78521709,-0.109109779,-0.818104436,0.875378489,4.85140991,-1.6442759
89723.241645,1.3931144,-0.59573302,-2.69653976,0.769901633,4.50121498,-1.52065325
89723.251672,1.04298374,-0.955048562,-4.29923098,0.498434961,4.00305414,-1.28489435
89723.261700,0.426016358,-1.22867641,-5.16313797,0.126195624,3.44629431,-0.954384387
89723.271728,-0.0178906076,-1.29333681,-5.66237227,-0.18485707,2.94229174,-0.596180677
89723.281755,-0.807639302,-1.15952075,-5.98761369,-0.462064445,2.51053667,-0.308397055
89723.291783,-2.18655961,-1.10569797,-5.85118453,-0.646941364,2.12468171,-0.0680915266
89723.301811,-2.7440345,-1.21639911,-5.50025337,-0.699892998,1.80034757,0.14240019
89723.311838,-3.19687793,-1.47712919,-5.33874822,-0.68756175,1.50395751,0.304892451
89723.321866,-3.76759634,-1.70561588,-5.32538838,-0.603041768,1.17109144,0.438128799
89723.331894,-3.59018576,-1.75929018,-5.35179825,-0.452302098,0.807088435,0.559415519
89723.341922,-3.06453049,-1.66653328,-5.30061927,-0.318709135,0.461097449,0.639832079
89723.351949,-2.84430836,-1.26649498,-4.96052631,-0.27634117,0.158947706,0.653786778
89723.361977,-2.85523599,-0.666174045,-4.41151004,-0.287371993,-0.0675895587,0.623295188
89723.372005,-2.69933056,-0.130244044,-3.93767204,-0.380363971,-0.236079231,0.577781498
89723.382032,-2.75361803,0.109041682,-3.56072206,-0.520604193,-0.41226545,0.547003567
89723.392060,-2.93471928,0.0799973736,-3.60372358,-0.590426922,-0.647557616,0.535571992
89723.402088,-3.32909766,-0.010694997,-4.34768492,-0.627091229,-0.998410404,0.516089618
89723.412115,-3.35502442,-0.258179812,-5.55377278,-0.57083112,-1.51389134,0.528321266
89723.422143,-2.42556009,-0.672761899,-6.72869918,-0.437554032,-2.19620109,0.595960736
89723.432171,-1.41997464,-0.907566826,-7.49510675,-0.319433779,-2.93170428,0.677965879
89723.442199,-0.491015119,-0.785807701,-7.4481562,-0.337829828,-3.60731363,0.759748876
89723.452226,0.588037935,-0.595376607,-6.5837623,-0.354311079,-4.17380905,0.83176446
89723.462254,1.14964847,-0.422998326,-5.77227466,-0.430059105,-4.63278723,0.882109702
89723.472282,1.83751689,-0.47406435,-4.74413748,-0.489266485,-4.98857069,0.9382478
89723.482309,3.01597279,-0.616974107,-3.73691508,-0.479900956,-5.18720961,0.961452961
89723.492337,3.87765859,-0.680988752,-2.6183056,-0.414777339,-5.25696659,0.926841736
89723.502365,4.09198553,-0.717424778,-1.53838212,-0.322340876,-5.23245001,0.85485518
89723.512393,4.61866839,-0.739310739,-0.257045839,-0.214222938,-5.09751606,0.778162241
89723.522420,5.06222728,-0.726658324,1.17500298,-0.164234877,-4.86359358,0.698934793
89723.532448,5.08069291,-0.621186171,2.50551626,-0.111193761,-4.53000212,0.630732059
89723.542476,5.08959459,-0.36988779,3.6023254,-0.142086163,-4.04239988,0.571165621
89723.552503,5.18014171,-0.00439472783,5.10624762,-0.206552774,-3.33277798,0.469028383
89723.562531,5.23984068,0.323149566,6.94561116,-0.27313605,-2.43186593,0.293894917
89723.572559,4.89257681,0.739768712,9.04875249,-0.440001488,-1.38530242,0.0912163705
89723.582586,4.65527437,1.20086369,11.0933335,-0.591416001,-0.189052865,-0.086675331
89723.592614,4.94781296,1.32907228,12.1510247,-0.579314649,1.08468163,-0.230214119
89723.602642,5.26833437,1.10983186,12.1711533,-0.521429479,2.29213071,-0.355831146
89723.612670,5.36816779,1.0575588,11.596788,-0.621653855,3.35820436,-0.452236265
89723.622697,5.7482777,1.09128016,10.3522731,-0.718090355,4.2349081,-0.494301945
89723.632725,6.29830987,1.09528369,8.43252905,-0.610483706,4.91524506,-0.533994555
89723.642753,5.87757452,1.20176093,6.21630496,-0.411854535,5.397439,-0.655874908
89723.652781,4.94939351,1.42312419,4.2345548,-0.168506846,5.68272829,-0.877617955
89723.662808,4.49726875,1.53864428,2.54776374,0.00695125246,5.75264835,-1.14304471
89723.672836,4.13408046,1.49312741,1.18360656,0.185680524,5.66397572,-1.40841866
89723.682864,3.74147785,1.09203887,-0.45102995,0.5116027,5.39659977,-1.59438634
89723.692891,3.67697206,0.496498738,-2.30269359,0.83194077,4.94490671,-1.69452715
89723.702919,3.40331674,-0.091850893,-3.41049584,1.03587914,4.39452839,-1.71176147
89723.712947,2.80353533,-0.615772768,-3.78413334,1.16418445,3.89006162,-1.63386929
89723.722975,2.00029543,-0.93983901,-3.91190982,1.20344448,3.50633049,-1.50947499
89723.733002,0.76712061,-1.07917252,-3.66457932,1.09840858,3.26025534,-1.37900746
89723.743030,-0.493483628,-1.13529933,-3.35515097,0.868438065,3.06452751,-1.2142148
89723.753058,-1.59848032,-1.54941906,-3.2680046,0.561021924,2.84624696,-0.944644392
89723.763085,-2.01785958,-2.2013486,-3.54503232,0.292520165,2.58722472,-0.573680937
89723.773113,-2.13658051,-2.73333863,-4.23638903,0.00621914957,2.26134324,-0.144044355
89723.783141,-2.12798613,-3.04413535,-4.85116636,-0.267204404,1.85439909,0.268411398
89723.793169,-2.53029268,-2.99544175,-5.60761601,-0.443741083,1.36165464,0.606517792
89723.803196,-3.25768487,-2.64594004,-6.66304452,-0.449904442,0.765410721,0.841025114
89723.813224,-3.91051574,-2.22901753,-8.00284409,-0.366927803,0.0592360273,0.984994233
89723.823252,-4.04971846,-1.98275524,-8.99134075,-0.238999933,-0.726757348,1.08317757
89723.833280,-3.72021353,-1.6398633,-9.80270565,-0.120213091,-1.56105137,1.15068746
89723.843307,-3.23112478,-1.22903107,-10.152521,-0.0616909228,-2.33837628,1.17746711
89723.853335,-2.57112153,-1.03758817,-9.80342987,-0.0345349349,-3.0234139,1.19580245
89723.863363,-1.88923817,-0.824467687,-9.03409093,-0.00776896952,-3.60715795,1.21499705
89723.873391,-1.45617628,-0.63313263,-7.98760853,-0.0215279236,-4.0709548,1.23981667
89723.883418,-0.845018454,-0.48396279,-6.81617639,-0.040715199,-4.43569326,1.26530766
89723.893446,-0.112875049,-0.33805692,-5.75050414,-0.116728745,-4.71177626,1.26905072
89723.903474,0.425504755,-0.278939106,-4.62245113,-0.195278153,-4.91010523,1.25732589
89723.913501,0.790567463,-0.24480522,-3.88302743,-0.212019578,-5.05879402,1.22717786
89723.923529,1.23349901,-0.316788945,-3.37746392,-0.209952429,-5.1641283,1.19246089
89723.933557,2.25197872,-0.512506455,-2.69628725,-0.166214809,-5.22136259,1.17830729
89723.943585,3.99074517,-0.651531625,-1.84546537,-0.197324514,-5.17792034,1.15889573
89723.953612,5.37627978,-0.557117896,-0.414721203,-0.205034107,-5.04718447,1.10453296
89723.963640,5.74888794,-0.324327231,1.0337936,-0.145933241,-4.837358,1.00690508
89723.973668,5.54723782,0.0782403008,2.40982067,-0.0956093445,-4.51420212,0.870110571
89723.983696,5.29147384,0.57292366,3.76623353,-0.0432076529,-4.05711222,0.692715526
89723.993723,5.18057016,0.925029125,4.88297779,-0.0106920553,-3.46899128,0.492942721
89724.003751,5.01300235,1.26848498,5.90090337,-0.0222914517,-2.79297185,0.283937067
89724.013779,4.78740262,1.48152027,6.77567312,-0.049801372,-2.05805159,0.0938984156
89724.023807,4.75234241,1.5293061,7.36502608,-0.155158162,-1.28938842,-0.0567589961
89724.033834,4.99734301,1.5921083,7.91489108,-0.325262249,-0.492039531,-0.183221325
89724.043862,5.32536442,1.635003,8.31058844,-0.44126448,0.31351611,-0.316877395
89724.053890,5.35677487,1.59897147,8.36612152,-0.397494644,1.1082958,-0.457868606
89724.063918,5.21527615,1.51658018,8.03012373,-0.264354676,1.85251904,-0.611594796
89724.073945,5.06480619,1.44358275,7.50263773,-0.185013786,2.51548743,-0.776532292
89724.083973,5.03177953,1.45771357,6.98127752,-0.129780903,3.0721035,-0.907617927
89724.094001,5.35331976,1.41666333,6.37682285,-0.115117535,3.5589211,-1.00664175
89724.104029,5.67656738,1.40078391,5.98739683,-0.174302831,4.04777002,-1.08392286
89724.114056,5.8575488,1.46526325,5.70013238,-0.206008554,4.57249403,-1.17522109
89724.124084,5.60671526,1.47997932,5.06765573,-0.155771226,5.1063714,-1.30093348
89724.134112,4.89970184,1.42972812,4.1141053,-0.00451165717,5.59804344,-1.48732817
89724.144140,3.65445687,1.40825878,2.78066123,0.218328342,5.89590359,-1.74784517
89724.154167,1.88567814,1.21473863,1.13360422,0.405323535,5.94510269,-2.01525497
89724.164195,1.09710901,0.720544371,-0.318092136,0.617855787,5.76629066,-2.18559265
89724.174223,1.19531599,-0.0570347234,-1.92575296,0.796242833,5.41337585,-2.20141101
89724.184251,1.48906659,-1.06938952,-3.32478155,0.888873696,4.92998934,-2.02110243
89724.194278,2.20443663,-1.92448279,-4.56125578,0.872559428,4.36224747,-1.70788634
89724.204306,2.38139815,-2.25756616,-5.36356234,0.619717598,3.7990303,-1.34723043
89724.214334,1.34783909,-2.37274445,-5.42329171,0.27145043,3.32519674,-0.974332988
89724.224362,-0.754419241,-2.43916221,-5.76402939,-0.0823824927,2.87149858,-0.623947322
89724.234389,-2.92496624,-2.48795342,-6.43677375,-0.357429773,2.35112357,-0.291670054
89724.244417,-4.13775155,-2.47309283,-7.39582161,-0.482054263,1.7078774,0.0261486657
89724.254445,-4.51435286,-2.54183698,-8.47885066,-0.536978245,0.945034385,0.319978416
89724.264473,-4.3127799,-2.78796249,-9.11848303,-0.546989858,0.149627298,0.588504434
89724.274500,-3.64524159,-2.89106719,-9.24444516,-0.497389525,-0.583636045,0.845028877
89724.284528,-2.75394098,-2.74114667,-8.99451003,-0.573580682,-1.18339062,1.04002261
89724.294556,-2.24954711,-2.16885357,-7.95502552,-0.660765409,-1.64402151,1.13086176
89724.304584,-2.37579623,-1.50513861,-7.22925976,-0.695602238,-2.04253936,1.13966906
89724.314611,-2.59119957,-1.04196507,-6.74167908,-0.619641662,-2.40084624,1.10905921
89724.324639,-2.53570681,-0.868087779,-6.41057782,-0.49807024,-2.73933983,1.06667423
89724.334667,-2.15532495,-0.825682323,-6.1012541,-0.369664609,-3.08980918,1.02874362
89724.344695,-1.59698424,-0.786321204,-5.81466594,-0.209335119,-3.44242477,1.00406086
89724.354722,-1.05368722,-0.764164756,-5.57646859,-0.0644572824,-3.8020215,0.973951459
89724.364750,-0.895681012,-0.663904346,-5.29379965,0.0215263367,-4.15241003,0.954920769
89724.374778,-0.178138014,-0.581334053,-4.67626747,0.0339523777,-4.44132233,0.964330554
89724.384806,0.91565997,-0.57130205,-3.98282694,0.023491215,-4.66187191,1.00174022
89724.394834,2.0915729,-0.639804655,-3.30581732,0.0287890397,-4.79591656,1.06141186
89724.404861,3.46570656,-0.674504212,-2.31657072,0.0242273137,-4.83142757,1.10059547
89724.414889,4.37345503,-0.686874157,-1.1436048,0.00614631362,-4.72507191,1.0983237
89724.424917,4.76858627,-0.512365439,0.206420983,0.012088092,-4.50085211,1.04802537
89724.434945,4.8113572,-0.173957368,1.71807759,0.0447530933,-4.17131805,0.956138134
89724.444973,4.45503091,0.162312815,3.28930633,0.0169464983,-3.72227454,0.830307484
89724.455001,3.82977164,0.533440668,4.69649368,-0.0760747939,-3.16550589,0.676523268
89724.465029,3.31577699,0.918842545,5.62904166,-0.165361524,-2.52999234,0.517385781
89724.475056,3.13150354,1.03781993,6.08394757,-0.237127855,-1.87486255,0.379584491
89724.485084,3.25584479,0.99329456,6.15648323,-0.246917903,-1.26332402,0.271340847
89724.495112,3.54794792,0.878829976,5.90324029,-0.260859281,-0.721837878,0.184241638
89724.505140,3.77271587,0.7488326,5.56601968,-0.293012977,-0.266056448,0.109438226
89724.515168,4.05316012,0.649671677,5.10974949,-0.32562843,0.114948943,0.0503733121
89724.525195,4.41686016,0.620038901,4.74985001,-0.378195226,0.457236797,0.00166409556
89724.535223,4.57082966,0.661571227,4.70901999,-0.370370328,0.777342618,-0.0610810407
89724.545250,4.37619731,0.681471421,4.63407668,-0.243243277,1.09763861,-0.175196692
89724.555279,3.91250545,0.737279964,4.48124642,-0.0633307695,1.42219186,-0.33134371
89724.565307,3.55551631,0.827337836,4.39176606,0.0753352344,1.73144078,-0.504832923
89724.575334,3.3807238,0.962794354,4.43433795,0.16372928,2.03278685,-0.666828454
89724.585362,3.30697088,1.02086763,4.3308694,0.224735647,2.35249591,-0.790295005
89724.595389,3.49586614,0.926937151,4.10397378,0.231853202,2.69391942,-0.878120482
89724.605418,3.86177012,0.726247551,4.03470384,0.210063219,3.03527284,-0.940593719
89724.615446,3.8382551,0.580439443,3.95740725,0.214069143,3.40158987,-0.993270278
89724.625473,3.52134136,0.525429795,3.88553386,0.203999475,3.85672259,-1.0489558
89724.635501,3.0469545,0.628894554,3.85339334,0.192624316,4.34727383,-1.12872291
89724.645529,2.54807149,0.546311255,3.42379547,0.161372647,4.81009722,-1.19346702
89724.655557,2.4469476,0.25642873,2.78437353,0.161547616,5.18007898,-1.21306121
89724.665585,2.32142752,-0.0655541299,1.59849084,0.118319191,5.41174126,-1.19351518
89724.675612,2.14290927,-0.337624081,0.501770541,0.0527407154,5.50538921,-1.13707006
89724.685640,1.87752859,-0.571776244,-0.709813572,-0.0634197146,5.44162607,-1.03993011
89724.695668,0.903632555,-0.933085737,-1.98424665,-0.232318729,5.21520329,-0.881189764
89724.705696,0.0885306625,-1.1556762,-3.44393108,-0.363218427,4.80526114,-0.660319984
89724.715723,-0.473099743,-1.22942474,-5.21041527,-0.426839203,4.19080496,-0.406253636
89724.725751,-1.11383086,-1.2457104,-6.89381668,-0.451530159,3.40024114,-0.153108701
89724.735779,-1.36383088,-1.09221335,-8.20894417,-0.494368702,2.53251839,0.0585132651
89724.745807,-1.48232106,-0.865565859,-8.66412949,-0.507543623,1.70082986,0.196289778
89724.755834,-1.99416029,-0.608288696,-8.55727421,-0.468051881,0.977866888,0.257419169
89724.765862,-2.51162539,-0.326955242,-7.99620334,-0.385992169,0.390743256,0.251360476
89724.775890,-3.09778949,-0.158157156,-7.13993839,-0.294388473,-0.0751818493,0.197649315
89724.785918,-3.6282583,-0.0748930362,-6.58271659,-0.145017639,-0.480990857,0.139141798
89724.795946,-3.77279478,-0.139121617,-6.59105246,-0.0147163579,-0.902816176,0.0850175694
89724.805973,-3.70796838,-0.289375014,-6.84737817,0.104563959,-1.36896098,0.0645900667
89724.816001,-3.00955591,-0.584263677,-7.27654232,0.16375111,-1.87749076,0.0900498778
89724.826028,-2.14119691,-0.873699189,-7.48714907,0.171367228,-2.40638304,0.150609374
89724.836057,-1.92197271,-0.926366511,-7.44154993,0.15473339,-2.91748452,0.228499383
89724.846085,-1.89943661,-0.944873497,-7.1500249,0.137057722,-3.3838141,0.338042647
89724.856112,-1.46699446,-1.09495987,-6.68514646,0.141119048,-3.80899143,0.484646708
89724.866140,-0.590325315,-1.43516169,-6.14448592,0.138495564,-4.18559694,0.64308238
89724.876167,0.244371578,-1.67496852,-5.46504352,0.120588742,-4.49769688,0.784383297
89724.886196,0.841961258,-1.66798816,-4.74857575,0.0912252665,-4.74691439,0.903423131
89724.896224,1.30788804,-1.47242642,-4.1602837,0.0316144004,-4.95794058,1.0174427
89724.906251,2.00584415,-1.34695193,-3.46348801,-0.0576837882,-5.11526632,1.12373924
89724.916279,2.72962399,-1.24125956,-2.61159061,-0.19254306,-5.18447065,1.20710659
89724.926307,3.2253649,-1.15599199,-1.46351656,-0.314169645,-5.12677336,1.26346624
89724.936335,4.01665673,-1.20522057,-0.250206933,-0.38912937,-4.90995216,1.28423285
89724.946363,4.70697007,-1.17415615,1.17657359,-0.455258846,-4.55966043,1.25235319
89724.956390,4.76986492,-0.893270005,2.81272752,-0.448527992,-4.10214281,1.16789317
89724.966418,4.44961385,-0.550958058,4.18552978,-0.325794607,-3.53636146,1.04332089
89724.976446,4.21044298,-0.234352215,5.36451219,-0.226020336,-2.8926456,0.916665733
89724.986474,4.15188704,-0.00966156231,6.49076429,-0.194479972,-2.17077684,0.787530124
89724.996502,4.02656379,0.236504717,7.05364075,-0.164207578,-1.40629697,0.659104764
89725.006529,4.17878966,0.311545929,7.28029028,-0.199019879,-0.66426605,0.548347354
89725.016557,4.40751191,0.343830389,7.59054164,-0.334507138,0.0460970178,0.462089658
89725.026585,4.7590802,0.393889135,7.87198893,-0.438329399,0.716794968,0.389940619
89725.036613,5.07564498,0.603387114,7.87588301,-0.729947925,1.42561662,0.243883044
89725.046641,5.31548307,0.847680147,8.20513367,-1.07935357,2.13725281,0.0539120361
89725.056668,5.11533109,0.953172612,8.0717072,-1.44905627,2.81544209,-0.114103064
89725.066696,4.47522789,1.15262397,7.48959938,-1.68890488,3.43527436,-0.213093832
89725.076724,3.95362744,1.25792954,6.18635405,-1.76983643,3.9590044,-0.257965982
89725.086751,3.67302128,1.17265612,4.53078874,-1.65220094,4.28510046,-0.317912936
89725.096780,2.93040785,1.29085288,2.5721839,-1.26598585,4.37465,-0.37881729
89725.106806,1.98427295,1.80640294,0.322850729,-0.564868689,4.21100712,-0.459225863
89725.116835,1.29575906,1.63723865,-1.61028649,0.156932116,3.82798052,-0.578230798
89725.126863,1.05544516,0.973496073,-2.76830093,0.781179428,3.3527689,-0.657513082
89725.136891,0.979925521,1.36573174,-3.47878729,1.0068568,2.90656638,-0.799757063
89725.146919,1.26269339,0.846924068,-2.8418408,0.84052664,2.57237577,-0.905502379
89725.156947,1.83123665,0.436839658,-1.95983234,0.409746498,2.40221739,-0.94717288
89725.166974,1.71586971,0.315235578,-0.95681791,-0.0790423378,2.38534975,-0.903948128
89725.177002,1.09914446,0.1371113,-0.296268427,-0.463695496,2.43843865,-0.778115392
89725.187030,0.488869924,-0.166383571,-0.245706699,-0.703778386,2.45412588,-0.600049257
89725.197058,-0.106391679,-0.269939296,-0.687704616,-0.484067082,2.27154803,-0.410433799
89725.207086,-0.236361217,-0.179883251,-2.28045078,0.182273686,1.84734654,-0.287704706
89725.217113,0.028243915,-0.381350849,-2.42642811,0.34746182,1.5803231,-0.228597686
89725.227141,0.148379786,-0.183203116,-1.51577515,0.266011983,1.47810829,-0.295303226
89725.237169,0.409495066,0.245799857,-1.53401048,0.0385854878,1.39272702,-0.485364765
89725.247197,0.7459748,0.523923994,-1.68830731,-0.0451094061,1.24116099,-0.662243128
89725.257225,0.667855641,0.371690821,-2.41366098,0.0102414656,1.00971472,-0.742820799
89725.267252,0.567711479,-0.112581765,-2.64769185,0.109153397,0.792533934,-0.75673604
89725.277280,0.615652064,-0.460898652,-2.37272691,0.127282321,0.639846623,-0.741891086
89725.287308,0.717224287,-0.653869274,-1.73196174,0.0962639675,0.553619087,-0.689147949
89725.297335,0.622929289,-0.755142222,-1.30100603,0.0407975093,0.493552536,-0.600615203
89725.307364,0.336688554,-0.853566356,-1.25035896,-0.0489291809,0.416786402,-0.516379654
89725.317392,0.282334229,-0.663357453,-1.37202076,-0.0941914693,0.308069229,-0.462857336
89725.327419,0.433786042,-0.441136917,-1.6520085,-0.155467063,0.170910314,-0.442558467
89725.337447,0.559251036,-0.344564037,-1.64362528,-0.147328734,0.0290690325,-0.43908304
89725.347474,0.733222797,-0.265039614,-1.54326171,-0.0979585052,-0.0731345639,-0.449534357
89725.357503,0.702184466,-0.229583174,-1.09342594,-0.0763368383,-0.116216525,-0.480481863
89725.367531,0.527261906,0.0299619345,-0.551174331,-0.0724896342,-0.0892749205,-0.532375693
89725.377558,0.38125959,0.415212275,-0.186329796,-0.106434815,-0.0141748451,-0.606461883
89725.387586,0.197583669,0.752269078,0.0849076497,-0.142016232,0.0849634558,-0.685395598
89725.397614,-0.125304834,0.933208778,0.249666835,-0.27780658,0.200201899,-0.711349666
89725.407642,-0.121200249,0.903811565,0.224590846,-0.290093601,0.233817384,-0.83263272
89725.417670,-1.00601894,1.19075161,-0.522166264,-0.20182392,0.206550598,-1.00422633
89725.427698,-1.64064174,1.14011323,-0.834748696,-0.158058852,0.1634271,-1.11821067
89725.437725,-1.4930409,0.801150524,-0.810899034,-0.204784542,0.136981651,-1.14676642
89725.447753,-1.32850544,0.433041617,-0.671063863,-0.323677123,0.121508956,-1.09764063
89725.457781,-1.4589282,0.225703702,-0.409789592,-0.472352624,0.120588832,-1.02182949
89725.467809,-1.70728089,0.290931998,-0.345518488,-0.598646641,0.129546359,-0.962352097
89725.477837,-2.06962513,0.544391685,-0.488159949,-0.74415803,0.118514493,-0.938906133
89725.487865,-2.35770207,0.929893224,-0.588265752,-0.869098365,0.102888398,-0.949956656
89725.497892,-2.59413065,1.24348425,-0.759675627,-0.975207508,0.0933007523,-0.98294735
89725.507920,-2.84253492,1.37159917,-0.895501564,-1.01053464,0.0641495213,-1.03823698
89725.517948,-3.12246391,1.55427162,-1.20727093,-1.04501665,0.000838193577,-1.12585902
89725.527976,-3.30301103,1.66057306,-1.45688808,-1.06807196,-0.0945453122,-1.24050915
89725.538004,-3.3137563,1.57221366,-1.80501003,-1.04925215,-0.240326762,-1.35964191
89725.548031,-3.20042101,1.28588503,-2.11659351,-0.948732734,-0.42317462,-1.46630609
89725.558059,-3.00378317,0.723697209,-2.50642226,-0.689554155,-0.668532431,-1.54066098
89725.568087,-3.00122004,-0.131788643,-3.10215762,-0.311896622,-0.980279684,-1.59850991
89725.578115,-3.19212168,-1.21163723,-3.2551083,0.0712843165,-1.32228279,-1.5752269
89725.588143,-2.78674873,-2.43139581,-2.89667071,0.454127818,-1.63020039,-1.44867885
89725.598171,-2.39699743,-3.36672918,-2.44663678,0.774695158,-1.87038422,-1.23020005
89725.608199,-1.92469424,-4.02654217,-1.71638832,1.0007267,-1.99737179,-0.899462879
89725.618226,-1.02756508,-4.66494937,-0.839504366,1.11078501,-1.99895215,-0.470713139
89725.628254,-0.280675758,-4.90018524,-0.0662158087,1.09094501,-1.9184525,-0.0417220816
89725.638282,0.0932781128,-4.76972229,0.559978985,1.03384018,-1.80469823,0.327039152
89725.648310,0.334932869,-4.53198058,0.722600573,1.07704413,-1.6833638,0.633638799
89725.658338,0.535602303,-4.27854533,0.549461098,1.17911565,-1.57477629,0.923383296
89725.668365,0.973433821,-4.15458578,0.518451042,1.18593276,-1.46845126,1.22794235
89725.678393,1.25754828,-4.09653545,0.597337532,1.15592718,-1.36447763,1.55351245
89725.688421,1.81227709,-4.1958387,0.624153058,1.09057939,-1.26477826,1.89054143
89725.698449,2.64545313,-4.44418715,0.991342695,1.03893983,-1.13718402,2.22961974
89725.708477,3.2712639,-4.37152465,1.40260528,1.05084264,-0.96059835,2.52847576
89725.718505,3.52483651,-3.94522085,1.9567975,1.13646722,-0.721221983,2.76221514
89725.728533,3.40748848,-3.45294499,2.49811621,1.21983457,-0.408294201,2.91733003
89725.738560,3.34092254,-2.84968917,2.900995,1.29967451,-0.058715146,3.01806688
89725.748588,3.53457873,-2.12504482,2.80459448,1.38870299,0.285175115,3.08167195
89725.758616,3.63076152,-1.57623707,2.58290345,1.4353621,0.600294411,3.10795546
89725.768644,3.38234147,-1.11149592,2.4608658,1.42120659,0.872753382,3.11914062
89725.778672,3.22100846,-0.664929451,2.09409117,1.37149835,1.09543312,3.13879704
89725.788700,3.53805313,-0.517498491,1.85112646,1.16637397,1.27292585,3.1701405
89725.798727,3.65495575,-0.21400099,1.92745158,0.837032616,1.43812037,3.19069719
89725.808755,3.75550638,0.504079841,1.68176534,0.5949651,1.54163527,3.20679808
89725.818783,3.64314081,1.18089204,0.987027755,0.389085978,1.57550406,3.1764226
89725.828811,3.44025648,1.82373358,0.575648263,0.177653372,1.53410256,3.06567717
89725.838839,2.96863412,2.49690917,0.311921339,0.0701886863,1.44253778,2.87279677
89725.848867,2.11988831,3.14354703,-0.280879135,0.0666935593,1.3167913,2.60098696
89725.858894,1.56816044,3.77127795,-0.823970113,0.0812117755,1.13129866,2.24712372
89725.868922,1.03703806,4.50167254,-1.24895435,0.106409676,0.898077905,1.81580007
89725.878950,0.615350086,5.32325429,-1.73274032,0.133328632,0.60864532,1.30438769
89725.888978,0.434824738,6.28585254,-2.23877261,0.218324214,0.282392055,0.699122787
89725.899006,0.244189134,7.38824563,-2.79867736,0.258380324,-0.0600465089,-0.00184601266
89725.909034,0.163851788,8.14445095,-2.69715,0.217842728,-0.368865341,-0.723162889
89725.919062,0.150377462,8.49144711,-2.32568868,0.208597288,-0.588751853,-1.39920151
89725.929089,0.208084386,8.47075679,-2.12768014,0.229934007,-0.726622939,-2.04503012
89725.939117,0.385475235,8.12075326,-1.8857477,0.220217735,-0.829064846,-2.65233803
89725.949145,0.566805031,7.60869689,-1.63298932,0.223887563,-0.908109605,-3.16871905
89725.959173,0.695506376,6.99954617,-1.64516375,0.152933493,-0.960581899,-3.54610085
89725.969201,1.02316633,6.13538667,-1.35884038,-0.0724586025,-0.989940286,-3.80762792
89725.979229,1.2500667,5.26887213,-1.08478963,-0.309262872,-1.00920665,-3.97058415
89725.989256,1.53241824,4.41374759,-1.26660224,-0.543895662,-1.04427814,-4.04880762
89725.999284,1.84408794,3.46330272,-1.35281045,-0.773456693,-1.08844876,-4.06866646
89726.009312,1.99570269,2.65009482,-1.57842011,-0.942753017,-1.16933692,-4.05570745
89726.019340,1.92153797,2.03212235,-2.03407889,-1.11658335,-1.30936813,-4.04078197
89726.029368,1.93081828,1.52816351,-2.40830676,-1.20183563,-1.5026598,-4.01304579
89726.039396,2.35905699,1.00978889,-2.66279005,-1.26315916,-1.69908631,-3.97806144
89726.049424,2.66238966,0.293370294,-2.38549871,-1.31812656,-1.82961822,-3.90706825
89726.059451,2.70908009,-0.627418344,-1.74324009,-1.36443758,-1.84631193,-3.77249193
89726.069479,2.86023862,-1.51414638,-0.930409795,-1.31594038,-1.76545811,-3.61168146
89726.079507,2.6178561,-2.28378372,-0.179214411,-1.26781917,-1.59052098,-3.43757749
89726.089535,2.28767576,-3.16334596,0.669099869,-1.14663053,-1.38582349,-3.20803285
89726.099563,2.3507901,-4.0457367,1.00550508,-0.977481186,-1.18604112,-2.93796325
89726.109591,2.29236012,-4.99935084,1.25268828,-0.807594121,-1.00654852,-2.61119819
89726.119619,2.28930234,-6.18883886,1.57505151,-0.52903229,-0.833928049,-2.20134473
89726.129646,2.31743815,-7.47973675,1.77412155,-0.240565062,-0.622496784,-1.693663
89726.139674,2.45205822,-8.80128287,2.33120715,-0.0315780193,-0.377360016,-1.0921998
89726.149702,2.42770324,-9.93097079,3.10798004,0.149331838,-0.087208353,-0.43412739
89726.159730,2.05828131,-10.4299023,3.36620428,0.396212757,0.243436947,0.222469375
89726.169758,1.78495084,-10.2933194,3.21072087,0.639431238,0.577010691,0.834532022
89726.179786,1.65877522,-9.75407576,2.90190218,0.814010203,0.864459217,1.37175655
89726.189814,1.65501732,-8.82536342,2.13451144,0.935375512,1.00661635,1.81313288
89726.199841,1.928344,-7.84001207,1.07212479,1.00647032,1.00939882,2.18679929
89726.209869,2.37986188,-6.93363957,0.140662855,1.15483308,0.922234893,2.51378775
89726.219897,2.44799243,-6.02933569,-0.769467538,1.30869746,0.808241248,2.79298377
89726.229925,2.36215802,-5.34695373,-0.994982513,1.43004417,0.714334965,3.03441215
89726.239953,2.23210073,-4.72823322,-0.898951996,1.47266114,0.680288613,3.25939584
89726.249981,2.32937029,-4.29593778,-0.63049629,1.39818347,0.692654431,3.46381807
89726.260009,2.68994314,-3.80134225,-0.364829922,1.4660064,0.732859135,3.67334366
89726.270036,2.81285991,-3.29795726,-0.357475468,1.49695134,0.839145362,3.86248422
89726.280064,2.91412102,-2.90115545,0.34513095,1.44744229,1.02873182,4.02439976
89726.290092,2.94333952,-2.29608601,0.9883289,1.34988761,1.28478563,4.17094898
89726.300120,2.93050926,-1.57583185,1.28664198,1.1854248,1.58058596,4.30879068
89726.310148,3.16820918,-0.862860984,1.36075001,0.99433738,1.85463667,4.43003082
89726.320176,3.49332844,-0.0402525154,1.11242816,0.835112333,2.06544399,4.53342676
89726.330204,3.52689695,0.862733851,0.614223785,0.664510727,2.19386315,4.57961416
89726.340231,3.16531492,1.93889447,0.0931032311,0.476715565,2.23939991,4.52637243
89726.350259,2.85410728,3.09099472,-0.604543518,0.305843174,2.15248489,4.37585306
89726.360287,2.54859669,4.29606462,-1.41238375,0.105248541,1.92856193,4.07095289
89726.370315,1.94973823,5.64398379,-2.08828687,-0.150190964,1.562572,3.59331727
89726.380343,1.35334163,7.1894924,-2.79849324,-0.226540327,1.09263194,2.95621729
89726.390371,0.601363719,8.6076635,-3.61252005,-0.165863395,0.600182831,2.18217278
89726.400399,-0.188048364,9.57516823,-3.79996453,0.0116498768,0.138428509,1.3379302
89726.410427,-0.621788813,10.0509439,-3.78296079,0.263632327,-0.268520892,0.48392576
89726.420454,-0.681911639,10.0794218,-3.54241659,0.508271337,-0.60328871,-0.332802385
89726.430482,-0.600675371,9.91867947,-3.03030293,0.690101862,-0.848911285,-1.07050598
89726.440510,-0.388165497,9.50025882,-2.45822668,0.781628072,-1.03009677,-1.69645989
89726.450537,-0.0405273138,8.76323108,-1.83689453,0.840892434,-1.14027977,-2.18792319
89726.460565,0.171310433,8.01735952,-1.27548229,0.793378174,-1.17590082,-2.56670618
89726.470593,0.370265099,7.30448598,-0.646166153,0.623871148,-1.14452052,-2.84323978
89726.480621,0.668691727,6.59372373,-0.185810741,0.368262857,-1.07722652,-3.04568601
89726.490648,0.757085465,5.95789484,-0.0789022718,0.0500601158,-1.01213241,-3.1936028
89726.500676,0.882703311,5.3062073,-0.206019416,-0.236557543,-0.983512223,-3.2940855
89726.510704,1.10540557,4.67523842,-0.558576717,-0.4428204,-1.0038588,-3.36771941
89726.520732,1.23705626,4.02888551,-1.01339378,-0.571893752,-1.06368744,-3.42534471
89726.530760,1.2413883,3.32467868,-1.24978379,-0.631309152,-1.14268756,-3.47731423
89726.540788,1.06298068,2.60757845,-1.395788,-0.647616982,-1.23079073,-3.51512027
89726.550816,0.973507325,1.90844366,-1.53076755,-0.602083087,-1.33209264,-3.50845718
89726.560844,1.11443102,1.14876438,-1.63690504,-0.609887183,-1.43655694,-3.46020579
89726.570871,1.3225629,0.498031501,-1.44841543,-0.711724102,-1.51819265,-3.3769269
89726.580899,1.41654233,-0.0640581923,-1.12976508,-0.848172188,-1.56378472,-3.25189018
89726.590927,1.54567388,-0.703964554,-0.846185452,-1.05476391,-1.56126583,-3.08543658
89726.600955,1.76772235,-1.43136931,-0.544674448,-1.26612806,-1.53125119,-2.88355279
89726.610983,2.01672634,-2.13403038,-0.384135511,-1.41990888,-1.48795807,-2.64382792
89726.621011,2.10557279,-2.76418707,-0.263763165,-1.50218666,-1.409271,-2.38683844
89726.631039,2.08409921,-3.50991454,0.0381207641,-1.51142788,-1.2966882,-2.11804581
89726.641067,2.11210131,-4.25409712,0.468095651,-1.46514881,-1.13884354,-1.836658
89726.651094,2.21035447,-5.09454198,1.07394499,-1.30359745,-0.952730358,-1.53530455
89726.661122,2.21173351,-6.2311939,1.74643041,-1.03271294,-0.726663411,-1.20656121
89726.671150,1.98330104,-7.15058136,2.36100199,-0.67235589,-0.449243009,-0.877087235
89726.681178,1.70736433,-7.65762195,2.72609027,-0.29475823,-0.139172211,-0.544847488
89726.691206,1.57768128,-7.97729464,2.98643339,0.0484337248,0.169122234,-0.2077097
89726.701234,1.60058109,-8.17010152,3.16224881,0.384939313,0.475686669,0.161640376
89726.711262,1.64231347,-8.25345785,3.07197408,0.654482901,0.793105423,0.56165278
89726.721290,1.74314759,-8.22358995,2.88079743,0.788471818,1.08144879,0.982223988
89726.731317,1.99504262,-8.19617587,2.65929753,0.855866611,1.29603481,1.42840624
89726.741345,2.29521317,-8.10590641,2.21826583,0.928336024,1.45063007,1.9009248
89726.751373,2.48383283,-7.90225255,1.76943602,0.973990023,1.5705452,2.37996817
89726.761401,2.35577534,-7.60121735,1.48386142,0.907647491,1.68155324,2.84680605
89726.771429,2.46695184,-7.14264239,1.33125211,0.738960743,1.76963913,3.28958011
89726.781457,2.95768252,-6.53612143,0.989534184,0.46756202,1.80281794,3.71915078
89726.791485,3.57897434,-5.71810234,0.552934327,0.245635733,1.75996208,4.12209749
89726.801513,3.96985231,-4.68592377,0.0713128396,0.0431143269,1.68637228,4.46954441
89726.811540,3.92495694,-3.5497611,-0.0875514422,-0.119193889,1.61409032,4.75150728
89726.821568,3.7015024,-2.42177195,-0.1754875,-0.239786357,1.55688059,4.96223164
89726.831596,3.42965647,-1.32959674,-0.21294717,-0.335020989,1.52213323,5.09088564
89726.841624,3.18187238,-0.203860046,-0.28032267,-0.326405376,1.50526559,5.1288662
89726.851652,2.93907192,0.860589532,-0.570527851,-0.162299559,1.48673296,5.0649538
89726.861680,2.60586727,1.92950486,-1.01589671,0.014188935,1.43961573,4.87133265
89726.871708,2.29575283,3.09041896,-1.32436586,0.215964198,1.33115053,4.54733038
89726.881736,2.11492967,4.46190284,-1.87120713,0.425594628,1.14437807,4.08686161
89726.891763,1.8605925,5.82491494,-2.40978209,0.650230944,0.884349942,3.48448634
89726.901791,1.4042003,7.54385587,-3.04791808,0.908182085,0.541952431,2.72157216
89726.911819,0.674075246,9.33892552,-3.70758026,1.12872803,0.134826958,1.83685505
89726.921847,0.0756098061,10.8054857,-3.86991193,1.21408498,-0.27710706,0.914553702
89726.931875,-0.191760005,11.6632856,-3.64832786,1.16529596,-0.633002579,0.0298020467
89726.941903,-0.14622553,11.8480798,-3.24509777,0.998558044,-0.909971595,-0.74758023
89726.951931,-0.0849039234,11.5360562,-2.60225872,0.743842423,-1.10415387,-1.39891839
89726.961959,-0.117314639,10.9421446,-2.02393335,0.489035398,-1.21981311,-1.91951096
89726.971987,0.263936402,10.0703348,-1.64501645,0.247013196,-1.27217674,-2.32779169
89726.982014,0.775417387,9.1060783,-1.17405079,-0.0534422509,-1.26299846,-2.68056822
89726.992042,0.918606253,8.47305863,-0.779299781,-0.371344328,-1.2083472,-3.01289582
89727.002070,1.00929913,7.87271257,-0.664589698,-0.643253326,-1.16248298,-3.32440948
89727.012098,1.22703084,7.08442167,-0.823861392,-0.837633729,-1.15278375,-3.59683418
89727.022126,1.45873254,6.04544219,-1.03213005,-0.975011528,-1.18377686,-3.8122766
89727.032154,1.71809673,5.09934558,-1.22316232,-1.0636884,-1.24275196,-3.99405646
89727.042182,1.91002231,4.37324548,-1.45308752,-1.12773585,-1.30693924,-4.15307856
89727.052210,2.01549022,3.7362648,-1.63439335,-1.16964042,-1.38444018,-4.28980541
89727.062238,1.99387022,3.08622648,-1.90921625,-1.19863105,-1.49461544,-4.38368845
89727.072265,2.14908504,2.27095259,-2.04538998,-1.23033917,-1.619192,-4.40744019
89727.082293,2.57642285,1.12490083,-1.9700831,-1.29901838,-1.73148763,-4.32602358
89727.092321,3.01324307,-0.241101543,-1.49953596,-1.40552461,-1.79069042,-4.12422752
89727.102349,3.14452289,-1.56527232,-0.78073069,-1.54697549,-1.75267863,-3.82716608
89727.112377,3.13591318,-2.86097629,-0.141443191,-1.70181668,-1.6206516,-3.43424916
89727.122405,3.37444136,-4.25954311,0.517545618,-1.8209902,-1.42532074,-2.96318555
89727.132433,3.28250542,-5.53292346,1.18144675,-1.80707359,-1.18764102,-2.47562218
89727.142461,2.87518251,-6.54289429,1.63563604,-1.71417618,-0.91929853,-2.01272678
89727.152489,2.40602069,-7.25010148,2.11788764,-1.53094566,-0.630832911,-1.58283949
89727.162516,2.06515836,-7.94781194,2.36040636,-1.25524485,-0.346955657,-1.16447556
89727.172544,2.08779251,-8.77545811,2.4926217,-0.890606642,-0.0775686577,-0.747255862
89727.182572,1.98668001,-9.35411958,2.50781401,-0.481562167,0.185136467,-0.363184899
89727.192600,1.59845226,-9.55411492,2.40898247,-0.0461095013,0.424847603,-0.00307733845
89727.202628,1.2958485,-9.36438028,2.06751764,0.398738801,0.626359403,0.339530885
89727.212656,1.25095678,-9.06398805,1.53606274,0.737665772,0.775580883,0.693962216
89727.222684,1.43228336,-8.81349879,1.10069563,0.925147474,0.862400711,1.05939209
89727.232712,1.74672428,-8.42026695,0.633211394,1.07807016,0.876051009,1.44329953
89727.242740,1.9730532,-7.94885356,-0.0710100572,1.19560885,0.839803278,1.83548617
89727.252767,1.99384479,-7.37695383,-0.566356703,1.29188442,0.793748677,2.21573997
89727.262795,1.85115496,-6.70314681,-0.84917119,1.36322546,0.759136677,2.57824874
89727.272823,1.87386612,-6.02131488,-0.887892842,1.41646588,0.742626369,2.92809772
89727.282851,2.05372453,-5.40664336,-0.781121736,1.3657968,0.769539237,3.25509882
89727.292879,2.41684253,-4.91008207,-0.423259899,1.20409787,0.817534208,3.55462718
89727.302907,2.6902015,-4.16022291,-0.196812027,1.12289762,0.879603922,3.83818889
89727.312935,2.74737037,-3.28654154,-0.258074013,1.04403281,0.968294144,4.07986212
89727.322963,2.95117796,-2.51543384,-0.00589314969,0.998087466,1.08856905,4.28037357
89727.332991,3.20416429,-1.69761392,0.148339965,0.983243823,1.2379812,4.43844652
89727.343018,3.44440396,-0.827228822,0.122682961,0.965996921,1.38600981,4.54268456
89727.353046,3.5399917,0.193940856,0.0917114845,0.896260977,1.51924348,4.55558872
89727.363074,3.33814986,1.28568965,0.0943558615,0.73776722,1.59505785,4.45813131
89727.373102,3.15996684,2.5223762,-0.143848499,0.636050463,1.58552849,4.25903559
89727.383130,2.91606456,3.88224943,-0.832298965,0.56714195,1.50144458,3.93235397
89727.393158,2.50118495,5.02831507,-1.24719377,0.57087487,1.33966255,3.48638678
89727.403186,1.81612734,6.22798721,-1.55826697,0.64682132,1.12030149,2.9410305
89727.413214,0.999743444,7.27220868,-1.84197051,0.752966404,0.89869827,2.30896139
89727.423242,0.500466546,8.27023012,-2.12960672,0.835210145,0.646209538,1.60971701
89727.433270,0.0591658171,9.52088835,-2.54179694,0.807043493,0.336202145,0.837338269
89727.443297,-0.420610188,10.6925409,-2.83982361,0.660687327,-0.0176400766,0.0299559794
89727.453325,-0.625303909,11.5149795,-3.02049173,0.515409768,-0.378994286,-0.758665144
89727.463353,-0.600082739,11.9313789,-3.11442206,0.342758864,-0.693763673,-1.51278853
89727.473381,-0.322906185,11.9918196,-2.8446617,0.130442366,-0.917385817,-2.21640348
89727.483409,0.0790373694,11.4408925,-2.46675018,-0.0899051875,-1.07180929,-2.81571317
89727.493437,0.523087689,10.1402717,-2.02828044,-0.246244192,-1.16862953,-3.2591536
89727.503465,1.00781116,8.55493963,-1.75143859,-0.347866714,-1.22187865,-3.54716468
89727.513493,1.1671546,6.92596305,-1.42517601,-0.514050841,-1.2408638,-3.71808267
89727.523521,1.12205246,5.49372017,-0.958194459,-0.781769931,-1.23826134,-3.80021191
89727.533549,1.10876408,4.50563063,-0.861963451,-1.00556684,-1.25445044,-3.81992483
89727.543576,1.14719727,3.71436276,-1.17926181,-1.22649813,-1.29475212,-3.81069708
89727.553604,1.33755165,3.0540351,-1.38659757,-1.43570113,-1.34880626,-3.7998395
89727.563632,1.39501673,2.56379835,-1.66530345,-1.6368885,-1.42058003,-3.78870821
89727.573660,1.41770056,1.87578423,-1.81416539,-1.81050062,-1.50043356,-3.75470829
89727.583688,1.54480426,0.984693613,-1.84043439,-1.91577828,-1.56022775,-3.68420005
89727.593716,1.70878749,-0.0672759853,-1.80256555,-1.91833937,-1.59091711,-3.57476354
89727.603744,2.02763834,-1.09819227,-1.73085699,-1.82170713,-1.58211493,-3.4456296
89727.613772,2.42208379,-2.15785316,-1.3621172,-1.66460431,-1.5319196,-3.29559207
89727.623800,2.56871242,-3.30156726,-0.581302928,-1.52144396,-1.41465533,-3.12697458
89727.633828,2.50060919,-4.52628442,0.369262351,-1.32324755,-1.25626671,-2.89675903
89727.643855,2.5005411,-5.90083908,1.13398065,-1.03688478,-1.0676595,-2.56485629
89727.653883,2.440658,-7.39643536,1.78927119,-0.699846804,-0.8382532,-2.13408184
89727.663911,2.28558873,-8.60176918,2.39874164,-0.380402803,-0.576515615,-1.63314104
89727.673939,2.13275262,-9.39186508,2.90733005,-0.119831666,-0.279241055,-1.11652315
89727.683967,2.03883106,-9.69803005,3.18890476,0.141294748,0.0337227136,-0.611701488
89727.693995,2.14469586,-9.73572353,3.25093481,0.43802014,0.338489801,-0.120395437
89727.704023,2.2696022,-9.63150386,3.28348625,0.737454534,0.663170993,0.369070411
89727.714051,2.10038063,-9.20067674,3.01355112,1.03803647,0.983307183,0.83681041
89727.724079,2.02397748,-8.52480986,2.46090438,1.2259047,1.24538982,1.25649023
89727.734107,1.96676433,-7.81353615,1.97404499,1.27807355,1.42559457,1.64492428
89727.744134,1.77451333,-6.8830568,1.18246382,1.27207828,1.51291215,1.9997611
89727.754162,1.72183329,-5.75604015,-0.00577975245,1.2993232,1.49903727,2.33708048
89727.764190,1.84252347,-4.74236638,-1.1969208,1.31327474,1.40098393,2.65815902
89727.774218,1.9615916,-4.21094596,-1.61221834,1.26663744,1.26929843,2.97803903
89727.784246,2.15500142,-3.96835769,-1.54044314,1.24463069,1.16262472,3.30756044
89727.794274,2.26479611,-3.58990957,-1.36255618,1.1508379,1.12402725,3.60579729
89727.804302,2.33978019,-3.09439108,-0.75461776,0.963498354,1.15129375,3.8517065
89727.814330,2.40150175,-2.51327403,-0.217835526,0.701696038,1.21079993,4.03743458
89727.824358,2.55265327,-1.82658429,0.00327624519,0.5042274,1.26246822,4.15577745
89727.834386,2.76224938,-1.1277704,-0.0366582903,0.362828195,1.29861927,4.20563793
89727.844414,2.75906724,-0.269626942,-0.0480716647,0.242577434,1.31725204,4.17364979
89727.854441,2.66986335,0.801173905,-0.193867791,0.136287212,1.30303478,4.04771757
89727.864469,2.42093068,1.98528534,-0.434756276,0.100183256,1.23911548,3.84102821
89727.874497,1.6988173,3.13377324,-0.694428372,0.126701504,1.14191103,3.55153584
89727.884525,1.05752022,4.11178358,-1.07439566,0.218348071,1.00318801,3.19824195
89727.894553,0.779822636,4.98837118,-1.52027305,0.35515517,0.821689725,2.76359606
89727.904581,0.384456267,5.87847469,-1.82045192,0.45624131,0.605320096,2.24856853
89727.914609,0.0795805364,6.61825027,-1.98385853,0.508814275,0.352032155,1.66430116
89727.924637,0.0112391869,7.45931764,-2.25480897,0.501993418,0.0467473678,1.01398087
89727.934665,-0.133467171,8.56458015,-2.50901813,0.434918195,-0.275512964,0.327405512
89727.944693,-0.270674771,9.37358884,-2.61826527,0.345606953,-0.582912028,-0.340947002
89727.954720,-0.219860383,9.77883027,-2.39770762,0.248389319,-0.821914494,-0.974267423
89727.964748,0.0174584267,9.82962288,-1.94976512,0.15064998,-0.963782132,-1.56522453
89727.974776,0.341684755,9.47534533,-1.28418173,0.032956101,-0.996778727,-2.09014535
89727.984804,0.57337418,8.86766235,-0.530535448,-0.106275827,-0.948234379,-2.5380075
89727.994832,0.728327426,8.08359404,-0.0590437251,-0.251346469,-0.855760336,-2.88721585
89728.004860,0.903071268,7.13157213,0.195254277,-0.45796755,-0.761466324,-3.13731909
89728.014888,1.04879374,6.14845833,0.310400413,-0.701891243,-0.6843279,-3.31955791
89728.024916,1.09238622,5.18300236,0.0981634371,-0.919020116,-0.647323549,-3.43097663
89728.034944,0.999319519,4.19435022,-0.286716755,-1.08378696,-0.643236339,-3.45537996
89728.044972,0.98422088,3.17835356,-0.793417738,-1.20196819,-0.676006019,-3.41755104
89728.055000,1.05179015,2.29940887,-1.34799282,-1.29502594,-0.768770039,-3.35757136
89728.065027,1.09350002,1.56959603,-1.87740774,-1.3877027,-0.924152732,-3.30489421
89728.075055,1.14411743,1.0377476,-2.30777367,-1.40848494,-1.12516022,-3.26343751
89728.085083,1.22684773,0.43268736,-2.63362767,-1.44450998,-1.33473074,-3.20941114
89728.095111,1.41389927,-0.279468683,-2.42392168,-1.53367794,-1.50002837,-3.13088608
89728.105139,1.64090813,-0.990228743,-1.90042855,-1.55565763,-1.57665706,-3.02705288
89728.115167,1.98188386,-1.84742264,-1.52015439,-1.48990309,-1.5559566,-2.88333607
89728.125195,2.45405846,-3.05076149,-0.775347244,-1.37688649,-1.45631492,-2.69168711
89728.135223,2.57268776,-4.27646444,0.261323955,-1.19500089,-1.28467667,-2.44353223
89728.145251,2.25449552,-5.71598403,1.18914607,-0.931498051,-1.04539776,-2.12014318
89728.155279,2.02703643,-7.29496645,2.01322081,-0.620813429,-0.771867335,-1.69551122
89728.165307,1.88492615,-8.60546921,2.69969969,-0.288540184,-0.469045162,-1.2064203
89728.175335,1.71087204,-9.42357364,3.0586236,0.00731811672,-0.140479773,-0.68377465
89728.185362,1.55343253,-9.71673241,3.17821444,0.283576876,0.177078217,-0.152554691
89728.195390,1.45381335,-9.64428034,2.90051394,0.491737247,0.46041137,0.357665151
89728.205418,1.63447196,-9.31555341,2.46847218,0.598102093,0.660076559,0.825548232
89728.215446,1.89634245,-8.79282075,1.83326406,0.662643254,0.755154073,1.23853123
89728.225474,2.16785053,-8.15228062,1.07825292,0.717352569,0.774175167,1.60234964
89728.235502,2.41089882,-7.5290815,0.501915503,0.804071486,0.765509546,1.9184351
89728.245530,2.40214297,-6.88630265,0.113288526,0.918994606,0.761540115,2.18815041
89728.255558,2.19805657,-6.28947891,0.0443576126,1.04210556,0.779895365,2.42711115
89728.265586,2.01137825,-5.80999035,0.12165128,1.21842253,0.836635351,2.66908789
89728.275614,2.1199529,-5.57475711,0.0974035587,1.42411816,0.929378867,2.95037389
89728.285642,2.52147663,-5.3489528,0.230778594,1.51195109,1.07104969,3.25169897
89728.295670,2.95874401,-4.91301988,0.649511371,1.50507402,1.24779248,3.55385423
89728.305697,3.19672596,-4.3352235,0.960098247,1.37767613,1.45890498,3.84711218
89728.315725,3.40446474,-3.64007207,1.24418641,1.19222295,1.68171358,4.1359663
89728.325753,3.61432973,-2.67226574,1.15571785,1.06973588,1.89814544,4.39684296
89728.335781,3.8270618,-1.61117482,0.833270441,0.87159729,2.08246899,4.59330511
89728.345809,3.98832963,-0.522184968,0.723939713,0.601957023,2.20980525,4.70543242
89728.355837,4.10112687,0.978091146,0.127187287,0.419189304,2.23856878,4.70940018
89728.365865,3.85123558,2.64841666,-0.861221693,0.2796202,2.13308191,4.58372402
89728.375893,3.03738471,4.3482221,-1.70493053,0.139094785,1.89342499,4.28633738
89728.385921,1.79940417,6.19539719,-2.48165724,0.0383055918,1.53181541,3.80560136
89728.395949,0.758175744,7.83949068,-3.26872707,0.0239674002,1.07218683,3.18853879
89728.405977,0.312851021,9.16285408,-4.00620256,0.0994978398,0.554456949,2.43406701
89728.416004,-0.112501321,10.4454307,-4.45565956,0.135059834,0.0305159353,1.53071404
89728.426032,-0.351843526,11.5696662,-4.32699226,0.185267612,-0.441362917,0.55035311
89728.436060,-0.379677143,12.315958,-4.08344771,0.244557291,-0.827960968,-0.400246263
89728.446088,-0.44006505,12.4046885,-3.51247387,0.263579994,-1.09863675,-1.24884522
89728.456117,-0.155755867,11.8104039,-2.62734932,0.285318851,-1.24287701,-1.98415124
89728.466145,0.383049104,11.0148567,-1.85910051,0.257714897,-1.27880728,-2.6127243
89728.476173,0.687829412,10.1964279,-1.21397422,0.116715714,-1.24097228,-3.1238451
89728.486201,0.952084744,9.15493673,-0.701449064,-0.139402613,-1.18502402,-3.48811769
89728.496229,1.19082109,7.89751383,-0.468736871,-0.42109102,-1.13651276,-3.70612955
89728.506257,1.37987279,6.52879796,-0.517895747,-0.659273744,-1.10782671,-3.8043406
89728.516285,1.49908369,5.09003474,-0.613830986,-0.932754278,-1.09120917,-3.80737448
89728.526313,1.44122158,3.67114584,-0.684891897,-1.16011882,-1.09077239,-3.72270465
89728.536341,1.4545022,2.44334636,-1.09583417,-1.31731772,-1.12426805,-3.58484125
89728.546368,1.5222537,1.20091279,-1.39866736,-1.50953245,-1.20090079,-3.41099238
89728.556396,1.50542677,0.103711865,-1.56144268,-1.61844993,-1.31796777,-3.21217775
89728.566424,1.47608568,-0.823162742,-1.98409467,-1.69381034,-1.46142662,-2.99717832
89728.576452,1.69208697,-1.72999497,-2.01836402,-1.76775312,-1.60261095,-2.76600814
89728.586480,1.9409571,-2.71087224,-1.67837219,-1.74213481,-1.67531574,-2.51167369
89728.596508,2.25489811,-3.85582699,-1.05002752,-1.63788319,-1.6376307,-2.23126578
89728.606536,2.3673515,-4.94260662,-0.037170916,-1.47623229,-1.47767138,-1.93845379
89728.616564,2.14249251,-5.78942161,0.990502153,-1.25671089,-1.22268438,-1.64199996
89728.626592,1.85533721,-6.50474897,1.87628955,-0.971201003,-0.907049894,-1.35180974
89728.636620,1.62064276,-7.23846365,2.57545781,-0.626709402,-0.564702153,-1.05981433
89728.646648,1.44942578,-7.8512536,3.04993001,-0.285492986,-0.224115014,-0.754960358
89728.656676,1.21229475,-8.19969645,3.35962373,0.0284241997,0.133702785,-0.427590013
89728.666703,0.9605343,-8.25544172,3.24279183,0.288941264,0.466852486,-0.071789287
89728.676731,1.03262835,-8.25929255,2.87224763,0.464810848,0.72316128,0.316944331
89728.686759,1.34302526,-8.26033826,2.42116215,0.57529825,0.893961489,0.717705607
89728.696787,1.61217377,-8.07648742,1.86569743,0.672904134,0.996911049,1.11704016
89728.706815,1.81695619,-7.80518158,1.29304776,0.847754002,1.06088996,1.52858508
89728.716843,1.96301944,-7.54013247,0.843785989,1.04376125,1.13638103,1.93889678
89728.726871,1.87541116,-7.14726479,0.867542128,1.20518959,1.26134503,2.3229804
89728.736899,1.86987004,-6.61978171,1.09022743,1.31944311,1.44676769,2.68418288
89728.746927,2.0299811,-6.05352262,1.30331664,1.39656985,1.67409158,3.0355258
89728.756955,2.3301743,-5.46125816,1.32413205,1.41880941,1.89302266,3.37408805
89728.766983,2.73665082,-4.75217991,1.20792442,1.48423898,2.07590032,3.68859768
89728.777011,3.00622881,-3.84603245,0.832968827,1.53076947,2.21955538,3.95910263
89728.787039,2.97649857,-2.99019012,0.579306785,1.50200045,2.31275129,4.16799498
89728.797066,3.00933788,-1.97021374,0.128685417,1.41779029,2.32282305,4.31236458
89728.807094,2.91052738,-0.566176816,-0.539987751,1.2181586,2.23590374,4.38329029
89728.817122,2.55556653,1.21366034,-1.48003514,1.11313796,1.98770177,4.35798454
89728.827150,1.70563736,3.24110111,-2.85243,0.967406869,1.61012912,4.19134331
89728.837178,0.779170236,4.90385341,-3.66092898,0.643605113,1.16005886,3.85403609
89728.847206,0.453450857,6.19275866,-4.09874406,0.311549127,0.697761357,3.36468387
89728.857234,0.784558724,7.19893243,-4.77294096,0.12239863,0.234817937,2.72480536
89728.867262,1.00163788,8.13339413,-5.210818,0.019291155,-0.215218991,1.96645701
89728.877290,0.596488185,9.02502031,-5.0791825,-0.0344350748,-0.626722097,1.17733395
89728.887318,0.00747333156,9.5685228,-4.88536381,-0.0784917474,-0.977543235,0.461211979
89728.897346,-0.199293834,9.63658686,-4.49537899,-0.17101635,-1.27358174,-0.163310722
89728.907374,-0.241157438,9.28603213,-3.91523868,-0.276309758,-1.53909338,-0.68444711
89728.917402,-0.0194347683,8.70311184,-3.46631827,-0.259136617,-1.76917577,-1.12685096
89728.927430,0.513421232,8.11239927,-3.04990487,-0.325904459,-1.91600037,-1.51099992
89728.937457,0.734496763,7.16704618,-2.07746795,-0.467830718,-1.96555257,-1.81265771
89728.947485,0.825021083,6.13603023,-1.09382107,-0.557773411,-1.91418147,-2.0265646
89728.957513,0.968329484,5.12946249,-0.367140537,-0.570592821,-1.7735312,-2.1650064
89728.967541,0.936255014,4.18366165,0.21749475,-0.61806792,-1.59785759,-2.24427295
89728.977569,0.717289023,3.26063437,0.747871792,-0.665737152,-1.39646697,-2.26765871
89728.987597,0.601575024,2.29626911,0.923202056,-0.714787006,-1.19760716,-2.24599099
89728.997625,0.52568567,1.32985452,0.953954337,-0.799289644,-1.00758255,-2.19231963
89729.007653,0.528400774,0.451646036,1.0645225,-0.87129432,-0.826870918,-2.12205791
89729.017681,0.560247572,-0.221608761,0.909542364,-0.913065493,-0.679718792,-2.03936934
89729.027709,0.931545667,-1.06160515,0.711049836,-0.966399252,-0.606004834,-1.95569003
89729.037737,1.16750707,-1.71100444,0.592142886,-0.945371747,-0.583660662,-1.86811304
89729.047765,1.46638144,-2.11138878,0.377649656,-0.815354884,-0.574140131,-1.76925814
89729.057792,1.51999335,-2.3904182,0.317633871,-0.708206832,-0.56231755,-1.66679347
89729.067820,1.34533792,-2.57321295,0.705006464,-0.684470356,-0.533084571,-1.55785978
89729.077848,1.16236781,-2.78374575,1.20342536,-0.695785582,-0.486340493,-1.42137313
89729.087876,0.965413304,-2.88193023,1.43084763,-0.708317399,-0.410186857,-1.26280391
89729.097904,0.695993283,-2.58932997,1.65262517,-0.601182401,-0.283478439,-1.10063791
89729.107932,0.475962,-2.63858734,1.44477152,-0.495244503,-0.179071352,-0.923051417
89729.117960,0.168875096,-2.42613482,1.34866911,-0.44283855,-0.0805551708,-0.761526704
89729.127988,0.216052881,-2.42419845,1.3516829,-0.401480436,0.00969190244,-0.623202145
89729.138016,0.478520745,-2.58333482,1.14809978,-0.396441221,0.07727281,-0.512243152
89729.148044,0.806642692,-2.7017952,1.05532738,-0.376230747,0.119203217,-0.409755945
89729.158072,1.00409039,-2.78116158,0.790245538,-0.330627322,0.129733622,-0.30049628
89729.168100,0.987066041,-2.76396144,0.542308303,-0.260867149,0.13747783,-0.188794509
89729.178128,0.861239959,-2.70380595,0.420469976,-0.230586737,0.145320043,-0.0741121396
89729.188156,0.654859747,-2.57627643,0.483392004,-0.218672812,0.162893176,0.0428176746
89729.198184,0.384643607,-2.38847393,0.512346296,-0.214633062,0.201482922,0.162611723
89729.208211,0.188114342,-2.1285049,0.591917261,-0.213313207,0.259250343,0.276058644
89729.218239,-0.0628635757,-1.75880065,0.629545273,-0.204297081,0.326385438,0.376996428
89729.228267,-0.248285463,-1.42929689,0.564686139,-0.181757152,0.406899989,0.463832259
89729.238295,-0.279978386,-1.19691503,0.479828174,-0.213789374,0.474078476,0.535405278
89729.248323,-0.283577434,-1.02085484,0.429181106,-0.275675118,0.523210585,0.600540638
89729.258351,-0.203471193,-0.889562748,0.198818691,-0.319640189,0.543586671,0.667447746
89729.268379,-0.0943051542,-0.779705439,-0.133707044,-0.37076062,0.538908601,0.723124862
89729.278407,-0.0255478444,-0.697056674,-0.345493353,-0.418756366,0.507614315,0.756460428
89729.288435,0.0536763529,-0.605575272,-0.513323616,-0.458015084,0.461727828,0.769565046
89729.298463,0.117205991,-0.508157831,-0.640467649,-0.489876091,0.394685119,0.764742076
89729.308491,0.127751643,-0.386780911,-0.711750678,-0.485796392,0.31746012,0.740835965
89729.318519,0.0699402361,-0.209891472,-0.850643016,-0.464728117,0.232497826,0.700197935
89729.328547,0.0187462015,-0.0193032874,-0.784983672,-0.432297498,0.162360013,0.646822631
89729.338575,0.00667962389,0.176103805,-0.691909667,-0.382790118,0.101385072,0.580786347
89729.348602,-0.0190302792,0.287793481,-0.611785744,-0.342793971,0.0425627679,0.515542388
89729.358630,0.00971007763,0.396813389,-0.432233479,-0.277592868,-0.00132479565,0.449994743
89729.368658,0.00925970352,0.488547816,-0.368459218,-0.206939995,-0.0339405276,0.384767801
89729.378686,-0.00287643222,0.650341685,-0.235349556,-0.140073076,-0.0449396484,0.317519009
89729.388714,-0.0154391228,0.761769239,-0.0768459238,-0.105634958,-0.0324824452,0.245162532
89729.398742,0.0547078879,0.782548407,0.101049806,-0.0949064121,-0.00851879269,0.182049334
89729.408770,0.143266754,0.751235351,0.25093817,-0.118629053,0.0148733482,0.138507456
89729.418798,0.174353235,0.717901967,0.393027258,-0.10768266,0.0400229134,0.112554677
89729.428826,0.0977902199,0.722707248,0.275779181,-0.0692963898,0.0576077662,0.0943008438
89729.438854,0.0208991418,0.685182185,0.24119419,-0.0609681457,0.0585164353,0.0803983435
89729.448881,0.0189756264,0.632081879,0.274978971,-0.0351011306,0.0615652204,0.0692109317
89729.458909,-0.0239395324,0.597741437,0.15005846,-0.00337888743,0.0569054894,0.0558178946
89729.468937,-0.116043085,0.504851227,0.00244797767,-0.0413529016,0.0336161442,0.0463463664
89729.478965,0.0572454435,0.302768603,0.202561969,-0.0956694037,0.0240279641,0.0552876592
89729.488992,0.32585181,0.19449248,0.184800687,-0.0974697024,0.0223379228,0.0662510991
89729.499020,0.264729964,0.218331036,0.068988196,-0.142333314,0.0165024046,0.056677565
89729.509048,0.169032186,0.278862132,0.197273215,-0.124880821,0.0217128787,0.0319277421
89729.519076,-0.00930851109,0.33507184,0.110551794,-0.207934946,-0.00229684962,0.0192513634
89729.529104,0.183412009,0.308747896,0.390615521,-0.162212998,0.00803115498,0.025264781
89729.539132,0.361126099,0.331916444,0.085222707,-0.15040189,0.0148198195,0.0171053894
89729.549160,0.289400002,0.308200747,0.251267256,-0.149124101,0.0200790297,-0.0241397861
89729.559188,0.224829915,0.172445575,0.263349908,-0.167545989,0.0119968681,-0.0770445466
89729.569216,0.196559806,0.0379747889,0.444006335,-0.18119815,0.00320577389,-0.0925603881
89729.579244,0.403533893,-0.065367978,0.432247508,-0.0388063863,0.0206236467,-0.074357152
89729.589272,0.176930538,-0.107614462,0.185227973,-0.00441432465,0.0194739588,-0.065504536
89729.599300,-0.0315108444,-0.126149487,0.549658666,0.0711006671,0.0487287864,-0.0505729914
89729.609328,0.00934518984,-0.14202785,0.410983186,0.0832545385,0.0743875429,-0.0325945243
89729.619356,0.00701499333,-0.14423506,0.587974076,0.0194944702,0.0969708785,0.000413759612
89729.629383,0.218038063,-0.189795737,0.574888384,0.0481223874,0.132904127,0.034297958
89729.639411,0.19921865,-0.176846623,0.251596926,-0.0300903916,0.151846379,0.0333304331
89729.649439,0.0143085113,-0.13531194,0.4368664,-0.0483998917,0.172670975,0.0211227667
89729.659467,0.0654614832,-0.15915172,0.150109313,-0.0732099041,0.161734432,0.00696966331
89729.669495,0.0873952287,-0.147459374,0.0968897639,-0.0480952263,0.131214604,-0.0114128068
89729.679523,0.114177876,-0.16834024,0.0220341372,0.0567030907,-0.0145521853,-0.0321772099
89729.689551,0.287347308,-0.295927212,-0.357125923,0.386729479,-0.108075209,-0.0458312333
89729.699579,0.0660085957,-0.126298942,-0.557577184,0.663805544,-0.117249802,-0.0805838853
89729.709607,-0.422359297,0.153892667,0.0491840099,0.786972702,-0.0374242105,-0.143195331
89729.719635,-0.547654048,0.231821929,0.578587239,0.747670352,0.0926909149,-0.173525542
89729.729663,-0.367408394,0.212381608,0.797155171,0.615633488,0.227117971,-0.162543997
89729.739691,-0.0925672245,0.07929339,0.64823536,0.394162893,0.336557388,-0.109090358
89729.749719,-0.0430704954,-0.00936217751,0.387598219,0.0726737976,0.361777782,-0.0238521639
89729.759747,-0.0575946954,-0.0354798942,-0.0184480954,-0.13775453,0.286217779,0.0825230107
89729.769775,0.129554308,-0.0689558281,-0.78471713,-0.159332529,0.206486732,0.17103371
89729.779803,0.466260252,-0.135337495,-1.09871177,-0.202247247,0.12312445,0.175814077
89729.789830,0.516077591,-0.129148212,-0.631874592,-0.189573258,0.0626698956,0.0989097059
89729.799858,0.278806858,0.00643814329,-0.342479558,-0.0695821419,0.0244455487,-0.00879198872
89729.809886,0.0187459093,0.179706908,-0.179062436,0.153064787,0.000399068347,-0.106442377
89729.819914,-0.15998408,0.267288855,-0.11753157,0.423402786,-0.00882532261,-0.187781706
89729.829942,-0.292143164,0.291191452,-0.0167938984,0.658389211,-0.0256498437,-0.252177238
89729.839970,-0.411362833,0.349552639,0.0022404724,0.830923676,-0.0517400317,-0.296275169
89729.849998,-0.353233154,0.340485827,-0.0422170935,0.936466873,-0.0679214001,-0.319945902
89729.860026,-0.071130761,0.225671042,-0.0518055906,0.965347767,-0.0540415347,-0.331164986
89729.870054,0.24158392,0.0789731451,0.0907861863,0.905475378,-0.0168816522,-0.33372587
89729.880082,0.431689728,-0.0985887499,0.417511711,0.750683904,0.0146038905,-0.334533751
89729.890110,0.493746225,-0.299650032,0.612306553,0.58380729,0.0444877557,-0.316410959
89729.900138,0.466917547,-0.430213006,0.688115535,0.411463261,0.0610760525,-0.267692417
89729.910166,0.292296162,-0.425761799,0.613626988,0.363907188,0.0898488462,-0.197894692
89729.920194,0.115477998,-0.327867826,0.25471535,0.34592846,0.104953498,-0.115928449
89729.930222,-0.0703029319,-0.2371181,0.0692050537,0.298710883,0.0963685289,-0.0523681194
89729.940249,-0.173998869,-0.17737609,-0.0442833784,0.217896715,0.0838245079,-0.00309085101
89729.950277,-0.0536956421,-0.159313195,-0.138209616,0.118284911,0.0670274198,0.0491582379
89729.960305,0.149450411,-0.166585085,-0.230783855,-0.00473369006,0.0388887264,0.0914028957
89729.970333,0.194099261,-0.163735906,-0.232165665,-0.103779308,0.00550786452,0.112905264
89729.980361,0.166769648,-0.104375443,-0.259801275,-0.164083943,-0.0190020055,0.118365005
89729.990389,0.0932055224,-0.0438490055,-0.1933312,-0.192320898,-0.0265661832,0.107474543
89730.000417,-0.000692366178,0.0298210647,-0.0522463201,-0.183537796,-0.020521339,0.0836557597
89730.010445,-0.133672557,0.128233143,-0.0150140293,-0.128292114,-0.013344653,0.0540885478
89730.020473,-0.212787011,0.152330715,-0.0400116924,-0.0594403446,-0.0177370049,0.025204435
89730.030501,-0.195466458,0.132232369,-0.039239539,0.0237834379,-0.0314514823,0.00496201497
89730.040529,-0.1499984,0.100512923,-0.0735199942,0.0871589482,-0.0454969965,-0.0113956528
89730.050557,-0.0469523053,0.0087088647,-0.00690320352,0.105229035,-0.0436921716,-0.0212019458
89730.060585,0.0208436122,-0.116756932,0.144829911,0.0829825848,-0.0310554747,-0.0211220495
89730.070613,0.0446546959,-0.184538748,0.25763153,0.057519298,-0.00457832543,-0.0222562887
89730.080641,0.0274659529,-0.197714456,0.297400646,0.0278524831,0.0278717596,-0.0178157352
89730.090668,-0.0117677408,-0.167401955,0.35670799,0.0219839402,0.0577082187,-0.0102395741
89730.100696,-0.0955449252,-0.143686586,0.298610606,0.0481241979,0.0781708807,-0.00175873842
89730.110724,-0.11777137,-0.120357952,0.187345695,0.0825487524,0.087303929,0.0120710572
89730.120752,-0.0921263489,-0.129611007,0.13447043,0.103715822,0.0875356272,0.0262396075
89730.130780,-0.0393052977,-0.170193704,0.0609913521,0.11246857,0.0815664157,0.0408174843
89730.140808,0.00150017543,-0.166428287,0.0259404969,0.0951375142,0.0784862041,0.0548515469
89730.150836,0.0174571846,-0.144129216,0.0505149662,0.0821796358,0.0869555846,0.0653667673
89730.160864,0.0100881172,-0.0717763654,0.0485363596,0.0752530247,0.0943349376,0.0752327144
89730.170892,-0.0440465009,0.00141629654,-0.00428279189,0.0624176525,0.101422146,0.0798381194
89730.180920,-0.0675144702,0.034806525,-0.032258594,0.0364097506,0.105611295,0.084266156
89730.190948,-0.00920987302,0.0165111359,-0.0170201084,0.00930516329,0.113147244,0.0866978914
89730.200976,-0.0194940973,0.00398030181,-0.0528092146,-0.000716578099,0.114420764,0.085651271
89730.211004,-0.165118666,0.00219590261,-0.146583477,-0.0252869017,0.0972585604,0.0840049013
89730.221032,-0.144037884,-0.0488112311,-0.125790864,-0.0394866131,0.0877542719,0.0990126133
89730.231060,-0.0165174196,-0.100757253,-0.126019412,-0.0401979424,0.0815632194,0.125808001
89730.241088,0.0147182612,-0.145083886,-0.131025258,-0.0685001463,0.064654544,0.153825
89730.251115,0.0483415677,-0.197640003,-0.0635486353,-0.10285493,0.054553438,0.193939924
89730.261143,0.08837781,-0.244771683,-0.0284001651,-0.156643063,0.0585886613,0.232424736
89730.271171,0.116196376,-0.302717822,0.106606271,-0.232308269,0.0779956505,0.271390766
89730.281199,0.116682406,-0.284797696,0.244086404,-0.286680669,0.0991869569,0.305724233
89730.291227,0.073927406,-0.257062863,0.264760943,-0.32003811,0.112897173,0.334877074
89730.301255,0.00776011261,-0.165455716,0.247488906,-0.273582727,0.113435395,0.362395257
89730.311283,-0.0539604305,-0.115033689,-0.0227805716,-0.248149544,0.0864575729,0.378255159
89730.321311,-0.00226648363,-0.149893113,0.0318096812,-0.231801465,0.0582845286,0.372862816
89730.331339,0.0420930287,-0.137277523,0.0462280827,-0.197979048,0.0365510024,0.363706052
89730.341367,0.0101664431,-0.0389298885,0.0347515799,-0.166950837,0.022577662,0.347871423
89730.351395,0.0620399843,-0.00503887095,0.115938748,-0.140454248,0.0172023382,0.333004594
89730.361423,0.0929848654,0.0641196401,0.14392624,-0.114338212,0.00197837735,0.324305922
89730.371451,0.101463648,0.129947765,0.095157241,-0.0644239187,-0.0163982343,0.313150465
89730.381479,0.140026018,0.0992524745,-0.0161789814,-0.0142808566,-0.0341636464,0.290734649
89730.391507,0.0454106288,0.113939464,0.0105786772,-0.0155184269,-0.0371125638,0.248995185
89730.401535,-0.0246634627,0.16373123,0.219341839,-0.0146936467,-0.0285315961,0.211057127
89730.411562,0.0906156521,0.200585774,0.314494404,0.0327801295,-0.0182331521,0.19136624
89730.421590,0.165454035,0.240964838,0.192849553,0.0834765956,-0.00807771832,0.160907671
89730.431618,0.0308782456,0.358625003,0.266620308,0.111044042,0.00694969995,0.131145775
89730.441646,-0.016512305,0.415772028,0.371123469,0.120272428,0.0257390998,0.112569168
89730.451674,0.138281074,0.408990185,0.355856342,0.187013105,0.0659951791,0.0880846009
89730.461702,0.0929262671,0.382183208,0.253878899,0.163533077,0.0933847278,0.0465776362
89730.471730,-0.0788917504,0.30119032,0.443180405,0.152790412,0.124138109,0.00758656021
89730.481758,0.0711599871,0.176477753,0.335220381,0.148370102,0.148647174,-0.0116936611
89730.491786,0.138834105,0.0824583568,0.250721312,0.131570086,0.157310173,-0.0222360492
89730.501814,0.0957804144,0.0121321902,0.209248315,0.131613225,0.150148675,-0.0163821541
89730.511842,0.070792542,3.1856443e-05,0.0504483307,0.163055837,0.141978621,0.00337050995
89730.521870,0.0207822374,0.053044777,-0.132228204,0.154610693,0.122721575,0.0149832238
89730.531898,-0.0224527279,0.0444301664,-0.105817751,0.115730673,0.108273923,0.010219628
89730.541926,0.0754885178,0.0169978235,-0.0689677378,0.0793779939,0.101564892,0.0054826634
89730.551954,0.0560802722,0.0173606654,-0.119741063,0.0309334919,0.0915572643,-0.000859920867
89730.561982,-0.017197803,0.0202086022,-0.128929162,-0.0020731925,0.0784784779,-0.00703259651
89730.572009,-0.0635525808,-0.0209654119,-0.214696644,-0.0431718938,0.0537235998,-0.00605681352
89730.582037,-0.0381149919,-0.0839381471,-0.20861294,-0.0600978807,0.019549381,0.00534684211
89730.592065,0.0395586149,-0.139767879,-0.217089676,-0.0712810233,-0.117966667,0.030801069
89730.602093,0.283348228,-0.278755567,-0.308558,0.164296344,-0.17004478,0.0651254877
89730.612121,0.353959641,-0.10161102,-0.443297309,0.272263825,-0.230910525,0.062768057
89730.622149,0.059622621,0.0621517741,0.18910043,0.450224519,-0.191476569,-0.00170973595
89730.632177,-0.191370056,0.196556445,0.333823958,0.491541594,-0.113107465,-0.0580941811
89730.642205,-0.226992792,0.281293853,0.737227064,0.495228469,-0.0010890516,-0.0968905762
89730.652233,-0.170655111,0.166582163,0.69966861,0.400619417,0.108542107,-0.101611301
89730.662261,-0.19505722,0.0655937313,0.610995471,0.261592269,0.21003145,-0.061804764
89730.672289,-0.144730031,-0.0865071938,0.235718973,-0.0118075786,0.259392858,0.0223117098
89730.682317,-0.129504259,-0.212580528,-0.0403372711,-0.301848441,0.219263822,0.122629263
