t,ax,ay,az,gx,gy,gz
103248.423628,0.326694837,-0.0154267017,-0.426274278,0.0682043508,0.173845917,0.0872920826
103248.433657,0.339805079,-0.0504062452,-0.677240505,0.146803036,0.167397872,0.102557853
103248.443686,0.262682384,0.0271060336,-0.773709998,0.235104933,0.190934896,0.110361449
103248.453715,0.164366971,0.074916417,-0.84547292,0.283423454,0.213419169,0.10422606
103248.463744,0.0610398674,0.0309252996,-0.979230817,0.272832841,0.195373848,0.0887781307
103248.473773,-0.108356622,0.0630617286,-1.25519997,0.201348826,0.123119354,0.0541170835
103248.483802,-0.114829617,0.0727361504,-1.24467565,0.0891059041,0.00607049791,0.00688885245
103248.493831,-0.133973294,0.0866547856,-1.28577748,-0.034546528,-0.144933924,-0.0388967469
103248.503860,-0.0912155177,0.0470949287,-1.25482529,-0.155026332,-0.312012672,-0.07375779
103248.513889,0.0567436315,0.0179413149,-0.973792425,-0.277981281,-0.457059056,-0.103984669
103248.523918,0.744428666,-0.382462609,-0.801608059,-0.413521022,-0.605838954,-0.093343474
103248.533947,0.903671718,-0.756210582,-1.10526893,-0.399367362,-0.715573967,-0.0465530679
103248.543976,0.648939709,-0.308928002,-1.0034423,-0.284719616,-0.715807259,-0.0149410786
103248.554005,0.432196654,0.0300146145,-0.419772057,-0.184863314,-0.663628757,0.00221500453
103248.564034,0.0746378924,0.15571897,-0.0804711286,-0.121324033,-0.60882622,0.0061820494
103248.574063,-0.0721691642,0.310747619,0.171265498,-0.0694919899,-0.53300631,0.00606407132
103248.584092,-0.253826293,0.312522812,0.295858093,-0.0145978509,-0.446395248,0.00654850062
103248.594120,-0.337790816,0.311725524,0.369999434,0.0325731225,-0.367852211,0.00596074061
103248.604150,-0.289369023,0.289682619,0.444370492,0.0321494117,-0.31390056,0.00864653848
103248.614179,-0.14152444,0.145934073,0.48147711,-0.00122904882,-0.296624929,0.00581027195
103248.624207,0.0447156323,0.000832943693,0.395333197,-0.041373007,-0.306741983,-0.00212435052
103248.634236,-0.0504074142,-0.40779345,1.02484515,-0.302631259,-0.375635833,-0.060594853
103248.644265,-0.672510262,-0.131107091,2.24081435,-0.540929317,-0.369528145,-0.141561076
103248.654294,-0.237380185,0.114648708,2.26450502,-0.615001142,-0.285332054,-0.160560071
103248.664323,-0.138798522,-0.292636792,1.9902,-0.57088536,-0.178725436,-0.108057968
103248.674352,0.339239846,-0.370343132,1.84023331,-0.394942254,-0.00360130426,-0.022824835
103248.684381,0.426447881,-0.160500943,1.55425013,-0.185472921,0.173537523,0.0449859016
103248.694410,0.318818405,0.103949619,1.36012048,-0.0285991542,0.303266495,0.0748881474
103248.704439,0.316987974,0.212315886,1.07990185,0.0885727406,0.385570943,0.0804975629
103248.714468,0.259782863,0.0735661715,0.607266221,0.154397309,0.412923485,0.0837082714
103248.724497,0.390410938,-0.300780936,0.250928818,0.175264508,0.408715159,0.108096436
103248.734526,0.517461739,-0.620764585,-0.152444478,0.188304931,0.386904657,0.146238491
103248.744555,0.449595825,-0.708370388,-0.442027143,0.168809801,0.355390161,0.172216296
103248.754584,0.288071384,-0.577300122,-0.430877973,0.104110159,0.322291315,0.181107521
103248.764613,0.198498081,-0.451497567,-0.516016509,0.038906917,0.290376276,0.17840068
103248.774642,0.217478676,-0.375761066,-0.773995245,0.00235423446,0.259306222,0.178294957
103248.784671,0.120844055,-0.171371881,-0.981891561,-0.0187563784,0.21150142,0.168738738
103248.794700,0.0325651758,0.112089671,-1.09240536,-0.0326255895,0.147791952,0.1469381
103248.804729,-0.00763560944,0.358202028,-1.17606155,-0.0286023505,0.0687242895,0.115810543
103248.814758,-0.125375561,0.52144964,-1.07232645,-0.0269669034,-0.0058053364,0.0788938031
103248.824787,-0.133257547,0.624613077,-0.829881967,-0.0164703205,-0.0561393462,0.0507766791
103248.834816,-0.121937404,0.54102294,-0.585527267,-0.0173318535,-0.0860818028,0.0315806158
103248.844845,-0.20246377,0.464346527,-0.267797535,-0.0538941249,-0.116265267,0.0147305299
103248.854874,-0.18516952,0.382713954,-0.00586275455,-0.094101198,-0.131614387,0.00778607139
103248.864903,-0.10886311,0.250372937,0.0327834947,-0.107644171,-0.136963353,0.0118034501
103248.874932,-0.114797761,0.183680743,0.115942839,-0.111879662,-0.139348745,0.0155702252
103248.884961,-0.101563893,0.218892926,0.277982829,-0.111795776,-0.136868536,0.0107128853
103248.894990,-0.0414130836,0.241629659,0.298192088,-0.0904830322,-0.129080385,0.0121659059
103248.905019,0.0214797181,0.129792501,0.373418302,-0.0589956753,-0.108502157,0.0204334222
103248.915048,0.0264309108,0.0501104771,0.561857638,-0.0353009999,-0.0745942518,0.0322919451
103248.925077,0.0182023039,0.0791261437,0.685560005,-0.0153501937,-0.0338548161,0.0375985615
103248.935106,0.0846606892,-0.00274316123,0.648306672,0.00803981721,0.00569366058,0.0494248606
103248.945135,0.0588619388,-0.126107675,0.559354715,0.0261716824,0.0355860442,0.0578569621
103248.955164,0.0399736985,-0.053258712,0.555902529,0.0261759423,0.057762187,0.0527900308
103248.965193,0.0633054742,-0.0558668487,0.554918194,0.0202458818,0.0853522718,0.0510222241
103248.975222,0.128543086,-0.110624859,0.487090274,0.0202139243,0.113341562,0.0649247244
103248.985251,0.115173024,-0.0897761325,0.415445426,0.0280271061,0.139217377,0.0676704422
103248.995280,0.0575157849,-0.0161976861,0.262527485,0.0458881296,0.156966016,0.0664083734
103249.005309,0.0193991125,0.0754652831,0.207713945,0.0522703938,0.168933988,0.0576534942
103249.015338,0.0259817057,0.0946077905,0.158043613,0.0721021593,0.173127934,0.0589531176
103249.025367,0.0227957692,-0.0124707745,0.0290980842,0.0951685905,0.174881101,0.0730921105
103249.035397,0.0379670348,0.00474397966,0.0919014541,0.109836221,0.180177853,0.0860846043
103249.045426,-0.00653086307,0.0405617275,0.113998135,0.108085454,0.18311213,0.0939569101
103249.055455,0.00372924966,0.0791337425,-0.0119213239,0.111867413,0.179224983,0.102402329
103249.065484,0.0418941451,0.107945411,-0.174888365,0.122968115,0.167266876,0.115577161
103249.075513,0.028933249,0.177995099,-0.281477101,0.135609344,0.15269646,0.124805808
103249.085542,0.0185500944,0.24123043,-0.374630016,0.156271487,0.135365933,0.133131921
103249.095571,-0.00823123725,0.263550983,-0.453705306,0.167790189,0.115757622,0.139003128
103249.105600,-0.118643623,0.332895153,-0.448377389,0.148730204,0.0900389403,0.129564613
103249.115629,-0.200203131,0.4414812,-0.443713489,0.106757984,0.047546342,0.101742566
103249.125658,-0.357267378,0.558803511,-0.514546436,0.0515160337,-0.0108136376,0.0516498387
103249.135687,-0.458819873,0.626472441,-0.488999322,-0.0138922688,-0.0756861046,-0.00571784563
103249.145716,-0.425781527,0.545568766,-0.436477693,-0.0781498179,-0.143044919,-0.0520552509
103249.155745,-0.331596053,0.388591321,-0.335536607,-0.131084934,-0.207426563,-0.0779294521
103249.165774,-0.190183549,0.279607799,-0.152682378,-0.173359409,-0.241788268,-0.0986994505
103249.175803,-0.031963995,0.188249366,-0.000162497085,-0.208322465,-0.272101432,-0.110558778
103249.185832,-0.080889354,0.187858906,0.127131173,-0.192088097,-0.250595331,-0.120007128
103249.195861,0.237019242,0.16010756,0.227390706,-0.160688356,-0.209551498,-0.116791099
103249.205890,0.355649421,-0.0857236423,0.0681762951,-0.101769127,-0.176769584,-0.0997085273
103249.215919,0.432359736,-0.179301505,-0.0451928944,-0.0318121463,-0.141456336,-0.0766844302
103249.225948,0.439163863,-0.197346865,-0.0522124178,0.0385866538,-0.103695907,-0.0578034185
103249.235977,0.416207643,-0.231339735,-0.166478264,0.110208638,-0.0664281622,-0.0388813913
103249.246006,0.409824079,-0.384531232,-0.313504224,0.167814955,-0.0463700332,-0.0158623587
103249.256035,0.331096579,-0.419447647,-0.418837991,0.184948668,-0.0388703048,0.00182475895
103249.266064,0.263252,-0.279675604,-0.408504229,0.169935092,-0.0481724627,-0.012074545
103249.276093,0.151582308,-0.26836569,-0.452755458,0.116068393,-0.0841770619,-0.0146327782
103249.286122,0.140211019,-0.279385681,-0.483510662,0.080263257,-0.124365769,-0.0186845101
103249.296151,0.075329674,-0.186594,-0.505166029,0.0795865506,-0.150808558,-0.0196634885
103249.306180,0.313355463,-0.198001529,-0.490213374,0.0827072412,-0.131651908,-0.0358443223
103249.316209,1.26346072,-1.04542617,-1.18322077,0.0157697536,-0.27130115,0.0511622131
103249.326238,0.909853037,-1.22297411,-1.55561792,-0.00678216107,-0.435032308,0.0946774632
103249.336267,0.776437085,-0.685668142,-0.815987297,-0.133044213,-0.531725824,0.0898257196
103249.346296,0.71837068,-0.46418403,-0.282341608,-0.25293228,-0.61122942,0.0718717575
103249.356325,0.399399716,-0.38820203,-0.244705413,-0.328455001,-0.667646348,0.063416481
103249.366354,0.266480022,-0.33615737,-0.00190378779,-0.355356127,-0.67381078,0.0679079071
103249.376383,0.141469495,-0.296200622,0.238609434,-0.350415975,-0.643432617,0.0836759508
103249.386412,-0.00112491238,-0.141899703,0.508245875,-0.326298118,-0.584603667,0.099750787
103249.396441,-0.14579671,0.0647322922,0.709364075,-0.278554559,-0.497894078,0.104194805
103249.406470,-0.347283744,0.210167768,0.866253842,-0.232081845,-0.427476913,0.0861585438
103249.416499,-0.88144995,0.443135981,1.67955409,-0.237290189,-0.343595594,0.0507134721
103249.426528,-1.13659317,0.875482858,2.74583834,-0.2668401,-0.156316772,-0.018556945
103249.436557,-0.854296862,1.00268242,2.68046833,-0.176628187,0.0467138365,-0.0483950004
103249.446586,-0.626770255,0.645658203,1.94006556,-0.0203693416,0.208594084,-0.0286508575
103249.456615,-0.106264326,0.343130716,1.49655899,0.0985410661,0.324756622,0.00319442293
103249.466644,0.129586457,0.238370949,1.09122872,0.15634498,0.370939851,0.019588843
103249.476673,0.153143858,0.21449323,0.748868402,0.155439511,0.36028561,0.0136843473
103249.486702,0.245111071,0.13113807,0.602494184,0.0942632332,0.312357485,-0.0062462166
103249.496731,0.321390885,-0.109061848,0.401693379,0.0232479088,0.249379858,-0.00756874308
103249.506760,0.428420643,-0.416726698,0.146475925,-0.0263761021,0.194235384,0.0182980075
103249.516789,0.46594198,-0.521405216,-0.0702501788,-0.0388926938,0.156516761,0.0521766134
103249.526818,0.402979912,-0.416764692,-0.251353765,-0.0118765216,0.141686678,0.0811488777
103249.536847,0.283289411,-0.243328279,-0.368442267,0.0346443765,0.146385565,0.0965763032
103249.546876,0.191262577,-0.0689215605,-0.472707528,0.0869555175,0.168998197,0.0940415114
103249.556905,0.0471487047,0.0894932239,-0.54804071,0.141853929,0.192963451,0.0859028846
103249.566934,-0.0438370959,0.151760587,-0.612529841,0.18408367,0.205701888,0.0662426353
103249.576963,-0.12507804,0.179738728,-0.587857172,0.203619286,0.20843482,0.0413511284
103249.586992,-0.137638538,0.197602886,-0.532249266,0.177964255,0.195311829,0.0165065005
103249.597021,-0.0960784475,0.155012867,-0.428234765,0.122767307,0.168037325,-0.00148634892
103249.607050,-0.0656301178,0.190980837,-0.499493244,0.0862545744,0.128485128,-0.0159174856
103249.617079,-0.0831201818,0.313337051,-0.655035103,0.0611167289,0.0682899728,-0.0283267498
103249.627108,0.00134586165,0.31210897,-0.754099289,0.0461146086,-0.00671556545,-0.0405775607
103249.637137,0.0431850617,0.260546541,-0.809659263,0.0477873422,-0.0735702291,-0.0520536527
103249.647166,0.060910688,0.159162972,-0.668285046,0.0286570564,-0.134576067,-0.0638679713
103249.657195,0.112794605,0.0273749137,-0.337239904,-0.0119644059,-0.18342936,-0.0700310618
103249.667224,0.0937435748,-0.0168862529,-0.0072580083,-0.0426048748,-0.201650441,-0.0737925023
103249.677253,0.00971066215,-0.01571604,0.425487512,-0.0576123185,-0.165535048,-0.0777627379
103249.687282,-0.08886837,-0.077079148,0.859212107,-0.0598741397,-0.0878221318,-0.0687604547
103249.697311,-0.0526692217,-0.128812258,1.03628834,-0.0388535447,0.0106554357,-0.0487800948
103249.707340,0.0272597628,-0.16376316,1.01712771,-0.0104354853,0.0876327753,-0.0249698386
103249.717369,0.0557142884,-0.163422968,0.822100227,0.0226670746,0.14232637,-0.00562197156
103249.727398,0.0904462869,-0.102139355,0.681594609,0.0404849537,0.181625307,0.00389696471
103249.737427,0.0681011841,0.0178109665,0.564433041,0.0472922586,0.212870046,-0.00203069951
103249.747456,-0.0174964937,0.142132927,0.416665908,0.0413965546,0.232549474,-0.0214941464
103249.757485,-0.0446612718,0.212858907,0.205167183,0.0394457877,0.243447393,-0.0437278114
103249.767514,-0.0492982839,0.219337747,0.0519406151,0.035351444,0.246556908,-0.0635017902
103249.777543,-0.00120411509,0.151490538,-0.0962941361,0.0372848995,0.243961662,-0.0716792792
103249.787572,0.0318421222,0.0416267264,-0.258789468,0.0201445278,0.226757362,-0.0659753233
103249.797601,0.0523904047,-0.0419815312,-0.331923093,-0.00894571282,0.201855212,-0.0570348315
103249.807630,0.0712555564,-0.137884622,-0.408884752,-0.052148845,0.163491577,-0.0383037515
103249.817659,0.0425318585,-0.167429281,-0.439129084,-0.0965759605,0.125212103,-0.0194456428
103249.827688,0.0415840563,-0.111800917,-0.449487981,-0.125556737,0.0769479126,-0.00464112964
103249.837717,0.0258653859,-0.0741723207,-0.424219684,-0.140034214,0.0339687467,0.00867387652
103249.847746,0.0217512286,-0.0129050743,-0.24946459,-0.153417662,0.0124032684,0.0176716335
103249.857775,0.0418631655,0.0425496864,-0.077719784,-0.171610519,-0.00299299927,0.0199805945
103249.867804,0.0827858352,0.0799696088,-0.0953735141,-0.14883703,-0.00359913474,0.017111836
103249.877833,0.00834989519,0.211145089,-0.0655032765,-0.120984368,0.00125607452,0.00232303655
103249.887862,0.0155091193,0.239205062,0.00275894332,-0.107193984,0.00432829699,-0.0121717509
103249.897891,0.0793795339,0.118003279,-0.021442601,-0.089447476,0.00288646156,-0.0190589502
103249.907920,0.0566965775,0.0307791691,0.00330371772,-0.0781660601,0.00578557886,-0.0204850733
103249.917949,0.0276420402,-0.0323474414,0.0609469284,-0.0737548023,0.00686096307,-0.0201159604
103249.927977,0.0582280248,-0.131694535,0.0847334622,-0.0727497265,0.0065408512,-0.0132279601
103249.938006,0.0800251384,-0.185628955,0.0972895769,-0.0704580769,0.0117172375,-0.0012693014
103249.948035,0.0695686263,-0.127728554,0.0799415517,-0.0681826696,0.0101893824,0.00551243825
103249.958064,0.0440203435,-0.0889133782,0.0180617264,-0.0690189004,0.00186434051,0.00987389684
103249.968093,0.0201110601,-0.0539729977,-0.0101280108,-0.0676103607,-0.0062692198,0.014857471
103249.978122,0.00121259066,0.0118757312,-0.0193131878,-0.064386867,-0.0138091613,0.016370412
103249.988151,0.0282113645,0.0333072263,-0.0229921685,-0.0666476265,-0.0212340541,0.0232349765
103249.998180,0.0311368965,0.0676145696,-0.0385416198,-0.0698889568,-0.0280125979,0.0276702046
103250.008209,0.0440817183,0.0793938547,-0.0382224709,-0.0797967166,-0.0395424888,0.0299679805
103250.018238,0.0712137631,0.0799690242,-0.0943523544,-0.0903396383,-0.0543406084,0.0328692272
103250.028267,0.0803510093,0.126231594,-0.182614575,-0.0925958678,-0.0694383308,0.035193637
103250.038295,0.108420335,0.163624044,-0.282923792,-0.0918967873,-0.0857531205,0.0360319987
103250.048324,0.143493402,0.165392807,-0.416593427,-0.0917199552,-0.113464646,0.0387910306
103250.058353,0.153824242,0.152303608,-0.548025512,-0.0937069356,-0.152940422,0.0358232036
103250.068382,0.157985745,0.152497085,-0.630029841,-0.0974589065,-0.198324725,0.0308255292
103250.078411,0.137669518,0.159078801,-0.672843147,-0.0924945101,-0.244893834,0.0234427117
103250.088440,0.0965738298,0.168421799,-0.596633768,-0.0896228254,-0.280198306,0.0133549254
103250.098469,0.130890233,0.0952817442,-0.459812975,-0.0887695476,-0.310047001,0.018591499
103250.108498,0.138302848,-0.0506353777,-0.300869783,-0.0981121808,-0.329671323,0.0295123234
103250.118527,0.136431793,-0.133812843,-0.0653659139,-0.115986787,-0.334437579,0.0398906618
103250.128556,0.16528467,-0.167773564,0.0752022482,-0.124852449,-0.333223969,0.0515715517
103250.138585,0.141094524,-0.167135851,0.194099261,-0.119477391,-0.323839247,0.0643187761
103250.148614,0.130300158,-0.192848384,0.31651685,-0.0909333676,-0.301405579,0.0750446543
103250.158643,0.149866444,-0.154424838,0.403117859,-0.0459832028,-0.278421968,0.087068826
103250.168672,-0.233170166,0.0942559083,0.720037445,0.0628340915,-0.245511413,0.0932473615
103250.178701,0.0687532182,0.312064546,1.13035428,0.118900023,-0.105284274,0.121699244
103250.188730,0.715942576,-0.364568641,0.486821978,0.229371145,-0.0682881773,0.175956085
103250.198759,0.29764556,-0.45731356,-0.155877959,0.302909821,-0.0771120265,0.21290718
103250.208788,0.283349909,-0.0976367829,0.34969139,0.283202171,-0.053408023,0.201887816
103250.218817,0.07309417,0.119394441,0.534250085,0.227713317,-0.0276730992,0.17134802
103250.228846,-0.141346161,0.150973236,0.444746339,0.169049218,-0.0111463219,0.132342026
103250.238875,-0.180877668,0.0646364306,0.365713719,0.107477725,0.0144469216,0.103039272
103250.248904,-0.124187521,-0.0526490556,0.184932789,0.060799703,0.0303233564,0.0891927034
103250.258933,-0.083654727,-0.17055998,-0.00730126292,0.0277890228,0.0290991031,0.0892238617
103250.268962,-0.102116851,-0.0517325253,-0.0447451507,-0.00390632171,0.0186496563,0.0711271465
103250.278991,-0.0902966493,0.149930449,-0.132430448,-0.0171419661,0.00858290773,0.0561130419
103250.289020,0.0559112723,0.108043026,-0.30564182,-0.00650024042,-0.0191200934,0.0564829521
103250.299049,0.179776429,0.0684253015,-0.371081384,0.0102590322,-0.0473024622,0.0640324876
103250.309078,0.218607095,0.134874334,-0.338974765,0.0415738113,-0.0705318898,0.0722968057
103250.319107,0.0364648136,0.283147664,-0.122557874,0.0668341592,-0.0937836766,0.0703186095
103250.329136,-0.012389526,0.330332609,0.197086753,0.0942383558,-0.063702479,0.0767980814
103250.339165,0.244794845,0.261617385,0.237616331,0.151443854,-0.0467234887,0.0834738314
103250.349194,0.100649409,0.079988898,0.268028421,0.198868096,-0.0192447305,0.091212444
103250.359223,0.130411802,0.0471831915,0.400243765,0.222948134,0.0239775777,0.0917482674
103250.369252,0.0552522239,-0.01718319,0.54219023,0.205172867,0.0663439408,0.0847404301
103250.379281,-0.0173047705,-0.120310387,0.57029638,0.156248197,0.0974030569,0.0817363784
103250.389310,-0.100121878,-0.101282446,0.530171291,0.0892617032,0.112026736,0.0712235495
103250.399339,-0.150103175,-0.0475151999,0.438434087,0.0363750532,0.127653375,0.0564291589
103250.409368,-0.173643041,0.0932569604,0.234715349,0.0188871399,0.144815579,0.0466319211
103250.419397,-0.150885558,0.113359837,0.0214314951,0.0127613386,0.150169343,0.0396400578
103250.429426,0.0239241887,-0.0517196658,-0.00589899491,-0.0315254331,0.131356508,0.0388858505
103250.439455,0.330838221,-0.290271817,-0.0230728326,-0.157582432,0.0422441997,0.043786332
103250.449484,0.654579176,-0.653942047,-0.102114805,-0.301840276,-0.0780132413,0.0434063002
103250.459513,0.188052675,-0.133920979,-0.551070871,-0.246539474,-0.129384547,0.0288755596
103250.469542,-0.129723235,0.514392707,-0.473696539,-0.142600551,-0.104445912,0.00516197598
103250.479571,-0.34873102,0.488612954,0.00495440754,-0.0967771411,-0.0553020649,-0.00988568272
103250.489600,-0.311349676,0.306286548,0.409976639,-0.0965108275,-0.00312221795,-0.0154607436
103250.499629,-0.202287244,0.0938461584,0.463574374,-0.106178634,0.0409941114,-0.0134106437
103250.509658,-0.118838269,-0.0155985511,0.392402404,-0.116811566,0.068123199,-0.00925451424
103250.519687,0.00393558588,-0.0795966838,0.428498969,-0.151607364,0.0815878734,-0.0125818672
103250.529716,0.0535366521,-0.0623901129,0.544414336,-0.191798732,0.0895941332,-0.0186197869
103250.539745,0.0377729736,0.000812485427,0.608704729,-0.211417437,0.110140957,-0.0286266133
103250.549774,0.0712935504,0.0255605577,0.636422173,-0.206469819,0.144298673,-0.0326932631
103250.559803,0.151642222,0.0819406166,0.578760842,-0.17452839,0.172167853,-0.033096198
103250.569832,0.114934247,0.0964624784,0.526868742,-0.138632715,0.203616321,-0.0338373557
103250.579861,0.186152394,0.0585392827,0.444876103,-0.0942455381,0.24097833,-0.0286527127
103250.589890,0.179691674,-0.0122615157,0.185244924,-0.0508482642,0.268232048,-0.0202552341
103250.599919,0.0489247744,-0.145831197,0.0513432337,-0.0453339219,0.287988454,-0.0164051019
103250.609948,0.0326966932,-0.297546776,-0.0412619847,-0.0645385087,0.300780147,-0.0158029608
103250.619977,-0.0630021074,-0.384965532,-0.0640711979,-0.108746186,0.30705294,-0.0217071883
103250.630006,-0.157936938,-0.384328988,0.00862578953,-0.168155447,0.332271487,-0.0329457298
103250.640035,-0.109049281,-0.299717106,0.0856622675,-0.222315893,0.367451847,-0.0464167967
103250.650064,-0.0562543867,-0.102379594,0.0767483086,-0.266765893,0.397408664,-0.0711247995
103250.660093,0.0306409297,0.0871428614,-0.0348895271,-0.293106943,0.402265757,-0.0942082852
103250.670122,0.267562557,0.163562084,-0.242114227,-0.270533204,0.397401214,-0.0928087905
103250.680151,0.423790645,0.312336349,-0.499843373,-0.206419483,0.383903533,-0.0926740393
103250.690180,0.447360613,0.470702034,-0.675589231,-0.14120692,0.346428305,-0.0933427587
103250.700209,0.465143523,0.512097289,-0.853121388,-0.090934962,0.271528244,-0.100118369
103250.710238,0.461832791,0.405312739,-0.929727074,-0.0723580867,0.15908666,-0.0945896506
103250.720267,0.285541281,0.256858208,-0.826979816,-0.0390539244,0.0571778752,-0.0782234594
103250.730296,0.0580836479,0.190468796,-0.343320685,-0.0407655351,-0.0069387937,-0.0601174273
103250.740325,-0.17350977,0.101475338,0.250143805,-0.0697441921,-0.0242781043,-0.0333944708
103250.750354,-0.372802508,0.0787450354,0.635914223,-0.096912697,0.00789741054,-0.00752132852
103250.760382,-0.390047365,0.000548281533,0.621937136,-0.123020731,0.040147759,0.00752286846
103250.770411,-0.3652575,-0.0343213718,0.374942151,-0.141181886,0.0496832058,0.0145613365
103250.780440,-0.242020119,-0.068346391,0.187802207,-0.166823864,0.046448797,0.0161576346
103250.790469,-0.0630132133,-0.0852601164,0.0593096826,-0.187267885,0.0414713509,0.00837774295
103250.800498,0.0534092264,-0.0449210917,-0.0610761077,-0.184425503,0.0380883366,-0.00319582224
103250.810527,0.142886376,0.0255021055,-0.076663553,-0.159050629,0.0475007482,-0.011028978
103250.820556,0.202417592,0.0212111303,-0.050814826,-0.122047611,0.0660757571,-0.0178605169
103250.830585,0.182355632,-0.0222422269,0.0484036732,-0.0947946832,0.0938607827,-0.0217617825
103250.840614,0.119278121,-0.0704541769,0.203857854,-0.0846680105,0.121434622,-0.0264894292
103250.850643,0.0238414788,-0.0649836366,0.337976986,-0.0993239209,0.152859926,-0.0328266844
103250.860672,-0.0196168469,-0.16324352,0.440015219,-0.133313581,0.186381668,-0.0222052
103250.870701,-0.0110614922,-0.227591197,0.374755688,-0.164075747,0.206375882,-0.00283070281
103250.880730,-0.0411012412,-0.133688924,0.156047471,-0.177890897,0.208531186,0.00598968659
103250.890759,-0.0733347008,-0.0162847798,-0.0671504592,-0.172412783,0.191662192,0.00929520186
103250.900788,-0.0432557889,0.043527007,-0.20480478,-0.162719399,0.170692995,0.00897961762
103250.910817,-0.0111254974,0.043419455,-0.30567806,-0.147241905,0.137867138,0.00740542309
103250.920846,0.0294756853,0.0919014541,-0.359147785,-0.138452411,0.0986510143,-3.51825729e-05
103250.930875,0.050214522,0.103041272,-0.411329807,-0.130121246,0.0555983558,-0.00661452208
103250.940904,0.0984501451,0.043218964,-0.456587584,-0.111270599,0.0151241636,-0.0084513044
103250.950933,0.106593996,0.0150987849,-0.407416433,-0.0922289938,-0.0115396706,-0.00366720185
103250.960962,0.108730424,-0.00937222398,-0.302264452,-0.0865998715,-0.0244946182,0.00174434157
103250.970991,0.118699737,-0.0188818106,-0.254565128,-0.0889881924,-0.0379422493,0.00515798153
103250.981020,0.148012925,-0.041030514,-0.299646963,-0.0932937264,-0.0606377088,0.00899186824
103250.991049,0.166477679,-0.0759627112,-0.338787718,-0.104426272,-0.089543663,0.017536886
103251.001078,0.189430977,-0.150451258,-0.421416317,-0.118566327,-0.130039155,0.0345281214
103251.011107,0.214441792,-0.18593992,-0.539644053,-0.142427444,-0.176426351,0.0437975191
103251.021136,0.34272272,-0.232771814,-0.59169748,-0.183440134,-0.239268437,0.0587266646
103251.031165,0.386020886,-0.29394846,-0.761715609,-0.202620745,-0.305969179,0.0772082061
103251.041195,0.439914681,-0.160571086,-0.912763664,-0.229808688,-0.38171348,0.0862821341
103251.051224,0.381264632,-0.0740004712,-0.926239232,-0.243306667,-0.451096267,0.0976373181
103251.061253,0.492851322,-0.21051439,-0.895337897,-0.291136742,-0.530611575,0.105476595
103251.071282,0.33853199,-0.0839613088,-0.578476764,-0.320388854,-0.586582363,0.0958981365
103251.081311,0.0795025758,0.308864289,-0.461000139,-0.308738321,-0.594721794,0.068333894
103251.091340,0.0475458873,0.334582668,-0.126630238,-0.305109769,-0.59200722,0.0472275391
103251.101369,-0.0774640557,0.282964709,0.132511112,-0.298668653,-0.577234924,0.0326989293
103251.111398,-0.0675619626,0.219928115,0.386946477,-0.280515462,-0.543991745,0.0316120945
103251.121427,-0.0496437364,0.116087801,0.649002253,-0.258083403,-0.496339858,0.0411379561
103251.131456,-0.36292818,0.159068864,1.08692898,-0.17319569,-0.375118107,0.0339383669
103251.141485,-0.0488651532,0.215555891,1.19469026,-0.151285335,-0.30183509,0.0637788177
103251.151514,-0.0455441921,-0.0136871646,1.20422849,-0.104344711,-0.215859458,0.0804323703
103251.161543,-0.0273550399,-0.0777554399,1.34102064,-0.0920731351,-0.126961008,0.0830425322
103251.171572,0.146567695,0.0379284564,1.45959967,-0.091856353,-0.0308302138,0.0769300461
103251.181601,0.0597837298,0.154983641,1.3429443,-0.0779658332,0.0633628666,0.0498781838
103251.191630,-0.0263712896,0.293128375,1.16910223,-0.0471394844,0.151072741,0.0222441591
103251.201659,-0.248804373,0.483523521,1.07990828,0.0278000031,0.249348983,-0.00933081098
103251.211688,-0.132616619,0.473668482,1.07604576,0.0698238909,0.344652861,-0.0156731289
103251.221717,-0.0339817646,0.311565365,0.866648394,0.13072212,0.412659854,-0.0136970636
103251.231746,0.00119300918,0.198718153,0.707619862,0.171768352,0.461560279,-0.00988821127
103251.241775,0.102678869,0.124105103,0.580563507,0.197775185,0.489071816,-0.00699015893
103251.251804,0.135438398,0.0899871449,0.398548067,0.215723559,0.492044419,-0.00555311702
103251.261833,0.141017659,0.084409637,0.217606978,0.234403774,0.484380394,0.00209415006
103251.271862,0.117719786,0.103591892,0.107760117,0.248922795,0.468331635,0.00532536348
103251.281891,0.0941653074,0.114327805,0.0411281292,0.25829342,0.44763568,0.00723005645
103251.291920,0.145230309,-0.00340016383,0.0394996512,0.241103753,0.419613898,0.00848786719
103251.301949,0.0498494881,0.0281231017,0.0163186821,0.227455586,0.407383084,-0.00549585838
103251.311978,0.0630418548,0.0572609334,0.0250520237,0.218698055,0.409768194,-0.0134230237
103251.322007,0.0766401721,-0.00679448245,0.00314881942,0.199416757,0.413531512,-0.0158129446
103251.332036,0.0605599749,-0.0271188931,-0.0718996996,0.178229183,0.412906736,-0.0168632958
103251.342065,0.0951654243,-0.0135217449,-0.187924372,0.159291983,0.399686277,-0.0181746352
103251.352094,0.11276041,-0.0310042101,-0.29528643,0.128768966,0.376998544,-0.0242924504
103251.362123,0.118341425,-0.0386941801,-0.396561862,0.101275288,0.339010954,-0.0336286947
103251.372152,0.0937178559,-0.0234814134,-0.586142184,0.0858689025,0.287938446,-0.0472108163
103251.382181,0.0760018742,-0.0281406373,-0.691723789,0.0674717873,0.229977414,-0.0607449971
103251.392210,0.168894677,-0.228148246,-0.692456779,0.0340861306,0.157785773,-0.0576109923
103251.402239,0.251428291,-0.494911177,-0.68616557,8.47533811e-05,0.088761434,-0.0426525474
103251.412268,0.121498135,-0.422007269,-0.627540947,-0.0112906722,0.0381970555,-0.0397129506
103251.422297,-0.0868707665,-0.244307354,-0.523282116,0.00176094705,0.0170518253,-0.0469189323
103251.432327,-0.137466689,-0.20913901,-0.436124057,0.0132793849,0.00652674632,-0.0529991947
103251.442356,-0.139331898,-0.282951265,-0.437778838,0.00362995337,-0.0274570528,-0.0576304309
103251.452385,-0.120931441,-0.33948856,-0.372993355,-0.0138481064,-0.0657035038,-0.0507610738
103251.462414,-0.0309586174,-0.30458442,-0.314618907,-0.0273532625,-0.101712376,-0.0383835025
103251.472443,-0.0457990436,-0.188892925,-0.295555895,-0.0131932348,-0.118994422,-0.0204825308
103251.482472,0.00888707081,-0.107715694,-0.166639007,-0.0049619372,-0.116957903,-0.00190618448
103251.492501,0.094267891,-0.044086979,-0.0132744921,-0.00838995725,-0.106777169,0.00848493818
103251.502530,0.13193682,0.0884007525,-0.00801028798,-0.0103889266,-0.0976851434,0.0115766013
103251.512559,0.130637427,0.219333656,-0.0375596231,-0.00833323225,-0.0987125859,0.00571471779
103251.522588,0.134924311,0.317253347,-0.0421995578,-0.00949889794,-0.107223518,-0.0022225678
103251.532617,0.19732553,0.353950801,-0.0278594823,-0.00844295416,-0.114279561,-0.011249885
103251.542646,0.249607506,0.376353771,-0.00036181905,-0.0162121952,-0.118610665,-0.0181706417
103251.552675,0.250941092,0.413597168,0.00385784447,-0.0255937129,-0.124599308,-0.0319785997
103251.562704,0.206804137,0.394234296,0.0155634798,-0.0378410593,-0.127875805,-0.044191055
103251.572733,0.188836518,0.355863941,0.0651940644,-0.0530194789,-0.131750166,-0.0538966842
103251.582762,0.153887078,0.275408594,0.210271813,-0.0804007649,-0.1204051,-0.0610770993
103251.592791,0.156038703,0.219663911,0.345703781,-0.0908848345,-0.0860172957,-0.0634462386
103251.602820,0.177506146,0.236027601,0.37015667,-0.0769458488,-0.0356742367,-0.0611908101
103251.612849,0.214312905,0.21701135,0.334091669,-0.0512822978,0.0153125143,-0.05035441
103251.622878,0.322272344,0.141796243,0.289599032,-0.0240967497,0.0556024127,-0.0293082483
103251.632907,0.431473016,0.0935521439,0.203430569,0.0113858776,0.0795072168,-0.00170405023
103251.642936,0.473411877,0.098255207,0.0908072291,0.0533988401,0.0888285488,0.0259613991
103251.652965,0.475509434,0.118700614,0.056010641,0.101121895,0.0900970101,0.0502981655
103251.662994,0.378480262,0.143982354,0.11092355,0.147200435,0.0965093672,0.0544460379
103251.673023,0.276519186,0.139706577,0.209608381,0.180555984,0.109048061,0.0573360994
103251.683052,0.296526201,-0.0711433282,0.291734291,0.203908443,0.122274384,0.0697517544
103251.693081,0.250102011,-0.173692433,0.39081835,0.213273183,0.133818656,0.0778474957
103251.703110,0.11064824,-0.198538121,0.484340683,0.207976699,0.146810621,0.076519385
103251.713139,-0.100126554,-0.131882751,0.50394204,0.193683773,0.152485549,0.0600791574
103251.723168,-0.366790701,0.000528407788,0.490939935,0.171252504,0.153228834,0.0179748461
103251.733197,-0.660830053,0.112274965,0.402488329,0.169519857,0.164786428,-0.0152094718
103251.743226,-0.633250265,-0.107937228,0.327723888,0.182951763,0.183799535,-0.0126009062
103251.753255,-0.642917672,-0.317379019,0.350765156,0.176298127,0.194827422,-0.00731852651
103251.763284,-0.658016457,-0.37414837,0.379344185,0.145975634,0.201205686,-0.00139112864
103251.773313,-0.596703034,-0.42513563,0.365863357,0.119249232,0.206183136,-0.0017530527
103251.783342,-0.525174213,-0.412085594,0.313774858,0.103745908,0.21188949,0.00222464511
103251.793371,-0.40186026,-0.337414676,0.336956996,0.111459747,0.238009512,0.015326865
103251.803400,-0.275811038,-0.288127791,0.396193613,0.126439497,0.281642467,0.0385032892
103251.813429,-0.138500708,-0.218407773,0.521028199,0.141309783,0.33989352,0.0596487895
103251.823458,0.00145487498,-0.0920376477,0.578707066,0.142031774,0.39460656,0.0697309822
103251.833487,0.239850959,-0.0958633435,0.541869912,0.104121409,0.397722185,0.0677645057
103251.843517,0.369256506,-0.096278354,0.188881234,0.120230608,0.399176806,0.0565728396
103251.853546,0.315245515,0.226551332,-0.301804434,0.200399995,0.397385567,0.0413243771
103251.863575,0.210520819,0.474586766,-0.58741235,0.281866103,0.372797668,0.0204220247
103251.873604,0.0917038857,0.470965069,-0.505083027,0.295553178,0.327501833,-0.0103526656
103251.883633,0.15728578,0.334328985,-0.226457224,0.260523528,0.281362563,-0.0336382799
103251.893662,0.166633454,0.140896079,-0.112092009,0.221540704,0.252294958,-0.0406373329
103251.903691,0.184001646,-0.0122556705,-0.143391403,0.19947429,0.237338126,-0.0295540579
103251.913720,0.177099611,-0.0830886176,-0.187878779,0.175398514,0.225651637,-0.0182310957
103251.923749,0.11610709,-0.0601028788,-0.234047825,0.144447252,0.205001757,-0.0137074497
103251.933778,0.0403135979,0.0434802453,-0.279822904,0.115945578,0.18584244,-0.0225819014
103251.943807,0.0537666615,0.00461480032,-0.274936301,0.0858302861,0.164761662,-0.027267199
103251.953836,0.135290806,-0.102324648,-0.339301513,0.0643699989,0.13076295,-0.0218189061
103251.963865,0.14329145,-0.170008192,-0.389494408,0.0555299036,0.0968310758,-0.0147908237
103251.973894,0.178839733,-0.149554602,-0.406342082,0.064795576,0.0600570813,-0.00504658371
103251.983923,0.0986933062,-0.0637485418,-0.359888958,0.077397123,0.0347772911,0.000319685787
103251.993952,0.0959162427,-0.0211176068,-0.185961548,0.0882726684,0.0178529043,0.00477195857
103252.003981,0.0946025298,-0.0667798723,-0.0405044443,0.101443604,0.0203333739,0.0124437269
103252.014010,0.0609752777,-0.0460392821,0.122791098,0.112869099,0.038544599,0.0233001038
103252.024039,0.021730478,0.00949380453,0.266843595,0.120145649,0.0715438351,0.0231957063
103252.034068,0.0111059159,0.0748702398,0.374491484,0.121092938,0.11026939,0.0224654675
103252.044097,0.0282280234,0.0927343978,0.358050053,0.127262935,0.141909078,0.0200369321
103252.054126,0.0334536491,0.0943535234,0.276117035,0.165006325,0.153618455,0.0155766699
103252.064155,0.0145507957,0.177325237,0.292650821,0.163206026,0.189440101,0.00659595802
103252.074184,0.0365992536,0.0989683238,0.266572377,0.205079064,0.208797529,-0.00569519866
103252.084213,0.0247168004,0.00671966364,0.434612483,0.200671002,0.232561722,-0.0124862585
103252.094243,0.0289598448,0.00526186605,0.663204966,0.198754326,0.274959266,-0.0169776808
103252.104272,-0.114883978,0.1467261,0.621233371,0.261485875,0.353916407,-0.0176037885
103252.114301,-0.103710842,0.227023041,0.583674333,0.357138902,0.459955752,-0.0119829215
103252.124330,0.0859700182,0.0377788188,0.659888389,0.432932198,0.559432268,0.00487648603
103252.134359,0.380072499,-0.303545724,0.59114803,0.500792503,0.635078013,0.047944326
103252.144388,0.635943157,-0.551100682,0.369600205,0.547733366,0.673102915,0.0953680426
103252.154417,0.703201753,-0.522462032,0.0956494085,0.559614241,0.672700524,0.128058076
103252.164446,0.738585493,-0.455879143,-0.369555781,0.554388583,0.615136266,0.151698962
103252.174475,0.500435201,-0.170832367,-0.781010092,0.511776686,0.502178311,0.13478522
103252.184504,0.0868771962,0.341724356,-0.994617187,0.45765087,0.380872637,0.0813142657
103252.194533,-0.149011873,0.555471736,-1.10643973,0.424953908,0.282437414,0.0292617194
103252.204562,-0.18073826,0.341405207,-1.01021866,0.395925194,0.213103071,0.0125804786
103252.214591,-0.0638090398,-0.0496755928,-0.763369806,0.373479784,0.179138452,0.0264377035
103252.224620,0.150281162,-0.461926607,-0.524414335,0.377470553,0.198052481,0.0804170519
103252.234649,0.298637786,-0.582380201,-0.434177599,0.425719291,0.251637697,0.120297626
103252.244678,0.0115942839,-0.150030987,-0.515301638,0.476410449,0.289748073,0.126410112
103252.254707,-0.109488256,0.118579033,-0.592477233,0.50383085,0.307925195,0.120333835
103252.264736,-0.120726859,0.228425309,-0.755372962,0.504092693,0.277654648,0.11362347
103252.274765,-0.166562727,0.311005977,-0.905001213,0.479175597,0.209991962,0.0994274914
103252.284794,-0.136863901,0.395967988,-0.958011503,0.438871056,0.118125424,0.0780766606
103252.294824,-0.126841396,0.42350949,-0.95676881,0.393674552,0.0214329697,0.0559966601
103252.304853,-0.140802263,0.410119847,-0.822804576,0.349814415,-0.0550242551,0.03249906
103252.314882,-0.0558887682,0.312145795,-0.637957712,0.307694912,-0.119572885,0.0173065253
103252.324911,0.00204305013,0.158079269,-0.509866754,0.272342265,-0.179054856,0.0175238382
103252.334940,0.0272955648,0.0940612625,-0.359792512,0.232748777,-0.237347186,0.0117463768
103252.344969,0.079558836,0.0432107807,-0.15910452,0.184814811,-0.290053517,0.00979880616
103252.354998,0.109121031,-0.0330348391,0.00777647922,0.141506746,-0.341332436,0.00552629726
103252.365027,0.121140408,-0.0727162766,0.194016844,0.104365773,-0.371808052,0.0089063812
103252.375056,0.118294079,-0.0598754998,0.420782695,0.0805959925,-0.369963288,0.0075257984
103252.385085,0.116680798,-0.0361462491,0.645397506,0.0677912533,-0.342156142,0.00659022992
103252.395114,0.077178809,-0.0428963079,0.850587486,0.0483235456,-0.299952507,-0.00265440065
103252.405143,0.0482695254,-0.0395364761,1.06087333,0.025097318,-0.255037218,-0.00521529652
103252.415172,0.0514022705,-0.0657931994,1.13725514,0.00921901874,-0.214703932,-0.00434204657
103252.425201,0.0510100563,-0.0791021783,1.18968909,0.00253608264,-0.172545552,-0.00215159636
103252.435230,0.0609933979,-0.0815261906,1.25388187,-0.0124101099,-0.137216598,0.00310441852
103252.445259,0.070188804,-0.0910141499,1.27560212,-0.0351606943,-0.104580618,0.000855645165
103252.455288,0.0456961678,-0.0493710569,1.18401748,-0.0507878587,-0.0847848132,-0.00473006908
103252.465317,0.0593766103,-0.020574586,1.07367143,-0.0439549834,-0.0659927502,-0.0150117353
103252.475346,0.0675020491,-0.0605985533,1.02919633,-0.0351606943,-0.0483698137,-0.0210483223
103252.485375,0.110056119,-0.12083295,0.972560838,-0.0218805764,-0.0331666246,-0.0195777249
103252.495405,0.126072312,-0.184765031,0.943970119,-0.0177374966,-0.0119849071,-0.0124409851
103252.505434,0.129441496,-0.219816471,0.996847138,-0.0287310258,0.0196273476,-0.00816155225
103252.515463,0.38720279,-0.437753704,0.892061652,-0.0985937342,0.0363735706,0.00781981181
103252.525492,0.274008957,-0.52882163,0.638860798,-0.134037748,0.00809106696,0.00943688303
103252.535521,0.285574307,-0.353172802,0.532699933,-0.201311588,-0.0151042668,-0.0029984815
103252.545550,0.294881064,-0.276533799,0.409931631,-0.251110315,-0.0528734848,-0.0198395122
103252.555579,0.285569338,-0.25372517,0.214975461,-0.294575214,-0.116766714,-0.029529158
103252.565608,0.302904796,-0.274417245,0.169390936,-0.347842962,-0.177302763,-0.042996496
103252.575637,0.290624284,-0.23135201,0.202691149,-0.408196062,-0.236682728,-0.0497476123
103252.585666,0.230819803,-0.140745272,0.229925192,-0.484000802,-0.282595336,-0.0553647466
103252.595695,-0.366176076,0.694374011,-0.500593314,0.12902239,0.0684931576,-0.0624937676
103252.605724,-1.5259622,3.15348566,-1.98351074,0.633815527,0.338439167,-0.029299859
103252.615753,-1.37288351,1.93438693,-0.602263298,0.707998633,0.409284055,-0.110794187
103252.625782,-0.98226244,1.16066641,-0.210415605,0.481156468,0.35008356,-0.160625383
103252.635811,0.00352028308,-0.103619949,-0.0850280612,0.175583765,0.206221461,-0.173054621
103252.645840,0.30718262,-0.740532536,-0.569889553,-0.0202472601,0.0748543814,-0.140049279
103252.655869,0.552410303,-0.762238171,-0.979058383,-0.0980627015,-0.00411606487,-0.0874417275
103252.665898,0.609536504,-0.613807605,-1.31517016,-0.0960272476,-0.0767668337,-0.0370440669
103252.675927,0.555692393,-0.494496166,-1.37396137,-0.117550112,-0.164561406,-0.00885503925
103252.685957,0.531608922,-0.365164268,-1.23200731,-0.158149198,-0.264889866,-0.000147034414
103252.695986,0.398722255,-0.196923087,-1.11330553,-0.193360448,-0.365637243,-0.00483499747
103252.706015,0.263381764,0.0322907428,-0.984827614,-0.200247124,-0.443880647,-0.0163334608
103252.716044,0.0933914004,0.211787478,-0.752838475,-0.201833829,-0.493000776,-0.0295477994
103252.726073,0.0288119607,0.2270435,-0.390283512,-0.230838582,-0.51552844,-0.0397298634
103252.736102,0.0459665091,0.151544314,0.0164490305,-0.271250457,-0.523719311,-0.0480826013
103252.746131,0.051798284,-0.0184691381,0.178860191,-0.28942892,-0.515765488,-0.038353011
103252.756160,0.0182078569,-0.0166319858,0.376610961,-0.291323245,-0.484602779,-0.0312713981
103252.766189,-0.00576718522,-0.0360065484,0.569163577,-0.273661941,-0.425518155,-0.0203913208
103252.776218,0.0149669752,-0.0923299087,0.708596598,-0.254983604,-0.360593736,-0.0126694851
103252.786247,0.00524170005,-0.120689742,0.805554166,-0.241402283,-0.297193468,-0.00387519412
103252.796276,-0.0169362295,-0.0408475587,0.822502378,-0.205782503,-0.224578664,-0.00740841031
103252.806305,-0.0488198527,-0.0209796597,0.756331578,-0.156919897,-0.159196734,-0.00918899849
103252.816334,-0.0568108515,0.0216395849,0.715614952,-0.100421458,-0.0944113433,-0.0118670743
103252.826363,-0.0282438054,0.04110884,0.638439942,-0.0458769873,-0.0340462662,-0.0114007555
103252.836392,-0.00181523273,0.0072393036,0.621076135,0.0071204477,0.0210329629,-0.00465337001
103252.846421,0.0134717683,-0.00284603708,0.596034048,0.0464635938,0.0707864016,0.00391109008
103252.856450,-0.0154597272,0.013697686,0.594060118,0.0704362988,0.121865831,0.0132249631
103252.866479,-0.0275406256,0.0532674798,0.533544567,0.0795272663,0.162310198,0.0188932344
103252.876509,-0.0858522371,0.0446405212,0.476851789,0.0698844939,0.188490927,0.0190040227
103252.886538,-0.099114162,0.0283154094,0.428192679,0.0531561188,0.21438086,0.0164639
103252.896567,-0.0984133202,0.0223971252,0.306443784,0.0525726192,0.232836023,0.018158203
103252.906596,-0.104762689,0.00923486134,0.245540695,0.0587183982,0.242664158,0.0156620219
103252.916625,-0.0331686946,-0.0041682256,0.225030991,0.0624785163,0.246816292,0.0115186758
103252.926654,-0.0100131522,-0.00386602778,0.173169286,0.0704397634,0.245456487,0.00432627695
103252.936683,0.0219955587,0.00540273583,0.137130004,0.0854336247,0.242727011,0.00363545306
103252.946712,0.10818185,0.0726800363,0.0124766197,0.113626651,0.23145172,0.00413452927
103252.956741,0.0608466829,0.162949505,-0.115719552,0.136378571,0.210527524,-0.00194946211
103252.966770,0.20080665,0.0812976425,-0.169371063,0.162727088,0.197853804,0.00873727072
103252.976799,0.138528765,0.160215112,-0.0993845033,0.12484096,0.161601529,-0.0104976762
103252.986828,0.0186693369,0.217218271,-0.0517161587,0.107951455,0.159407616,-0.0240960419
103252.996857,0.102996849,0.190042679,-0.111703302,0.0969065279,0.166535839,-0.0289645679
103253.006886,0.10569997,0.0714390963,-0.11762977,0.0681848675,0.157033414,-0.0254183039
103253.016915,0.0948240636,-0.0363712901,-0.140226217,0.0316990279,0.146116838,-0.0275632143
103253.026944,0.0712403589,-0.0144821143,-0.157675949,0.00598647399,0.122033082,-0.0325497165
103253.036973,0.0563978868,0.00801321059,-0.218479085,-0.00512636453,0.101815425,-0.0384811088
103253.047001,0.059935121,0.00899812997,-0.212592949,-0.00455032289,0.0763801113,-0.0435395166
103253.057030,0.0619090514,0.0169616562,-0.232730898,-0.00630507991,0.0375938304,-0.0541258492
103253.067060,0.150206636,-0.0701999099,-0.17640403,0.00933752954,0.0260437001,-0.0404262803
103253.077089,0.244813257,-0.0815776285,-0.126992641,0.0365293324,0.0129000396,-0.0289012976
103253.087118,0.157743753,0.0397433968,-0.146929514,0.0715626851,0.00376646151,-0.0229440704
103253.097147,0.163693602,0.0521849453,-0.0860965672,0.0864942297,0.00558619946,-0.0218319353
103253.107176,0.193045076,0.015714871,-0.0318920988,0.0835666209,0.00308708893,-0.0191293601
103253.117205,0.137859195,-0.0187935478,-0.104085813,0.0699868947,-0.00865931623,-0.0163719226
103253.127234,0.103415074,-0.0130792618,-0.122937813,0.0554140732,-0.0166935399,-0.014554847
103253.137263,0.0896823168,0.0208726922,-0.139708915,0.0253083706,-0.0266412459,-0.0180774108
103253.147292,0.13039602,-0.0513806431,-0.131568279,-0.0130454116,-0.0391024426,-0.0187647734
103253.157321,0.153871588,-0.102923199,-0.23134675,-0.0389065705,-0.0635409355,-0.016129043
103253.167350,0.0968225439,0.00403787721,-0.316053324,-0.0473096408,-0.0846590102,-0.0221416615
103253.177379,0.102480131,0.0751736067,-0.326316944,-0.0493144691,-0.107701473,-0.0331061631
103253.187408,0.0968733973,0.0490203438,-0.306028189,-0.0600669831,-0.141446382,-0.0437284447
103253.197437,0.0577662525,0.056075523,-0.252536837,-0.0641562641,-0.174948692,-0.0561718009
103253.207466,0.0748573803,0.0297428118,-0.103787122,-0.06273707,-0.187251955,-0.0545307584
103253.217495,0.0352414093,0.0198468562,0.0799836373,-0.0617495663,-0.192487463,-0.0556439646
103253.227525,-0.0102978144,0.055903089,0.186197694,-0.0466286726,-0.174926326,-0.0538892038
103253.237554,0.0373448113,0.0267687645,0.3412129,-0.041976396,-0.150896087,-0.0501775555
103253.247583,0.0553951395,-0.0437210683,0.414128498,-0.0368354283,-0.115781769,-0.0426663756
103253.257612,0.110189098,-0.0860726018,0.35744215,-0.0186718702,-0.090489462,-0.0284906365
103253.267641,0.0726361971,-0.0347813905,0.290239668,-0.00813800376,-0.0682589933,-0.016148217
103253.277670,0.0455664039,0.0457055201,0.225935831,-0.00789405871,-0.0540707372,-0.0163586065
103253.287699,0.0489732897,0.0883808788,0.10572189,-0.0118397987,-0.0563709103,-0.0205616076
103253.297728,0.0426458403,0.124914081,-0.0100683895,-0.017527245,-0.0642072633,-0.0248594172
103253.307757,0.0406973366,0.134607792,-0.0821826086,-0.0225358512,-0.076647684,-0.0329397134
103253.317786,0.0514259436,0.0809995363,-0.107917354,-0.0339917056,-0.0911392793,-0.033820156
103253.327815,0.0524605473,0.0369289239,-0.0701788671,-0.0494276546,-0.104734182,-0.0342936665
103253.337844,0.0368418302,0.0036555999,-0.0459603717,-0.0621487759,-0.11441797,-0.0360345729
103253.347873,-0.0445616108,0.0491284803,-0.0116875152,-0.0635229647,-0.12114165,-0.0407177433
103253.357902,-0.00438975939,-0.0229652805,0.089106855,-0.0569737218,-0.10983786,-0.0331916474
103253.367931,0.100374976,-0.14020985,0.133921564,-0.04859595,-0.0983314067,-0.0199293736
103253.377960,0.0595288783,-0.11250702,0.121763508,-0.0414794497,-0.0995498076,-0.0167389065
103253.387990,0.0347676543,0.0010895488,0.201454885,-0.0263396446,-0.0776442438,-0.0151165091
103253.398019,0.0388403105,0.052752516,0.23802725,-0.0189461764,-0.061183773,-0.0166755226
103253.408048,0.0233747381,0.0294072963,0.192453832,-0.00630601589,-0.0425765328,-0.00951694511
103253.418077,0.0883548675,0.0114998837,0.200514389,-0.0118073076,-0.0305323917,-0.00556827709
103253.428106,0.0756724961,0.0510632478,0.1670207,-0.0195198208,-0.0287869554,-0.00781971402
103253.438135,0.0793321877,0.0679079996,0.108770171,-0.0203557871,-0.0269786678,-0.0114964731
103253.448164,0.066136606,0.0709855073,0.0574900659,-0.0169229731,-0.0237703584,-0.0159215815
103253.458193,0.0579117985,0.0645575201,0.0241869313,-0.0160529185,-0.0194344651,-0.0181258805
103253.468222,0.0867982857,-0.0125625445,-0.00623275691,-0.0195698887,-0.0266926456,-0.0164981559
103253.478251,0.081136899,-0.0749666859,-0.0162163908,-0.0213938877,-0.0313899256,-0.00879762694
103253.488280,0.0441685198,-0.0704097533,0.00529576832,-0.0307256039,-0.0310370605,-0.00649665482
103253.498309,0.003057634,0.0147229374,0.00580430236,-0.0327823646,-0.0322213657,-0.00806951709
103253.508338,-0.00910480521,0.0420633642,0.00554009847,-0.0333317742,-0.0368510038,-0.0103872679
103253.518367,0.0364157137,0.00277940159,0.0471650713,-0.0309522394,-0.0384459719,-0.0099675525
103253.528397,0.0810971515,-0.00903846198,0.0900654709,-0.0212082658,-0.0345074236,-0.0052361805
103253.538426,0.0681695731,0.0144131408,0.0786632023,-0.0104062185,-0.0279741585,-0.00802690722
103253.548455,0.0736851217,0.0444078815,0.0935772784,0.00607342226,-0.0207442082,-0.00544124469
103253.558484,0.0695785631,0.0381114117,0.129485043,0.0169748068,-0.012878295,-0.00533258729
103253.568513,0.0695104663,0.0225181213,0.163697693,0.0259363428,-0.000655983808,-0.00481007528
103253.578542,0.0590337882,0.0160422033,0.15357319,0.0300485305,0.00871567987,-0.00314373523
103253.588571,0.0137938398,0.020495091,0.138800568,0.0305044632,0.0190346297,-0.00437784381
103253.598600,0.0153787709,0.0188806416,0.169955,0.0257733576,0.0280385111,-0.00141853932
103253.608629,0.00881780497,0.00637538025,0.118987029,0.0197242536,0.0260454006,0.00015219301
103253.618658,0.0370332611,-0.0349134925,0.0869067146,0.0206334572,0.0245881192,0.00423961226
103253.628687,0.0460968575,-0.00458908136,0.0482329928,0.021735739,0.0209632907,0.00778028509
103253.638716,0.0368611194,0.0268354,0.0317705183,0.0304139163,0.0194058735,0.00841518305
103253.648745,0.0254722949,0.0611515111,0.0900584566,0.0279696677,0.0261109155,0.00940161757
103253.658774,0.0304912921,0.0563069936,0.112468441,0.0321694687,0.034620516,0.0131622674
103253.668803,0.0251364871,0.0321884514,0.120657008,0.0396135375,0.0412099734,0.0142056942
103253.678833,0.0568193271,0.0167886377,0.105211602,0.0460727699,0.0447461195,0.0148608312
103253.688862,0.0466106523,0.0483510662,0.10252397,0.0555485636,0.04374424,0.0102327904
103253.698891,0.0644447074,0.0431324548,0.121626146,0.0588189252,0.0462609269,0.00982585922
103253.708920,0.0925681013,0.004900047,0.159923435,0.0629247203,0.0535590537,0.011062365
103253.718949,0.0689385117,-0.00856850638,0.0901712693,0.0709648058,0.058195617,0.0108061684
103253.728978,0.0555970918,0.0141787475,0.0528372717,0.0689503923,0.0596142821,0.00943970121
103253.739007,0.0310638313,0.0255108734,0.0421253235,0.0621449463,0.0586081408,0.00615575677
103253.749036,0.0373930343,0.00821019446,0.0378466233,0.0560564287,0.0572049208,0.00517890928
103253.759065,0.0465320341,0.0304161811,-0.0112958855,0.0543991402,0.0543683879,0.00538184214
103253.769094,0.0354503758,0.0435498034,-0.0418809934,0.0520587564,0.0493640415,0.00538690202
103253.779123,0.0437710449,0.0534621256,-0.0423299062,0.0466365591,0.0422486067,0.00527132116
103253.789152,0.0825923585,0.0109182844,-0.00410334367,0.0361386463,0.0301597193,0.0063264654
103253.799181,0.106802963,-0.00607785861,0.00511690462,0.0311417598,0.0214818083,0.00867031328
103253.809211,0.0841480635,0.000282324073,0.036356677,0.0264460724,0.0221571866,0.0119867483
103253.819240,0.0609817074,0.0102490068,0.0468722258,0.0264519323,0.0225838237,0.00941333547
103253.829269,0.0432747858,0.0713654466,0.0432896912,0.0303859524,0.0232650619,0.00726522971
103253.839298,0.0118467974,0.082512279,0.0196603938,0.0392779782,0.0212378632,0.0024904483
103253.849327,0.0625792058,0.0392097284,0.0534814148,0.0487026386,0.0218826141,0.00636428222
103253.859356,0.0598877747,0.0292512289,0.0902051716,0.0598591529,0.0299799554,0.00741809513
103253.869385,0.0397702849,0.0283282689,0.143410692,0.0648501888,0.0376972668,0.0077885408
103253.879414,0.0639326662,-0.0190022221,0.17315175,0.0621750392,0.0468159281,0.00754459528
103253.889443,0.082531276,-0.0248719909,0.197428113,0.0525160208,0.0555329882,0.00656721555
103253.899472,0.0544148963,-0.000294014511,0.164492059,0.0496589802,0.0615464039,0.00427396735
103253.909501,0.0344961438,0.0354331324,0.0748269852,0.0557938404,0.0655126497,0.00242093997
103253.919530,0.0247986334,0.0669949764,0.0165583361,0.0623649247,0.0643557757,6.13788143e-05
103253.929560,0.0479100444,0.0311409882,0.00624795448,0.0634594858,0.0597540997,0.00021557603
103253.939589,0.0649412587,-0.012269699,-0.00675648852,0.0651255623,0.0497304909,0.00578637654
103253.949618,0.0287178527,-0.00701893885,0.00935819545,0.0681615621,0.0445210822,0.00521060079
103253.959647,0.0303717574,0.00929448257,0.0515828877,0.0739765763,0.0424142554,0.00578078348
103253.969676,0.032218262,0.0111170218,0.134873165,0.0733366162,0.0493477955,0.00728147523
103253.979705,0.0562432807,-0.0102583592,0.133179221,0.076533474,0.0559875891,0.0102290614
103253.989734,0.072951839,-0.0232370832,0.159209734,0.0770959333,0.0656660497,0.0142581575
103253.999763,0.0395373529,0.0501601614,0.200320912,0.0755371898,0.0885665715,0.0109012434
103254.009792,0.0101905546,0.115470546,0.150178871,0.0778892934,0.100836024,0.00425532507
103254.019821,0.00217997439,0.123810504,0.0644704263,0.0737099946,0.100739613,-0.0040880926
103254.029850,0.0790177149,0.0604956775,0.0419604884,0.0626344383,0.095882006,-0.00792544149
103254.039880,0.128171622,-0.00209200384,-0.000733574972,0.0576703027,0.0851595923,-0.00574857276
103254.049910,0.0953013257,0.0153191497,-0.0559305615,0.0599148162,0.0735751018,-0.0111001953
103254.059939,0.045843175,0.0656119976,-0.0569797783,0.0588351674,0.0655986741,-0.0137585625
103254.069968,0.0437955948,0.0166512751,-0.00633738633,0.0448378623,0.0559148863,-0.0172036272
103254.079997,0.0464814729,-0.0108504798,-0.0109779056,0.0309790373,0.0463981256,-0.0176983289
103254.090026,0.046395256,-0.0194897134,-0.0307528657,0.0253059715,0.0374195427,-0.016197104
103254.100055,0.0375982015,-0.0141986212,-0.0247907424,0.0255102348,0.0370730646,-0.0121797277
103254.110084,0.0473445195,-0.0046276598,-0.0128828624,0.024085179,0.0344399996,-0.0104758358
103254.120113,0.0711190706,-0.0119207394,0.0295808993,0.0159718581,0.0348756909,-0.0119914422
103254.130142,0.12289222,-0.0341617973,0.00759644648,0.0144730303,0.0376099572,-0.0125483079
103254.140171,0.12942133,-0.019919337,-0.0774959121,0.0150754368,0.0292183384,-0.0122268656
103254.150200,0.134681734,0.0243184487,-0.124138421,0.0157881007,0.0185100343,-0.0139171733
103254.160230,0.115607032,0.0232318225,-0.0873006823,0.00170770008,0.00293613411,-0.0188424252
103254.170259,0.0996165585,0.0117442138,-0.067478376,-0.00956253149,-0.0141645558,-0.0168120302
103254.180288,0.0790662302,0.0298299056,-0.0539537085,-0.0139136035,-0.0210043527,-0.015070322
103254.190317,0.0471717933,0.0617068069,-0.00472585948,-0.0107894493,-0.0234994683,-0.0126271388
103254.200346,0.0762710465,0.088241178,0.050361237,-0.00669830106,-0.0195979364,-0.00648588873
103254.210375,0.069715049,0.0655237348,0.0657207187,-0.000325889559,-0.0190759581,-0.00351406727
103254.220404,0.0612459113,0.0738777216,0.0646592269,0.0119313085,-0.0167744532,-0.000865553506
103254.230433,0.0513055321,0.0865782133,0.0511146857,0.0289473105,-0.0130931661,-0.00187888648
103254.240462,0.0539747513,0.0599023878,0.0475543629,0.0416418016,-0.0106313396,-0.00335933734
103254.250491,0.0726680536,-0.00638882425,0.0770960992,0.039188765,-0.0124119297,-0.00116595812
103254.260521,0.117960317,-0.0900187091,0.0874888984,0.0333865359,-0.0172021575,0.00558195915
103254.270550,0.153989954,-0.139547002,0.0408738622,0.0196326394,-0.0193025917,0.0116481073
103254.280579,0.124828449,-0.113793552,-0.0669786098,0.0103187654,-0.0279213805,0.0192983039
103254.290608,0.079482702,-0.028024902,-0.185393977,0.00263128453,-0.0461062416,0.0179203842
103254.300637,0.0433189172,0.0265916543,-0.228159936,-0.00468175579,-0.0652165487,0.0117586292
103254.310666,0.0539773816,0.0183037185,-0.238480255,-0.0140432995,-0.0872893631,0.00866723154
103254.320695,0.0774719467,-0.0271779298,-0.217320562,-0.0244831573,-0.110660464,0.00946724508
103254.330724,0.11896131,-0.0501525627,-0.228487269,-0.02744033,-0.128507107,0.0158399232
103254.340753,0.140462948,-0.0183691849,-0.234279296,-0.0314830095,-0.151072606,0.0181350354
103254.350782,0.145736797,-0.0238484931,-0.196617966,-0.0386647545,-0.174037576,0.0193007011
103254.360811,-0.0970890859,0.0426262588,-0.142923785,-0.0493954308,-0.17816627,-0.00803052168
103254.370841,-0.522304211,0.299390943,0.368978274,-0.104858957,-0.167257965,-0.0328996517
103254.380870,-0.101330377,-0.13529519,1.00413729,-0.188134938,-0.133388415,-0.03388156
103254.390899,-0.0100426706,-0.230480488,0.485606757,-0.112142436,-0.0624391474,0.00731088361
103254.400928,0.139713299,-0.213320095,-0.0293447524,-0.0366109274,-0.0318519399,0.0473264791
103254.410957,0.289182268,-0.314601371,-0.0428004463,-0.0325935483,-0.0510514677,0.0670458525
103254.420986,0.233587807,-0.00776712687,-0.105100543,-0.0243622493,-0.0666831508,0.057785511
103254.431015,0.105797001,0.267239901,-0.212798117,-0.0094192531,-0.086684294,0.0345781893
103254.441044,0.104081721,0.22623043,-0.138873049,-0.0209526047,-0.104555704,0.016921699
103254.451073,0.182657245,0.077493574,-0.0547235238,-0.0319016576,-0.113020025,0.0104598049
103254.461103,0.130255735,0.0645721332,-0.0643541065,-0.0409239158,-0.116852045,0.00425756956
103254.471132,0.0897308321,0.0895072524,-0.0239566296,-0.0526990816,-0.122332305,-0.00111003127
103254.481161,0.0447357983,0.0966413421,0.00377425784,-0.0602009408,-0.12743412,-0.0117624095
103254.491190,0.0405012295,0.0656926616,0.0608978286,-0.0595447384,-0.125393331,-0.0158863142
103254.501219,0.0437418188,0.0647404755,0.10662673,-0.0491514839,-0.117337808,-0.0182860903
103254.511248,-0.0141997903,0.061297057,0.197810975,-0.0330401585,-0.0974882022,-0.0175459981
103254.521277,-0.0231473591,0.021936522,0.337792862,-0.0338212661,-0.0772668198,-0.0142697757
103254.531306,0.0130567577,-0.0525783285,0.43238487,-0.0395558476,-0.0571184158,-0.00662889984
103254.541335,0.048833589,-0.103593061,0.334966114,-0.0186423119,-0.0316138528,0.00196911488
103254.551364,0.0227884627,-0.0488870728,0.254044904,0.00118119339,-0.0111493245,0.00595080713
103254.561394,0.00361526789,-0.00264613059,0.222205412,0.0136658261,0.0028831372,0.00290867826
103254.571423,-0.00197393042,0.0223398421,0.1657745,0.0245621502,0.0128830411,0.00274942117
103254.581452,0.00793196204,0.0215162508,0.0864414351,0.0302482657,0.0112838121,0.0052506621
103254.591481,0.0189770877,0.0229214414,0.0849310306,0.0273635294,0.0111794164,0.00683071557
103254.601510,0.0431634344,0.037772389,0.0717564917,0.0261587147,0.0190336108,0.00607251376
103254.611539,0.0275584535,0.0621048663,0.0138017309,0.0327236727,0.0190903358,0.0067691966
103254.621568,0.0562725068,0.0730225661,0.00532382537,0.0198073424,0.0139360549,0.00122476183
103254.631597,0.0763601861,0.039894788,0.0172843123,0.00278015505,0.00488956273,-0.00240193121
103254.641626,0.100491003,0.00736029963,0.0238975929,-0.00471025147,-0.00124769181,-0.00434497371
103254.651656,0.0999140802,-0.00109948567,-0.0518739796,0.00363662769,-0.00318647316,-0.00459238142
103254.661685,0.0438096234,-0.00395312154,-0.0916693989,0.00651337439,-0.0104779424,-0.00430982001
103254.671714,0.0616015929,-0.0202723882,-0.0345125105,-0.00913962163,-0.0200911537,-0.0065540662
103254.681743,0.0507265632,-0.0267483062,-0.03616963,-0.0149740744,-0.0328572839,-0.00736925844
103254.691772,0.0501812042,0.0217266786,-0.0295171864,-0.0120555162,-0.0390962698,-0.00534898508
103254.701801,0.0638952568,0.031844168,-0.0155856917,-0.00625275448,-0.0427024588,-0.00627390109
103254.711830,0.056055357,0.0199929867,0.0231757084,-0.0127918804,-0.0473715104,-0.00582515821
103254.721859,0.0407400067,0.0136889181,0.0532189645,-0.0227622222,-0.0517556071,-0.00608162116
103254.731888,-0.0182902745,0.0444260017,0.117552028,-0.0274437927,-0.0532155521,-0.00535617582
103254.741918,-0.0380301632,0.0977104326,0.171117614,-0.022412017,-0.0406584814,-0.00573967118
103254.751947,0.0148363346,0.0678109689,0.185132111,-0.0105425743,-0.0297885239,-0.00589093845
103254.761976,-0.00493394927,0.0208119019,0.163327691,0.00199452252,-0.0214307252,-0.00377772003
103254.772005,0.0116889765,0.046570028,0.240725403,0.00489630317,-0.00579450699,-0.00404669903
103254.782034,0.0526405801,0.0113753805,0.246858207,0.0138999177,0.0100417137,-0.00150444545
103254.792063,0.0207905668,-0.00589022708,0.175084764,0.0349809676,0.0244089346,0.00132862478
103254.802092,0.0581760024,0.0318517668,0.191960496,0.0448991135,0.0416068323,0.00118135195
103254.812121,0.0701771136,0.0407084425,0.175288178,0.0519202724,0.0482397005,0.00408765953
103254.822150,0.0668874244,0.0434159479,0.156252053,0.0498675071,0.0543993264,0.000606908463
103254.832180,0.0642591217,0.0478191513,0.105063718,0.0544457473,0.0539255477,-0.0018559834
103254.842209,0.038159927,0.0318646263,-0.00526011249,0.0595835187,0.0473635197,-0.00483259838
103254.852238,0.0837348065,-0.00867021319,0.00181669403,0.0547711849,0.0451767966,-0.00875996146
103254.862267,0.0174678522,-0.0234258838,-0.0296498729,0.0545578673,0.0346043147,-0.00843505654
103254.872296,0.0475865116,-0.0491869325,-0.00542260957,0.0374822095,0.0301376618,-0.00784276891
103254.882325,0.0357788771,-0.0367921458,-0.0128805244,0.0337750912,0.0255029611,-0.0027832957
103254.892354,0.0437508789,-0.0391577059,-0.0904950944,0.0348289013,0.02452638,0.00196858263
103254.902383,0.0366954075,0.00365618442,-0.0821048672,0.0215788763,0.0181222782,0.000781611539
103254.912413,0.0808650963,-0.0205628956,-0.0823024356,0.00490109669,0.00365891587,0.00537982583
103254.922442,0.090063425,-0.0239829331,-0.118605921,-0.0103015583,-0.0143797398,0.000846059993
103254.932471,0.100761637,0.00197685303,-0.192054019,-0.0136241186,-0.0287181977,-0.00558068044
103254.942500,0.0890033946,0.00800327371,-0.246173732,-0.0130637893,-0.0520000868,-0.00151190255
103254.952529,0.107110129,-0.0313432328,-0.196229259,-0.0240266901,-0.0752404258,0.00140559021
103254.962558,0.136660926,-0.0320534269,-0.126892103,-0.0360649787,-0.0916516185,0.00198722444
103254.972587,0.119223176,0.014980127,-0.174475692,-0.0305684805,-0.110223971,0.00244129356
103254.982616,0.107706341,0.0594651654,-0.179947402,-0.02971467,-0.129506588,0.00268950034
103254.992645,0.10569997,0.0521159717,-0.0855313346,-0.0338100791,-0.138079301,-0.00134518929
103255.002675,0.112183195,0.0505728339,0.0106897363,-0.0424970463,-0.142891377,-0.00263762102
103255.012704,0.0685509737,0.013805238,0.0608639263,-0.043681886,-0.141215444,-0.00153507199
103255.022733,0.0711702162,0.026477088,0.115963882,-0.042538058,-0.133928776,-0.00589333568
103255.032762,0.0473509492,-0.00144902976,0.110633627,-0.0283577889,-0.123167738,-0.00752132479
103255.042790,0.0270075417,-0.042016018,0.184305013,-0.0264352541,-0.10245873,-0.00738870073
103255.052819,0.0385869203,-0.0786047502,0.238639829,-0.0218708627,-0.0822685063,-0.00639480818
103255.062848,0.0208168703,-0.0550713144,0.179023857,-0.0122547206,-0.067537494,-0.00394896138
103255.072877,0.027570144,-0.0194312612,0.167700499,-0.000763446908,-0.0523545519,0.00263969926
103255.082907,0.0216261409,-0.017035306,0.151828976,0.00249578548,-0.0443245694,0.00713059213
103255.092936,0.0418488447,-0.00244914672,0.141544898,0.000610267452,-0.0386280678,0.0109050907
103255.102965,0.050650283,0.0340834714,0.139426006,0.00407211063,-0.0320745595,0.0112547632
103255.112994,0.0270914205,0.0768196203,0.0737140555,0.0126549462,-0.0306628197,0.00722753117
103255.123023,0.0479088754,0.104831663,0.0566875174,0.0130834486,-0.0292473473,0.004440533
103255.133052,0.0604728811,0.0770084209,0.061524436,0.0106221549,-0.0345893838,0.00181865087
103255.143081,0.0810953979,0.0548790067,0.0363011474,0.00917845592,-0.0398983955,0.00508368667
103255.153110,0.0722673638,0.0237608148,0.0312368498,0.00907565746,-0.0437093787,0.00722992793
103255.163140,0.0499397967,0.0110375268,-0.000156651866,0.0202082023,-0.0519579872,0.011984203
103255.173169,0.0363549235,0.0471563035,5.8452189e-07,0.019003123,-0.0597770289,0.00899773464
103255.183198,0.0387058705,0.0371773457,0.0881271963,0.0158004053,-0.0583027005,0.00873914175
103255.193227,0.0654521309,0.0307224705,0.119765028,0.0214399137,-0.0549369976,0.0121983215
103255.203256,0.0313970088,0.0405032753,0.0703302583,0.0362545475,-0.0528525412,0.0143906353
103255.213285,0.00766834267,0.0877513487,0.122284317,0.0431971401,-0.0395279489,0.0137842335
103255.223314,0.0230687409,0.077612232,0.183552733,0.0374385901,-0.0275114998,0.013881173
103255.233343,0.00504851556,0.0238081611,0.162260938,0.0375126228,-0.0197893977,0.0153770708
103255.243373,0.0827624544,-0.0157370828,0.162729141,0.0365160704,-0.0072765355,0.019610431
103255.253402,0.0308425898,0.0240483996,0.0718459235,0.0528737381,-0.00383945927,0.0251386203
103255.263431,0.0781637284,0.0214917008,0.122186702,0.0489058942,0.00964598916,0.021620851
103255.273460,0.0753399031,-0.00118891752,0.123547469,0.0516489483,0.0068374197,0.0239340737
103255.283489,0.0457227635,-0.0394552276,0.061083122,0.0559515543,0.00601104088,0.0224533565
103255.293518,0.0894812412,-0.0255897838,0.0998515363,0.0608515032,0.018353194,0.0232083611
103255.303547,0.0427674208,-0.0600543635,0.0180868608,0.0730394572,0.0217287503,0.0260422304
103255.313576,0.00185965639,-0.0146311674,0.0147866502,0.0792699233,0.0265037976,0.0237524454
103255.323606,-0.00755260734,0.022363223,0.114959089,0.0742698386,0.0352605395,0.0208738334
103255.333635,-0.00749357063,-0.00218085117,0.14074761,0.0685802624,0.0444183499,0.0240909345
103255.343664,-0.00958878934,-4.96843606e-05,0.224636438,0.0575694218,0.0558720753,0.0215918235
103255.353693,-0.0315028072,0.0496557191,0.243179226,0.0662731677,0.0771259665,0.0228610858
103255.363722,0.00279226107,0.0538636921,0.225690916,0.0620930716,0.0926884115,0.0200394653
103255.373751,0.0601484715,0.0358142407,0.294456409,0.0524092838,0.107209563,0.0152034322
103255.383780,0.0830053232,0.0146890351,0.235420283,0.0579433292,0.121382639,0.019602973
103255.393809,0.0746931297,0.0375923563,0.130890818,0.0764523,0.13289842,0.0244416706
103255.403839,0.0443754406,0.0723439362,0.111513333,0.086857006,0.144473583,0.0213207137
103255.413868,0.0783785402,0.0297398892,0.102298929,0.086456731,0.14501527,0.0230909176
103255.423897,0.0766407566,-0.0157785839,0.0685831224,0.0816891417,0.141038105,0.0229913145
103255.433926,0.0970233272,-0.0208230078,0.00740355425,0.0756046176,0.1327831,0.020310577
103255.443955,0.0843935627,-0.0146884506,-0.0667138214,0.0744658485,0.125451684,0.0201931298
103255.453984,0.0489031471,0.0115022217,-0.128673726,0.067911543,0.110420272,0.0151789309
103255.464013,0.0691755353,-0.021842414,-0.121844757,0.058471702,0.0972085968,0.0120904632
103255.474042,0.064602236,-0.0350590384,-0.155625446,0.0455958508,0.0802953914,0.00999668613
103255.484072,0.0533420063,-0.0509726469,-0.222737327,0.036170125,0.0569117703,0.0115338629
103255.494101,0.0819639975,-0.0617126521,-0.229391524,0.027400868,0.0352299102,0.0152337924
103255.504130,0.0795984374,-0.0295522577,-0.215396316,0.0163410269,0.0111560021,0.0160995871
103255.514159,0.0869733501,-0.0152367321,-0.15971593,0.00502685364,-0.00856071152,0.0153142195
103255.524188,0.103276835,-0.0372299527,-0.0963490812,-0.000766320503,-0.020421898,0.00948669109
103255.534217,0.0817395411,-0.0238660288,-0.0466442623,-0.0110109681,-0.0242081154,0.00630740914
103255.544246,0.0678080463,-0.0115589204,-0.0271416894,-0.0129492171,-0.0284169745,0.00584614929
103255.554276,0.0711164402,0.00703472094,-0.013458032,-0.0115811508,-0.0334623344,0.00787601061
103255.564305,0.0555284105,0.0122311205,0.038825113,-0.0149282124,-0.0369878262,0.00969894417
103255.574334,0.0573757919,0.0183072256,0.0867255128,-0.0071232859,-0.0297903679,0.00689676683
103255.584363,-0.0114849783,0.0885392842,0.102956517,0.00156554347,-0.0229532328,0.00764298439
103255.594392,0.0236772282,0.0445861607,0.156691029,0.00449661864,-0.00947923586,0.00209801644
103255.604421,0.0382633874,0.0186456638,0.228600081,0.00446252991,0.00366479601,0.00101277884
103255.614450,0.0418561512,0.0113993459,0.180498606,0.0158933494,0.0140726957,0.00189827941
103255.624480,0.0507242251,0.0101993225,0.194768539,0.0210164711,0.0306463446,0.00417847792
103255.634509,-0.00899053119,0.0583610036,0.197875857,0.0284943618,0.0373665653,0.000554714352
103255.644538,-0.0117447983,0.0694978991,0.134613638,0.0367067531,0.0451547131,0.0019733808
103255.654567,0.00438683678,0.0273795898,0.16281565,0.0415204167,0.0511217937,0.00355023844
103255.664596,0.0128746791,0.0146972184,0.125469377,0.0486081541,0.0531889386,0.00246180454
103255.674625,-0.00676379505,0.065810735,0.180800804,0.052195698,0.0624641962,0.000860977918
103255.684654,0.018772505,0.0810533124,0.177404732,0.0555060059,0.0724981874,0.00126924086
103255.694683,0.0199409643,0.0350391647,0.216686356,0.0446091481,0.0793078914,-0.00649653655
103255.704713,0.0219043733,0.0218541044,0.196983877,0.0413917862,0.0870965719,-0.00269380864
103255.714742,-0.00142447985,0.0545353078,0.127648475,0.0510417484,0.0939917639,-0.0050339289
103255.724771,0.0136468326,0.0654617755,0.101767015,0.0550759062,0.102762617,-0.00393830426
103255.734800,0.0606944149,0.0300584537,0.0871545518,0.0479652658,0.0984658748,-0.00617242977
103255.744829,0.0291083133,0.00835690946,0.0180249015,0.0340912603,0.0800328031,-0.0148652541
103255.754858,-0.0520592731,0.0483440519,0.0910217487,0.00451712497,0.0743557438,-0.0330493189
103255.764887,-0.240013163,0.141178403,0.230271814,-0.0189842079,0.114648834,-0.0629624799
103255.774917,0.267547359,-0.0899649331,0.385272406,-0.0384822749,0.126717746,-0.0271626674
103255.784946,0.0336208223,-0.43823535,-0.41576399,0.0247744583,0.0853183791,0.0183118731
103255.794975,0.14909809,-0.000340776262,-0.194658064,0.0366689339,0.0891274959,0.00391003164
103255.805004,0.0938297918,0.204091078,-0.0489127917,0.0271372143,0.0658517405,-0.0151464837
103255.815033,0.0207464354,0.0401928942,-0.249306185,0.0429883488,0.037254978,-0.01310091
103255.825062,0.0777840814,0.0573421819,-0.0795423233,0.0347341485,0.0267591961,-0.0171885975
103255.835091,-0.0236897954,0.0755173055,0.0582201338,0.0140291369,0.0125637483,-0.0264068618
103255.845121,-0.00820493377,0.0748123721,0.12585107,0.000334630255,0.0169582311,-0.0326354653
103255.855150,-0.0197808053,0.063112582,0.149759184,-0.00385984825,0.0307408869,-0.0306407548
103255.865179,0.00424830509,0.0260977333,0.0924894831,-0.0044473419,0.0357580185,-0.024467282
103255.875208,0.0612386048,0.0056289458,0.0606675269,-0.00674644858,0.03675697,-0.0225695148
103255.885237,0.113534609,-0.0172720373,0.0717471393,-0.00977978949,0.0372864045,-0.0157813802
103255.895266,0.157709559,-0.0548848519,-0.0330026904,0.000138887961,0.0309906919,-0.00614446681
103255.905295,0.141547821,-0.0506312861,-0.0889314984,0.00892279204,0.024192974,-0.0030557327
103255.915325,0.129767659,-0.03718436,-0.0593085135,0.00830680318,0.0143432729,0.000381076708
103255.925354,0.101265495,-0.0596054507,-0.0386719682,0.00170802255,0.00870775804,0.00321308197
103255.935383,0.108765495,-0.0360328519,-0.0689326665,0.00911427382,-0.00338565651,0.0108603491
103255.945412,0.0630436084,-0.0183253458,-0.130817168,0.0243076067,-0.0151720084,0.0158681571
103255.955441,0.0122615157,0.0153939685,-0.0181944129,0.0230117124,-0.0187523626,0.0161954593
103255.965470,0.0169072957,0.0427531001,0.0649164165,0.0147556476,-0.0216490831,0.0130268307
103255.975499,0.023259295,-0.0035807811,0.112277887,0.0075347526,-0.0230826624,0.00700169522
103255.985529,0.0303226575,-0.0227063373,0.150399236,0.00100361626,-0.0186777934,0.00197071768
103255.995558,0.0221744224,-0.0152431618,0.148668466,-0.00524123013,-0.0115386583,-0.00316332467
103256.005587,0.0612123013,-0.0128062901,0.156162622,-0.0142397853,0.00252309861,-0.00552315172
103256.015616,0.137778824,-0.0500245524,0.105347211,-0.0195184369,0.0117496196,-0.00153533369
103256.025645,0.142425773,-0.0893441708,-0.0570984363,-0.0208516158,0.00996397063,0.00302399788
103256.035674,0.15171441,-0.0456856464,-0.183266902,-0.0208867695,-0.00395876914,0.00484267063
103256.045704,0.0986725557,0.0136029934,-0.246772282,-0.0137470998,-0.0234895945,0.00358805526
103256.055733,0.0694806557,0.026622634,-0.238857856,-0.0145614948,-0.0442971364,0.00315662334
103256.065762,0.0528124295,0.00646188949,-0.181009478,-0.0230971929,-0.0643992126,0.00405570632
103256.075791,0.0275984933,-0.0227425777,-0.108866617,-0.0355999358,-0.0824786127,0.00436782883
103256.085820,-0.017562837,-0.0109551093,-0.0145341368,-0.0479504988,-0.092884995,0.0014497689
103256.095849,-0.0338765506,0.0256552503,0.109736386,-0.0583269708,-0.0925417095,-0.00212099776
103256.105878,0.0419049588,0.0194768539,0.176942959,-0.0634133443,-0.0763731301,-0.000381421298
103256.115908,0.0719759797,-0.0272515795,0.14077859,-0.0595725328,-0.0687466338,0.00214804942
103256.125937,0.0794002845,-0.0228536368,0.0832002613,-0.0424923487,-0.0635734424,0.00445940718
103256.135966,0.083427348,0.0603670827,0.0748719934,-0.0272769127,-0.0510653704,0.00354168192
103256.145995,0.0872431069,0.0485287608,0.0470288777,-0.0151478108,-0.0474386774,0.00209238939
103256.156024,0.0964329601,-0.0107704003,0.0606862316,-0.01484208,-0.0459294654,0.00274246698
103256.166053,0.0788379744,-0.000604980156,0.0778513014,-0.0192645267,-0.0519135892,0.00255151838
103256.176083,0.0422170935,0.0391834249,0.0308358678,-0.021376146,-0.056689702,0.00121860672
103256.186112,0.0285050867,0.105457101,0.0476817886,-0.0234100018,-0.0589677691,-0.00400491804
103256.196141,0.0248792975,0.0798006819,0.0579115062,-0.0261120461,-0.0588641725,-0.00927930791
103256.206170,0.0541819643,-0.00772211868,0.0728179835,-0.0272026099,-0.057826072,-0.0108290026
103256.216199,0.0692398327,-0.0433428826,0.0608516513,-0.0218051821,-0.0531865805,-0.00731336232
103256.226228,0.0621177257,1.22749597e-05,0.0775473501,-0.0156346373,-0.0428375341,-0.00592399202
103256.236257,0.0421440282,0.0356266092,0.0721188953,-0.0103245601,-0.0373082794,-0.0075093722
103256.246287,0.0446440284,0.0042857145,0.0479500842,-0.0125107486,-0.0347354002,-0.00879594404
103256.256316,0.0441959923,-0.0200087688,0.0593289718,-0.0147629837,-0.0345058367,-0.00753600243
103256.266345,0.0273071091,0.0210071322,0.0499929882,-0.0149478074,-0.0335758589,-0.0106383199
103256.276374,0.0447281995,0.0378179817,0.0533358689,-0.0143275568,-0.032373175,-0.0146884555
103256.286403,0.056529112,0.0272819747,0.0456026443,-0.0146316905,-0.0322256386,-0.0141920419
103256.296432,0.0819064221,-0.0193266318,0.0293494286,-0.0200972967,-0.0410758555,-0.0109166196
103256.306462,0.0443187419,0.0451636683,0.00832242267,-0.027415663,-0.0511561856,-0.0133848367
103256.316491,0.0431166727,0.069200962,-0.0133387895,-0.0169952475,-0.0517953448,-0.0109997103
103256.326520,0.0271419817,0.0244254162,-0.0118476742,-0.0140553825,-0.0579022393,-0.010597839
103256.336549,0.0187871181,0.00595510901,0.0523836827,-0.0226712413,-0.0598982759,-0.0103938421
103256.346578,0.0593643354,-0.0241617968,0.0609983663,-0.0257328115,-0.0630123168,-0.00695303734
103256.356607,0.0157867672,0.00758475604,0.0167921448,-0.019871993,-0.0643223226,-0.0051841652
103256.366637,0.0211287127,0.0415121601,0.0533715247,-0.0101043163,-0.0608703308,-0.00619483553
103256.376666,0.0491948235,0.0287409413,0.103068745,-0.0182147082,-0.0570620112,-0.00631920435
103256.386695,0.0509931051,0.00102291331,0.177380766,-0.024347702,-0.0496301949,-0.00335271005
103256.396724,0.047225277,-0.0083954879,0.192468445,-0.0295645669,-0.0367338359,-0.00158623513
103256.406753,0.00087239892,0.0562660771,0.182788178,-0.0285709426,-0.0259224698,-0.0102534918
103256.416782,-0.0117626262,0.0316144509,0.109518359,-0.0133147566,-0.0182546955,-0.00898183417
103256.426812,0.00829816501,-0.00709901835,0.0874666865,-0.00267170044,-0.0149949854,-0.0041266242
103256.436841,0.0622752544,-0.0158721074,0.105982002,-0.000627191504,-0.0127363596,-0.00102031324
103256.446870,0.0564586771,-0.00661503423,0.10881401,0.00774339028,-0.00344272656,-0.000380355865
103256.456899,0.0234837514,0.00700549485,0.118531687,0.0120060463,0.00473051472,-0.00140913483
103256.466928,0.0159252989,0.0357131184,0.149939217,0.0141674671,0.0158540066,-0.00396097545
103256.476957,0.0390682741,-0.00177227037,0.15406828,0.00943582878,0.0241508167,-0.00483209547
103256.486987,0.0282315305,-0.0247732067,0.136844758,0.00720809493,0.0274613928,-0.00409413408
103256.497016,0.0264043151,0.0106914899,0.114911743,0.00769358873,0.034569107,-0.00319105573
103256.507045,0.0170829445,0.0474035562,0.0588999327,0.0117951231,0.0403268598,-0.0056568766
103256.517074,0.0347387204,0.0399766211,0.0493956068,0.013695023,0.0412879959,-0.00477776676
103256.527103,0.0619599048,0.0214595521,0.0421270771,0.0126052573,0.0409281999,-0.00168290734
103256.537132,0.0643409547,-0.0126502227,0.0279535903,0.0154380621,0.0383792892,0.00363782188
103256.547162,0.0510670472,0.00855447786,0.0197638541,0.0142505579,0.0404743999,0.00326045183
103256.557191,0.0328618206,0.0317138196,0.0288309577,0.0104848482,0.0378152318,0.000434571877
103256.567220,0.0360781523,0.0194002815,0.0375409184,-5.91392745e-05,0.0317205861,0.000337632373
103256.577249,0.0589648147,-0.00883446384,0.0230967979,-0.0068003987,0.0254320651,0.00305139367
103256.587278,0.0633089814,-0.0229191033,-0.00158756145,-0.00412205793,0.0233923495,0.00510762027
103256.597307,0.0586491728,0.01407178,-0.0110568161,0.00252892054,0.0215936508,0.00948612392
103256.607337,0.028411271,0.0482861843,0.000223287362,0.0039278795,0.0174316615,0.00630923873
103256.617366,0.0338587227,0.0375461791,0.0324526553,0.00278671458,0.015093674,0.00524717011
103256.627395,0.069495561,0.0333241775,0.0450333199,0.00518941879,0.0141453221,0.00266443659
103256.637424,0.0770803171,-0.0029746319,0.0865881501,0.00813833717,0.0191470049,0.00372703793
103256.647453,0.0702259211,-0.0130804308,0.11958558,0.00516225444,0.0258270111,0.00751724839
103256.657482,0.0697320001,-0.00345569341,0.14389,-0.000727592676,0.0284720622,0.00519097736
103256.667512,0.0723559189,0.0170382286,0.0866577082,-0.00282616378,0.0275391564,0.00312915817
103256.677541,0.0690942868,-0.00345335532,0.00694938075,0.00874500535,0.021926811,0.00553212827
103256.687570,0.0377162749,-0.0150116912,-0.0207300688,0.021550281,0.0175222103,0.0060722176
103256.697599,-0.0198906954,0.006261983,0.0165273564,0.0258177314,0.0145618403,0.00363808824
103256.707628,-0.00889905351,0.0134662153,0.0901315218,0.0243628453,0.0209180061,0.00316218147
103256.717657,0.0305073665,-0.0206546655,0.122466688,0.0236760173,0.0310265664,0.00701364502
103256.727687,0.0413633993,-0.00517944846,0.105991939,0.020371832,0.0352506079,0.00836519897
103256.737716,0.0454687888,0.0644026218,0.098173374,0.0158545785,0.042766314,0.00461733248
103256.747745,0.0623690702,0.0797878225,0.0705535457,0.00806616526,0.0435245186,-0.00296628475
103256.757774,0.0863578485,0.0163911628,0.00277647898,0.00365810073,0.0374977849,-0.00407202914
103256.767803,0.0653203212,-0.0121165543,-0.028598318,0.00703632087,0.0336103663,-0.00252899434
103256.777832,0.0319818229,-0.0166050978,-0.0532955369,0.0166564565,0.030292334,-0.000498333946
103256.787862,-0.0177963535,0.0048678983,-0.0533083963,0.0233455189,0.0274872258,0.000491829589
103256.797891,-0.0116904378,-0.0181014739,0.00401975704,0.0182887074,0.026177749,0.00102552678
103256.807920,0.0213172211,-0.0518108513,0.0421633175,0.00704457657,0.0235915538,0.00618593441
103256.817949,0.0260775673,-0.0484819991,0.00431143346,0.00196992303,0.0196490102,0.009277598
103256.827978,0.0364051923,0.00119534726,-0.000775076026,-0.00183014129,0.0164438952,0.00799315516
103256.838008,0.0551177838,0.00102934305,0.0190922385,-0.0111421505,0.0125199948,0.00550096948
103256.848037,0.0648287383,-0.00610883827,0.0246095406,-0.0164218675,0.00760433171,0.00570816314
103256.858066,0.0627361499,0.0197509947,0.0342798707,-0.0161464959,0.00444076303,0.00330093177
103256.868095,0.053694473,0.0590349573,0.0248240601,-0.00984598976,0.00134936557,0.00290225679
103256.878124,0.035175066,0.0559440055,0.0128904612,0.000110237801,0.00444049668,0.00336591294
103256.888153,0.0444546433,0.00376198288,0.0723503659,-0.000816009648,0.0039158538,0.00259386282
103256.898183,0.0802288442,-0.0157172091,0.11591186,-0.00385041535,0.00865388382,0.00723814918
103256.908212,0.0827320592,-0.0171913733,0.116596919,-0.00298968167,0.0127173355,0.00675451942
103256.918241,0.0348185077,0.0298392579,0.115568161,-0.00166103058,0.0176047683,0.00510256039
103256.928270,0.0471761772,0.0559685555,0.11190204,-0.00297876284,0.0199579373,7.53114e-05
103256.938299,0.0402978159,0.0152227036,0.1214806,-0.00664167432,0.0188346151,0.000762406737
103256.948328,0.0438391417,-0.0151566526,0.0628618221,-0.0011209416,0.0152811604,0.00327137066
103256.958358,0.0397404742,-0.0140215111,0.0641723202,0.00880705658,0.0189581867,0.004353147
103256.968387,0.027812136,0.0210538939,0.0877659617,0.0181275867,0.0244687982,0.00376352295
103256.978416,0.0187935478,0.00443710566,0.112185533,0.0210224427,0.0350535326,0.00241330033
103256.988445,0.0402954778,-0.00357902753,0.126010644,0.0187651478,0.0377827436,0.00609165849
103256.998474,0.0487397732,0.0204015675,0.0845703806,0.0229716115,0.0416171625,0.00566102518
103257.008504,0.0376642525,0.0543301406,0.0598363368,0.0239623059,0.0482263267,0.00604745001
103257.018533,0.0127221189,0.0669312635,0.067705755,0.0172042698,0.0488532372,0.00298374938
103257.028562,0.0301642521,0.0609112726,0.0419254171,0.00735829677,0.045730412,-0.00163257401
103257.038591,0.0476768202,0.0301782806,0.00429097519,0.0044048517,0.0382336155,-0.00435512327
103257.048621,0.0485159014,0.00389642292,-0.0317336934,0.00428767223,0.0313064642,-0.00282354001
103257.058650,0.0481476526,0.0131476509,-0.0533089809,0.00568077201,0.0292763375,-0.000734290108
103257.068680,0.0422711618,-0.0165256029,-0.0489864415,0.00547570875,0.0214535687,3.4565106e-05
103257.078709,0.0724450585,-0.070950436,-0.0654307958,-0.00152707356,0.0131085534,0.00468950393
103257.088738,0.0750435505,-0.0720616121,-0.0725835902,0.000144053542,0.00180379488,0.00876049325
103257.098767,0.04071458,-0.0321112945,-0.0473158779,0.000952855626,-0.00439524511,0.00795169082
103257.108796,0.0255626035,-0.00782441002,-0.0048386722,-0.00331885484,-0.00743630854,0.00534765236
103257.118826,0.0258007962,-0.0205412682,0.0514087002,-0.0150751127,-0.0100296959,0.00271991128
103257.128855,0.0332265623,-0.0773889446,0.0820113437,-0.0227261074,-0.00865923241,0.00439610472
103257.138884,0.0604755115,-0.0718231272,0.0493096821,-0.0182027295,-0.00795669109,0.00762998126
103257.148913,0.0285901347,0.00259878432,0.0264390941,-0.00966676511,-0.00107348431,0.00595005928
103257.158942,0.0265495688,0.0389297424,0.0337532165,-0.000412014488,0.00337639148,0.00203388091
103257.168971,0.0378536376,0.00384323142,0.0660293462,6.63445098e-06,0.00429198612,0.000149161555
103257.179001,0.0667018387,-0.014300328,0.0830494546,0.00099919457,0.0035700032,0.0025358866
103257.189030,0.0388970091,0.0115659346,0.0847965905,0.00206925278,0.00252710935,0.00216570729
103257.199059,0.0302121829,0.0457440986,0.112349783,0.00392680755,0.00895757787,-0.00320935063
103257.209088,0.0341357861,0.0407318234,0.103144733,-0.000908427697,0.00983748585,-0.00280321855
103257.219117,0.0622509967,-0.00402209512,0.103372112,-0.00244480534,0.0076931091,-0.00400536973
103257.229147,0.0601084317,-0.00266834243,0.0545335542,-0.00163706858,0.00831016339,-0.0023363661
103257.239176,0.0398927422,0.0224339501,0.0298573781,0.00674549723,0.00666433014,-0.000133399852
103257.249205,0.0133782448,0.0284136091,0.0180278241,0.00942863245,0.0047098361,-0.00186125841
103257.259234,0.0290805485,0.0202905084,0.0293494286,0.00496064639,-0.000501703704,-0.00263570528
103257.269263,0.0423287372,-0.0170177703,0.0501765281,0.00330922054,-0.00796734355,-5.64344227e-05
103257.279293,0.0373708225,0.00916881036,0.0641711511,0.00680168951,-0.00714043202,0.00341286557
103257.289322,0.0293505976,0.0541167901,0.0879693754,0.0139781106,-0.00651378976,0.00286505371
103257.299351,0.0103138887,0.0633095659,0.133825118,0.0105407685,-0.00127348769,0.00136782415
103257.309380,0.0236155611,0.0458709398,0.145869776,0.0051478669,0.00226345635,-0.000131002627
103257.319409,0.0360837053,0.0345417365,0.132999188,0.00812208559,0.00754636899,0.000399765559
103257.329438,0.0263245278,0.0433481433,0.134751585,0.0140111335,0.0155635495,-0.00222930778
103257.339468,0.0100929395,0.0679576839,0.114328974,0.0168434046,0.0271419082,-0.00134780072
103257.349497,0.0419999436,0.0493669652,0.0901876359,0.0161635,0.0325763524,-0.00429805089
103257.359526,0.0909405001,-0.0124035545,0.0578255815,0.0118284067,0.035428334,-0.000705712475
103257.369555,0.0722892834,-0.0153922149,0.0089694884,0.0127418712,0.0312357191,0.00224533584
103257.379584,0.0453138905,0.0078641575,-0.017490064,0.0102265151,0.025205791,0.00343497004
103257.389614,0.0235641232,0.0332803383,-0.00282850142,0.00342506799,0.0201567039,-0.00230281055
103257.399643,0.0365334949,0.00277355637,-0.00190203423,-0.00408291584,0.0120290015,-0.00255634356
103257.409672,0.0500803742,-0.0429290411,-0.0123795891,-0.00345973601,0.00441635586,0.00168953417
103257.419701,0.0453486695,-0.0313046543,0.020694413,0.00293930736,0.0014557197,0.00232816022
103257.429730,0.0295683321,-0.00889583864,0.0329851548,0.0112787299,0.00668696687,0.000999242999
103257.439760,0.0326782808,-0.0135807816,0.0700888507,0.0169422086,0.013820244,-0.000113159418
103257.449789,0.0647495355,-0.0580137976,0.0925742388,0.0205196328,0.0235967077,0.00332391635
103257.459818,0.0635755233,-0.0682440997,0.0902823285,0.0262417011,0.0313824601,0.00855383184
103257.469847,0.0271560102,-0.0383721085,0.0552320579,0.0298116673,0.0364339426,0.0113701243
103257.479876,0.0137476626,0.00249707751,0.0624029724,0.0307475012,0.0386185348,0.00907101762
103257.489906,0.0434036729,0.000152560213,0.0733452222,0.0252296999,0.0387783237,0.00964146666
103257.499935,0.0664057783,-0.0451093078,0.0566407556,0.0249189083,0.037726108,0.0107272379
103257.509964,0.0701911421,-0.0283557414,0.0049853872,0.0313981101,0.0404433347,0.0108478786
103257.519993,0.0534822916,-0.00380582202,-0.01682254,0.0361880735,0.0446796231,0.0110870302
103257.530022,0.0346373059,0.0152449154,-0.0369873761,0.0372618586,0.0434796028,0.0107956808
103257.540052,0.0784907684,-0.0249438871,-0.0641390024,0.0350410491,0.038918674,0.00992136542
103257.550081,0.104793961,-0.0496767618,-0.078707626,0.0345422402,0.0307976305,0.0112585379
103257.560110,0.0848231863,-0.0380325013,-0.0883995835,0.0314335302,0.020587869,0.00983055122
103257.570139,0.0718088064,-0.00747603497,-0.0662964727,0.0221532155,0.0110146031,0.00742784748
103257.580168,0.10029022,-0.0224865571,-0.0606610972,0.0114366561,-0.000484925695,0.00751147047
103257.590197,0.100405955,-0.0618687194,-0.0904395649,0.00821369793,-0.0118267965,0.0109773083
103257.600227,0.0866349119,-0.0609463439,-0.0948375076,0.0100257127,-0.022987837,0.00784836058
103257.610256,0.0162514621,-0.0457066892,-0.0787801067,0.0161605701,-0.0311722644,0.00757192448
103257.620285,0.0312792276,-0.0533884758,-0.0179927528,0.0208029933,-0.0302292369,0.00858339295
103257.630314,0.00889116246,-0.0200227973,0.0189946233,0.0250422135,-0.0310004912,0.0046035652
103257.640343,0.0274924026,-0.0101987379,0.0598404285,0.0238595027,-0.0274853837,0.00446880888
103257.650373,0.0714852735,-0.0198170456,0.0636672933,0.024112504,-0.0215438716,0.00697830599
103257.660402,0.064260583,0.0174164142,0.058158759,0.0212472081,-0.0172266215,0.00635725632
103257.670431,0.0595195259,0.0952829132,0.0478863713,0.0111865848,-0.0147826374,-0.00145752355
103257.680460,0.063058806,0.101482937,0.0261117619,0.00946884602,-0.0173318163,-0.00206419174
103257.690489,0.0554115061,0.105844055,-0.0264011002,0.00986565743,-0.0214631781,-0.00429831725
103257.700519,0.0527025394,0.136816701,-0.0601981559,0.0100704543,-0.0293599833,-0.0100677898
103257.710548,0.0433832147,0.133556822,-0.107238139,0.0111639481,-0.0444638357,-0.0154135516
103257.720577,0.0604538842,0.0791816733,-0.120964467,0.0031334518,-0.0693382919,-0.0151064908
103257.730606,0.0730249042,0.0397697003,-0.132829677,-0.000505225093,-0.0956109092,-0.0147552183
103257.740635,0.0549786676,0.0466869324,-0.0878378579,-0.00868166238,-0.114488728,-0.0164180957
103257.750665,0.0268394916,0.064141925,-0.0347387204,-0.0177212302,-0.127926499,-0.0217279084
103257.760694,0.00691226361,0.0789022718,0.0053273325,-0.0242505018,-0.131655455,-0.0248515308
103257.770723,0.0147121237,0.0454781411,0.0739314977,-0.029392533,-0.128276974,-0.0227662735
103257.780752,0.0246752993,0.0273445185,0.107780576,-0.0210757479,-0.117769204,-0.0201148316
103257.790781,0.0275853415,0.0273217222,0.120641811,-0.0037289816,-0.107401252,-0.0165342093
103257.800811,0.0375441332,0.00892506473,0.0993622915,0.0173467435,-0.0999350846,-0.00896976795
103257.810840,0.0738634009,-0.0315016382,0.0490536615,0.0343273208,-0.104759932,-0.00616412796
103257.820869,0.0803811122,-0.0599357055,0.0461795674,0.0446926132,-0.113173656,-0.0028751241
103257.830898,0.0778936793,-0.0496165561,0.055407999,0.0616002232,-0.11665228,-0.000985078514
103257.840927,0.0250941092,0.0119704238,0.0571907907,0.0894441009,-0.109806359,-0.00431030151
103257.850957,0.0133922733,0.0146259067,0.21459669,0.0978815332,-0.0893892348,-0.0050810203
103257.860986,-0.0159346512,0.0241132815,0.268296132,0.0998219103,-0.0680850074,-0.00643363968
103257.871015,-0.0338163449,-0.00187923788,0.285183554,0.094928354,-0.0457139239,-0.00431749225
103257.881044,-0.011361352,-0.0167202487,0.26967385,0.0904403925,-0.0205190871,-0.00462295674
103257.891073,-0.0461973953,0.0154676182,0.223918646,0.0904888585,0.0030120709,-0.00619022641
103257.901103,-0.00490384639,0.0119920511,0.0845692115,0.101403825,0.009782359,-0.0112251984
103257.911132,0.064140756,-0.0158399587,0.0266594589,0.105323732,0.00673011038,-0.0162417963
103257.921161,0.0954766822,-0.0186474173,-0.0252501766,0.113101766,-0.000830071513,-0.0202330761
103257.931190,0.109985392,-0.00970364789,-0.0805161367,0.122785814,-0.00392439822,-0.0216197819
103257.941219,0.0962619874,0.0160305128,-0.114795423,0.119325303,-0.0173368752,-0.0261665992
103257.951249,0.089047526,0.0274736979,-0.150900756,0.117178798,-0.0330982618,-0.0282414667
103257.961278,0.107819446,0.0240256032,-0.22196342,0.120885119,-0.0527907386,-0.0311437808
103257.971307,0.107459089,0.00825870978,-0.149526545,0.109165341,-0.0680373386,-0.0324766934
103257.981336,0.0655751727,-0.0327425782,-0.0804383953,0.0851273835,-0.0770742446,-0.0342370421
103257.991366,0.057063365,-0.0502431635,-0.037024201,0.0472172871,-0.0851931572,-0.0351616926
103258.001395,0.0715603846,-0.0807417622,-0.10275661,0.0141386986,-0.102960169,-0.0301991589
103258.011424,0.0772048202,-0.0619406156,-0.232059282,0.00221226458,-0.127215177,-0.0218474828
103258.021453,0.0653016165,-0.0456067359,-0.258731016,-0.0100952676,-0.158781081,-0.0179315731
103258.031482,0.0569870849,-0.0145732998,-0.203586052,-0.0232819095,-0.184395373,-0.0166812167
103258.041511,0.0447340447,-0.00999064814,-0.142077398,-0.0367460549,-0.208155036,-0.0178447515
103258.051540,0.0248252292,0.024338907,-0.0538420648,-0.0505106039,-0.222869262,-0.01968899
103258.061569,-0.00358253466,0.0492085598,0.0267985751,-0.0576433465,-0.228917837,-0.0228658766
103258.071598,0.0235591548,0.0581447305,0.0706523299,-0.0451922715,-0.221864715,-0.0230826586
103258.081627,0.0401347343,0.0385404508,0.164366971,-0.0400329269,-0.206610397,-0.0230110176
103258.091657,0.0816831347,0.0143973587,0.202290167,-0.0352403745,-0.196829408,-0.0173903443
103258.101686,0.103623164,-0.0406038131,0.179003983,-0.0247600377,-0.183285639,-0.0094413422
103258.111715,0.0791831346,-0.00893266352,0.183674313,-0.0184597969,-0.175792024,-0.0079912506
103258.121744,0.0440314494,-0.00911211174,0.22619302,-0.0200470407,-0.163384095,-0.00708897226
103258.131773,0.0487213608,0.00574994183,0.244377496,-0.0201354586,-0.15002355,-0.00809404813
103258.141803,0.0335591553,0.00020107553,0.246566531,-0.0181577951,-0.138939202,-0.00636033062
103258.151832,0.0240732418,-0.00551905568,0.279219092,-0.0102657825,-0.120041408,-0.00319889188
103258.161861,0.0202390704,-0.00994622447,0.2759031,0.00114692771,-0.0980287865,0.000371075235
103258.171890,-0.000459434205,0.00776654235,0.259798937,0.0160574336,-0.0731503293,0.00381161319
103258.181919,-0.0235471721,0.0365010539,0.277505859,0.0265391022,-0.0532695688,0.00304941647
103258.191949,0.00443476758,0.0291454305,0.226280698,0.0373978764,-0.0369300097,0.00131676346
103258.201978,-0.00581365471,0.0403103831,0.181672326,0.050489977,-0.0285636913,-0.000401508063
103258.212007,0.00965454805,0.0271323371,0.141688691,0.0452265069,-0.0218647774,-0.0029155314
103258.222036,0.0129290397,0.0211871649,0.0918424174,0.0436930582,-0.0222165808,-0.00328065082
103258.232065,0.0472401823,-0.0330681569,0.0430634812,0.0359312743,-0.0295621119,-0.000776480883
103258.242095,0.0509714778,-0.0588467412,0.00639642304,0.0330420099,-0.0379678458,-0.000626279041
103258.252124,0.0591731967,-0.0512403579,0.00103811088,0.0358910598,-0.039416071,0.00329549238
103258.262153,0.0605053221,-0.0460854593,0.00158522336,0.0423255228,-0.0390496217,0.00464065513
103258.272182,0.0450146152,-0.0107557873,0.0318991131,0.0431412496,-0.0371111073,0.00298523437
103258.282211,0.029620939,-0.00484276386,0.103591892,0.0389265306,-0.034499079,0.00131489988
103258.292241,0.0344447059,0.012151041,0.0736275463,0.035539791,-0.0314337797,-0.00238396507
103258.302270,0.0255871535,0.0145358904,0.0498112019,0.0428621508,-0.0307927597,-0.00252218265
103258.312299,0.0534407905,0.0161719671,0.0550812512,0.0378522128,-0.0272044148,-0.00174960028
103258.322328,0.0387289591,0.0303279182,0.0665460636,0.038920939,-0.0239130147,-0.00270221289
103258.332358,0.0391211733,0.0508580806,0.0462000256,0.0437021106,-0.0248307399,-0.00778911635
103258.342387,0.0318248788,0.0762643245,-0.00653846186,0.0556256175,-0.026404934,-0.00895318389
103258.352416,0.0173068164,0.0611018267,0.0193260472,0.0696231872,-0.0227795728,-0.00924719684
103258.362445,0.010333178,0.0287672448,0.101950554,0.0843557939,-0.0117048165,-0.00897715241
103258.372474,0.0341910234,0.0221978033,0.181744222,0.0915814862,0.00349996891,-0.0115409773
103258.382504,0.0262576001,0.0109124392,0.221972188,0.102745719,0.0236041714,-0.0111771896
103258.392533,0.0199485631,0.0231529121,0.201027015,0.126203373,0.0434873328,-0.00944320671
103258.402562,0.0469546434,0.0776607473,0.189141931,0.150298864,0.0639060512,-0.0110882409
103258.412591,0.0535436664,0.0687029493,0.173743286,0.175904617,0.0788391978,-0.0120570976
103258.422620,0.0534220858,0.0373550404,0.180405667,0.203663811,0.0965545475,-0.0145924278
103258.432650,0.0390343718,0.0707873544,0.190509128,0.240692675,0.120369062,-0.0141407549
103258.442679,0.0222182615,0.0984527754,0.197700501,0.287799448,0.146933019,-0.0135766976
103258.452708,0.03312544,0.105342535,0.239871417,0.333301425,0.180773273,-0.0119580291
103258.462737,-0.00141483523,0.145201667,0.267711025,0.38118428,0.218164593,-0.0142914914
103258.472767,-0.0326952319,0.172365276,0.266370717,0.426586628,0.254632592,-0.0173898116
103258.482796,-0.0338026086,0.151964878,0.23556992,0.467912227,0.289652914,-0.0177373551
103258.492825,0.00465542459,0.0977548563,0.188603002,0.50489825,0.311795503,-0.0111777224
103258.502854,0.00360240841,0.0770285869,0.119413146,0.525154233,0.33011803,-0.0237824656
103258.512883,0.0221025262,0.0482061048,0.170924137,0.519313931,0.346970797,-0.0351059586
103258.522913,0.0880497471,-0.115295774,0.143228906,0.495954275,0.332278401,-0.0305812471
103258.532942,0.0993269279,-0.255178876,0.0557008444,0.45422253,0.296576321,-0.0285910666
103258.542971,0.153571728,-0.181000418,0.165160167,0.392377794,0.283479959,-0.0269934386
103258.553000,0.164759185,-0.266939457,0.0951134019,0.335075617,0.230346963,-0.0146590061
103258.563029,0.124107149,-0.284837225,0.0781225196,0.261593699,0.190256268,-0.0125575066
103258.573059,0.166022921,-0.226652162,0.0873205561,0.196173936,0.145180658,-0.00404577702
103258.583088,0.126256436,-0.243095932,-0.0429910005,0.149375007,0.0927371681,0.00877867453
103258.593117,0.108090665,-0.155423201,-0.0172749599,0.115861788,0.059775494,0.0166626964
103258.603146,0.0726300597,-0.0398278603,-0.00587561404,0.0977014303,0.0389650203,0.0157561563
103258.613176,0.0381377152,-0.020528701,0.00389408483,0.0871473178,0.0229309238,0.0196845867
103258.623205,0.0424646385,0.0293278013,0.051790393,0.0724884793,0.0168296229,0.0175945368
103258.633234,0.0166141579,0.0566913168,0.100569914,0.0556804799,0.018821666,0.0169191584
103258.643263,0.0191986215,0.0669946841,0.127986328,0.0377219841,0.02123449,0.018666992
103258.653292,0.0113297878,0.0401753585,0.137072137,0.0128278183,0.0162842069,0.0160930455
103258.663322,-0.0147767134,0.0341562444,0.128444009,-0.0166696198,0.0113821272,0.0148458881
103258.673351,-0.00349807125,-0.00143207863,0.143576112,-0.0356747359,0.0146844471,0.0161582939
103258.683380,-0.15422347,0.174592305,-0.0822948368,0.0174499992,0.0720667765,0.0224534739
103258.693409,-0.257472248,0.400072208,-0.307922624,0.0427726693,0.0862529054,0.0116042886
103258.703438,-0.260995746,0.347211848,-0.440744702,0.0302086715,0.055541601,-0.00812574103
103258.713468,-0.0651964025,0.173807292,-0.530391656,0.00256532733,0.0011191027,-0.0180159211
103258.723497,0.148271284,-0.113543669,-0.562354482,-0.0244697537,-0.05799748,-0.00713104941
103258.733526,0.271273979,-0.275005859,-0.512024224,-0.0565374047,-0.111963511,0.011370996
103258.743555,0.304516323,-0.320480785,-0.438176898,-0.0829809979,-0.155982643,0.0301824994
103258.753585,0.245063433,-0.251331553,-0.322003757,-0.103967778,-0.184587121,0.0390223302
103258.763614,0.167106333,-0.136647482,-0.242363818,-0.118304372,-0.19919616,0.0408165008
103258.773643,0.106346451,-0.103143271,-0.12259879,-0.137296438,-0.20458214,0.039725408
103258.783672,0.076197689,-0.104605453,-0.049280456,-0.153857574,-0.208840266,0.0424285121
103258.793701,0.0631856472,-0.0722004361,-0.0779828189,-0.1562206,-0.218437225,0.0489798896
103258.803731,0.0107210082,0.00671907912,-0.117996849,-0.141901046,-0.225838691,0.0443731546
103258.813760,0.00894727657,0.0713382663,-0.0699812987,-0.124305539,-0.225835755,0.0393086225
103258.823789,0.0421118795,0.0521603953,0.0426759432,-0.110165752,-0.220968291,0.0344864354
103258.833818,0.0640875645,0.0258703543,0.171686938,-0.0969713852,-0.210928187,0.0367517173
103258.843847,0.0669233725,0.00849514888,0.261503988,-0.0816068128,-0.193763047,0.0370931365
103258.853877,0.0484188707,0.0254600199,0.339429523,-0.0606418699,-0.162790477,0.0387027487
103258.863906,0.00830313344,0.0675818364,0.413958402,-0.039640449,-0.128388569,0.0337932147
103258.873935,-0.0694891313,0.111090723,0.474877274,-0.0190456919,-0.0892797709,0.0249781515
103258.883964,-0.0756274879,0.102331078,0.539738161,0.000552243961,-0.0444662236,0.0179561935
103258.893994,-0.0587178542,0.0708802934,0.568740968,0.0183394961,-0.00125670328,0.0105352961
103258.904023,-0.0732896926,0.0511614474,0.539835191,0.0299881622,0.0406638496,0.00430616224
103258.914052,-0.0635021658,0.0421171402,0.450944025,0.0430983752,0.0692145377,0.00329203019
103258.924081,-0.0248237679,0.0256508663,0.317757205,0.0537076071,0.0863245428,0.000848047435
103258.934110,0.00448562098,0.0267930221,0.243625801,0.0595311411,0.0986222252,-0.00269582123
103258.944140,0.0438017323,0.0533414218,0.125388129,0.0701960325,0.106401049,-0.00226385612
103258.954169,0.0378428239,0.0568108515,0.0319382761,0.0761830881,0.104127511,-0.00290647708
103258.964198,0.0496443209,0.0560936431,-0.0265238498,0.0715790167,0.0963625312,-0.000101902522
103258.974227,0.0390095296,0.0238756734,-0.098801735,0.0671160892,0.0776684731,-0.000362358987
103258.984257,0.0493646271,0.00795125127,-0.113539285,0.0573217832,0.0590093024,-0.000393784605
103258.994286,0.0573313682,-0.0242597042,-0.0913034882,0.0440041162,0.0456157327,-0.000457433984
103259.004315,0.0514826422,-0.0102206575,-0.0538490791,0.0256637223,0.0367138498,0.00119612273
103259.014344,0.0804305043,-0.0215334942,-0.061284782,0.0187245887,0.0248864833,0.0027335654
103259.024373,0.0789519562,-0.055576049,-0.109934539,0.01404728,0.0130679077,0.00698370393
103259.034403,0.0800038033,-0.0261041631,-0.0980932945,0.0113007622,0.00187783735,0.00960691739
103259.044432,0.0575184152,0.00362695833,-0.0904670374,0.00953135826,-0.00337844389,0.00749396579
103259.054461,0.0535989037,0.0351215823,-0.0800140324,0.00831509195,-0.0137626408,0.00642816909
103259.064490,0.0701826665,0.0186138073,-0.0607025982,0.00494566094,-0.0256967992,0.00438738847
103259.074520,0.0608443448,-0.0115182961,-0.0348696533,0.00411235774,-0.0350644663,0.0104897562
103259.084549,0.0376236282,-0.00126724346,0.024099253,0.00633263541,-0.0344005413,0.0108673917
103259.094578,0.0162602299,0.00825520265,0.0975362451,0.00648617093,-0.0296923667,0.0090911258
103259.104607,0.0230476981,-0.0209694305,0.167464937,0.00233803131,-0.0196027141,0.0115686646
103259.114636,0.0117936059,-0.0225941091,0.256146844,-0.00141569437,-0.00224849116,0.0109159239
103259.124666,0.0180813079,-0.00324555779,0.197899238,0.00869020354,0.010962652,0.013114363
103259.134695,0.00886865837,0.0503188591,0.12129706,0.0219346359,0.0242872462,0.00864371471
103259.144724,0.00578735123,0.0745499218,0.120192314,0.0266393758,0.026273964,0.00602955557
103259.154753,0.0383767847,0.0206894445,0.117662503,0.0238284096,0.0267107226,0.00458079623
103259.164783,0.0530132128,-0.0190571672,0.0945130979,0.027058823,0.0269583967,0.00341299968
103259.174812,0.0623527035,-0.0244286311,0.0745890848,0.0290226396,0.0298604425,0.00500743464
103259.184841,0.0537102551,-0.00183101482,0.052432198,0.0386164077,0.0309784375,0.00627722964
103259.194870,0.0377092607,0.0087973467,0.0503787726,0.0392507724,0.0291373953,0.00631078519
103259.204899,0.0128621119,-0.00393149423,0.0819984843,0.034829393,0.029498253,0.00371100754
103259.214929,0.0087090839,-0.0119552262,0.0841711521,0.0323486589,0.0329126939,0.00583407935
103259.224958,0.0107595867,-0.0114551677,0.0806266114,0.0334812999,0.0388395563,0.00745700998
103259.234987,0.00520779778,0.0182338681,0.0456067359,0.0327444039,0.0401836559,0.00899631716
103259.245016,0.0269715936,0.00899403832,0.0648328299,0.0276545733,0.0376248881,0.00939286221
103259.255046,0.0583314852,-0.0104661567,0.0568634585,0.0252808984,0.0372834727,0.0118727973
103259.265075,0.0406517439,-0.0158610015,0.0425736518,0.0241692942,0.0359596163,0.0101966038
103259.275104,0.0503010312,-0.00464461094,0.0351285965,0.0244380068,0.0356048793,0.00980378781
103259.285133,0.0337178529,0.016136019,0.0138935008,0.0273339283,0.0353926271,0.0103145819
103259.295162,0.0284048412,0.00718231272,0.0968757354,0.0233583618,0.0364413783,0.00969220139
103259.305192,0.0245642402,-0.0167342772,0.116311088,0.0234790035,0.0414121673,0.011369992
103259.315221,-0.00549333672,0.00627951866,0.134939216,0.0225796532,0.0555535555,0.0108171199
103259.325250,0.00167962365,-0.00305529592,0.147760119,0.0224683341,0.0661630556,0.0108448174
103259.335279,-0.00549772063,-0.0167100195,0.195615511,0.014517732,0.0738593265,0.0115249883
103259.345309,0.0279465761,-0.0134665076,0.167328159,0.0124479234,0.079395771,0.0134435296
103259.355338,0.00177957689,-0.00301671747,0.143495448,0.0147321168,0.0840762779,0.0134813469
103259.365367,-0.00288432326,0.0257248084,0.125023387,0.017147338,0.0949638113,0.0118935704
103259.375396,0.0118666711,0.0553176903,0.11173662,0.0218944214,0.0999511108,0.0098413378
103259.385426,0.0247238146,0.0761544344,0.0565209286,0.0255528055,0.0922231525,0.00843305886
103259.395455,0.0390045612,0.0431982135,-0.0151443776,0.0278316736,0.0828104764,0.0101587866
103259.405484,0.0586681698,0.0643979456,-0.0341331557,0.0260329749,0.0744111314,0.00900643691
103259.415513,0.0612763065,0.0691971626,-0.0465764577,0.0238720849,0.0651814118,0.00779523142
103259.425542,0.0620449528,0.0523576715,-0.0314011004,0.018445095,0.0526709482,0.00526283169
103259.435572,0.0687052874,0.0303390242,-0.0124602531,0.0127113098,0.0433972925,0.00221537659
103259.445601,0.058747957,0.020054946,-0.0228641582,0.0135800336,0.0343164429,0.00182469049
103259.455630,0.0594429536,-0.00427490084,-0.084408468,0.0171249676,0.0234416928,0.00251471577
103259.465659,0.0558800004,0.00938888285,-0.0810837075,0.0145930992,0.00940683298,0.000116805546
103259.475689,0.0881026463,-0.0293079275,-0.144848616,0.0152501017,-0.00771036837,0.00169313047
103259.485718,0.109563368,-0.0510945197,-0.145903678,0.0140303737,-0.0229345951,-0.000502645969
103259.495747,0.143239719,-0.0459825835,-0.181968679,0.0144261196,-0.0388845354,0.00596750434
103259.505776,0.130427584,-0.0580816021,-0.21617373,0.0193276666,-0.0572595447,0.00665433332
103259.515806,0.10746961,-0.0519137271,-0.155799634,0.0136591289,-0.0742166936,0.00922854431
103259.525835,0.0847553817,-0.0734729402,-0.0925613793,0.00461743074,-0.0823771507,0.0146390228
103259.535864,0.0372518723,-0.115286129,0.0207066879,-0.00808185339,-0.0815230757,0.0166449156
103259.545893,-0.0181020584,-0.10654022,0.133633394,-0.0149437534,-0.0689668059,0.0209914595
103259.555922,-0.0670431994,-0.0711754769,0.158851422,-0.0176204965,-0.0539095551,0.020603437
103259.565952,-0.0599921119,-0.0570925911,0.217561385,-0.020802442,-0.0327161178,0.0202636197
103259.575981,-0.0268368613,-0.0370277081,0.213633398,-0.0209052395,-0.0172181185,0.0213848092
103259.586010,0.00265168355,0.00274403801,0.18260873,-0.0132222865,-0.00048734271,0.0220498014
103259.596039,0.0534463435,0.0452677132,0.182735571,-0.0131208198,0.0157371685,0.0156004243
103259.606069,0.0856464854,0.0752200762,0.180473472,-0.0192596726,0.023778582,0.0115734581
103259.616098,0.128212538,0.100501232,0.0900251388,-0.0230205879,0.0242491625,0.00400448777
103259.626127,0.130170979,0.151327164,-0.00126373633,-0.0145173818,0.0188759696,-0.00421242882
103259.636156,0.110616968,0.177940446,-0.0922708719,-0.000479326845,0.00498492084,-0.0125984568
103259.646186,0.0658650956,0.141164082,-0.127365566,0.00926198345,-0.00888189301,-0.021461457
103259.656215,0.0247048177,0.0819347714,-0.0261965175,0.00959487911,-0.0163368788,-0.0231035613
103259.666244,0.0363733359,-0.0359326064,0.0762806911,0.00837754831,-0.0182964336,-0.0207860786
103259.676273,0.0101256727,-0.0856619752,0.137635616,0.00496044615,-0.0102267889,-0.0156578962
103259.686302,-0.011888883,-0.0530646507,0.188565008,0.00376655068,0.00127087627,-0.0111430399
103259.696332,-0.0321188933,-0.0199970784,0.174498489,-9.6364296e-05,0.00637109624,-0.00926258229
103259.706361,-0.0162429865,-0.0198953716,0.149769121,-0.00253209146,0.00989419222,-0.00696454011
103259.716390,0.0163350487,-0.0084741061,0.136966338,-0.000234316045,0.0136239491,-0.00524467044
103259.726419,0.0255018133,0.0174567462,0.124696055,0.00577057945,0.0200360417,-0.00342147052
103259.736449,0.030635669,0.0503194437,0.0944505541,0.0165244248,0.0278167333,-0.00341747515
103259.746478,0.0254629426,0.0572884059,0.0775771607,0.0229684748,0.0335481241,-0.00566385221
103259.756507,0.0494832851,0.0368926836,0.0490507389,0.0219972208,0.0300183687,-0.00376395322
103259.766536,0.0611029957,0.0143871295,0.0216600431,0.0210536625,0.0242664739,-0.00297326036
103259.776566,0.0430000606,0.00992079777,-0.00289805953,0.0192666817,0.0202253927,-0.00150426105
103259.786595,0.0588780132,0.00610913053,0.00677577775,0.0132117178,0.0164144095,-0.00344037917
103259.796624,0.0770817784,-0.0344920522,0.000278232419,0.00516790617,0.00751598878,8.40481371e-05
103259.806653,0.0485708464,-0.0572591798,-0.0425116925,0.00227225129,-0.000869239913,0.000586320646
103259.816683,0.0342906844,-0.0343187414,-0.0519347699,0.00100165699,-0.00626853295,0.00046914164
103259.826712,0.0159568631,-0.0276487622,-0.0609662176,0.004978023,-0.00905073714,-0.000495987944
103259.836741,0.031911388,-0.0167921448,-0.0432639722,0.00773998722,-0.0139709273,-0.00033406727
103259.846770,0.060902797,-0.0401309349,0.00553892943,0.0072616837,-0.0164766945,0.00267636962
103259.856799,0.0820826554,-0.0495697943,0.044248307,-0.000444972073,-0.017796291,0.00546816131
103259.866829,0.0749786686,-0.00630699119,0.0701303518,-0.0041302545,-0.01670333,0.00543327397
103259.876858,0.0607329934,0.0256447289,0.0772176797,-0.00732152024,-0.0147656146,0.00373391062
103259.886887,0.0379933383,0.0688204382,0.0757072752,-0.0108400891,-0.0147504341,-0.00274103228
103259.896916,0.0186731363,0.0599108633,0.118517074,-0.00783311389,-0.0118766176,-0.00599408429
103259.906946,-0.0220408592,0.0660877984,0.144992408,-3.43126594e-05,-0.0018450222,-0.0105158649
103259.916975,-0.0446513349,0.064608958,0.180723647,0.0121919932,0.01559602,-0.0129414722
103259.927004,-0.0359811217,0.0373947879,0.205100548,0.0166546535,0.0307499394,-0.012197651
103259.937033,0.00573065261,-0.00832154588,0.227637374,0.0130668422,0.0428055376,-0.00877176039
103259.947063,0.052904784,-0.0424213839,0.178459794,0.012712908,0.0492067114,-0.0076444447
103259.957092,0.0799365833,-0.0402563148,0.0832166279,0.0188219324,0.0493973941,-0.00295035727
103259.967121,0.0779080001,-0.0119701315,0.0432031819,0.0241703596,0.0464532673,-0.0032654088
103259.977150,0.0759746939,0.0139817636,0.0374222604,0.0239953902,0.0441850573,-0.00633550156
103259.987180,0.0578819879,-0.00791325734,0.0431640189,0.023695251,0.0420044586,-0.00786815025
103259.997209,0.038807285,-0.0173605924,0.00849193401,0.0233706124,0.0445957109,-0.00868121348
103260.007238,0.0157198394,-0.0161123459,-0.00120236153,0.0261956938,0.0459872112,-0.00718718022
103260.017267,0.0284483881,-0.0170887897,-0.00650046794,0.0189074203,0.0437972993,-0.00619115774
103260.027297,0.0338189752,-0.0563464489,-0.0211257901,0.00813413505,0.0336370692,-0.00624388829
103260.037326,0.0685363606,-0.0542649664,-0.00377367332,-0.00366526633,0.0294545777,-0.00253144186
103260.047355,0.0788686618,-0.0204097508,-0.0352501771,-0.00448791683,0.0221479293,-0.00129600149
103260.057384,0.0585392827,0.0278857858,-0.0822685334,-0.00290386868,0.0168588907,-9.695068e-06
103260.067414,0.0635112259,0.055456222,-0.0501654221,-0.00513453223,0.00733702444,-0.00442947727
103260.077443,0.027964404,0.024132863,-0.0269692555,-0.0105183786,-0.00275795395,-0.00753605366
103260.087472,0.0354386854,-0.00510667549,0.0106219318,-0.0130087007,-0.00885845721,-0.00540312845
103260.097501,0.0301785729,-0.0120689157,0.0579348871,-0.0107852211,-0.00635064859,-0.00420453958
103260.107530,0.0178247028,0.00833703571,0.0865326205,-0.0105788261,0.00169902202,-0.00278321002
103260.117560,0.0156754158,0.0016769933,0.101351419,-0.0103617785,0.00479175104,-0.00249505602
103260.127589,0.038359249,-0.0165989604,0.114641694,-0.0103154397,0.00818808004,-0.000465993769
103260.137618,0.0482639724,-0.0105979664,0.0808808784,-0.00274700276,0.0114754867,0.000697541051
103260.147647,0.0375993706,0.00984422541,0.0537988102,0.00669736555,0.0109069012,-0.00157413539
103260.157677,0.0329883696,0.0375716058,0.0679395638,0.00736262323,0.00895214081,-0.00268600509
103260.167706,0.0344315542,0.033038054,0.089282796,0.00248184777,0.00992313027,-0.00603599567
103260.177735,0.045587739,-0.0104895376,0.101142161,-0.000289171265,0.0114552462,-0.00330705382
103260.187764,0.0623182167,-0.0499742835,0.0738110861,0.00141871395,0.016022034,-0.000248413533
103260.197794,0.0454714191,-0.0027583588,0.0877566094,0.00309890229,0.0240578558,0.000665849075
103260.207823,0.0504021535,0.0211588156,0.0791162068,0.000785147946,0.0240112506,-0.00179757457
103260.217852,0.0643976534,-0.00511778141,0.0332435134,0.00101524498,0.0185315311,-0.00406285934
103260.227881,0.0629845717,0.0175268889,-0.00897884075,0.00399452308,0.0137769906,-0.00221648999
103260.237911,0.0317214184,0.00166004217,0.0162391871,0.00451730192,0.0143951103,-0.00286470354
103260.247940,0.0229211491,0.0206105341,0.0398456882,0.00171858585,0.0131697897,-0.0023983838
103260.257969,0.0326548999,0.0151513919,0.0537362664,-0.00531695317,0.0118768252,-0.00325458962
103260.267998,0.0452168598,-0.0167857151,0.0578553921,-0.00622189511,0.00774066895,-0.00151634496
103260.278028,0.0297556713,-0.0125225047,0.0621855303,-0.00543493126,0.0128922882,-0.00362050813
103260.288057,0.0274278129,-0.00257394214,0.0384112715,-0.00250465493,0.0171040762,-0.00267828163
103260.298086,0.0353153513,0.00637070408,0.00969604911,-0.0014353958,0.0142789958,-0.00438350346
103260.308115,0.050487786,-0.0112128834,0.009119126,0.000154245063,0.0050490126,-0.00198905542
103260.318145,0.0540022238,-0.00693593674,-0.00594575666,0.000135869253,-0.000987308566,-0.00138798077
103260.328174,0.0399441801,0.0122650228,0.0210123929,0.00668325089,-0.000639233505,-0.00179917272
103260.338203,0.0106581721,0.0195201085,0.0510328526,0.00885186344,0.00231607631,-0.00388096552
103260.348232,0.0149015088,0.018352526,0.121115858,0.000370227383,0.00669378042,-0.00485994387
103260.358262,0.0370370605,-0.0148515322,0.167000242,-0.00486528082,0.0104507022,-0.00423862785
103260.368291,0.0465258966,-0.0214490307,0.117034726,-0.00514571182,0.0184250046,-0.0034399461
103260.378320,0.030327626,0.0078746789,0.0572895749,0.0028810557,0.0213885698,-0.00296084303
103260.388349,0.0112678285,0.02009294,0.0419014517,0.00686967187,0.0213608723,-0.00386658404
103260.398379,0.0207727389,-0.00198766669,0.0758130736,0.00650082435,0.0216631424,-0.0058815321
103260.408408,0.0174386261,-0.00450432568,0.0841594617,0.00751841767,0.0253444295,-0.00265457947
103260.418437,0.0315875629,-0.00841974556,0.0558925676,0.0135249123,0.0275577828,-0.00379361399
103260.428466,0.0331061508,0.0182581257,0.0264192204,0.0158719551,0.0262805298,-0.00230197702
103260.438496,0.048907531,0.0290676891,0.0279191035,0.00600387808,0.0196716301,-0.00517472904
103260.448525,0.0525824202,0.0156526194,0.043031917,0.0040653632,0.013410273,-0.00820407458
103260.458554,0.0757566673,-0.0161430333,0.00319616569,0.00618257653,0.0126752406,-0.00452305377
103260.468583,0.0317716873,-0.0240410931,0.0463484942,0.0125970664,0.0154238893,0.000174229965
103260.478613,0.0125619599,-0.0111056236,0.0544049594,0.0169249699,0.02240723,0.00206480781
103260.488642,0.0135147306,-0.0197051097,0.0650806672,0.0153896566,0.0199384782,-0.000103537925
103260.498671,0.0123401339,-0.0393713487,0.0484276386,0.014664745,0.0164430812,-0.000312861986
103260.508700,0.000950724854,-0.0472311223,0.0667950699,0.0174791738,0.0178747959,0.000151859596
103260.518730,0.0216562438,-0.013264263,0.117636199,0.0191439148,0.0254805163,0.00183151523
103260.528759,0.0514087002,0.000292553206,0.130831196,0.016128419,0.0309099033,0.00199689716
103260.538788,0.077104867,-0.00409925201,0.105645317,0.0096257776,0.0331485569,0.000428029336
103260.548817,0.086757077,0.0314212664,0.035407998,0.0124687022,0.0341123529,0.000278359279
103260.558847,0.0763683694,0.0404497915,0.00095277068,0.0138370348,0.0330055468,-0.00149610452
103260.568876,0.0469356464,0.031722003,-0.01096037,0.0164916739,0.0293578133,-0.00287109427
103260.578905,0.0342097281,0.01587503,-0.0170668701,0.015228536,0.0237358809,-0.00529297348
103260.588934,0.0560287612,-0.0151516842,0.00582943681,0.0127637805,0.0188745465,-0.00663201138
103260.598964,0.0431508672,-0.0241150351,0.00152267952,0.0102822473,0.0159067195,-0.00419654977
103260.608993,0.0295174786,-0.00437222373,0.0166442608,0.0058504804,0.0162587892,-0.00353235751
103260.619022,0.0295639481,0.0021095395,0.00962999813,0.000145722937,0.00870553218,-0.00195283722
103260.629051,0.0426972782,-0.00972936685,0.0228957224,-0.0071193804,-0.000434170011,-0.00342476554
103260.639081,0.0559817072,-0.0318137729,0.0408867217,-0.00733243348,-0.00015933183,-0.00331211463
103260.649110,0.0378726345,-0.0261070857,0.0654945087,-0.00162874139,0.00376164028,-0.00203379709
103260.659139,0.0219008662,-0.00050415013,0.0770890849,0.00827049557,0.00991167873,-0.00282448903
103260.669168,0.0149117379,0.0185959794,0.0680325027,0.00952857267,0.0141554251,-0.00283940323
103260.679198,0.035447161,-0.00746902071,0.0538087471,0.00808460638,0.0142523646,-0.00239332393
103260.689227,0.0348696533,-0.0153723412,0.0479874936,0.00524008367,0.0146244084,-0.00205403659
103260.699256,0.0421355527,-0.00115823012,0.0356377151,0.00431303727,0.0139373122,-0.00245244615
103260.709285,0.0494330162,0.006235095,0.0262491245,0.0054302332,0.0107353944,-0.00164710544
103260.719315,0.0569511368,-0.00349660994,0.0290162511,0.00126744644,0.00773454364,-0.00181967858
103260.729344,0.0562768908,-0.0265375861,0.0236690449,0.00411942555,0.00522051984,-0.000168252736
103260.739373,0.0341705651,-0.0188777189,0.0176297647,0.00857968815,0.00555527955,0.000149196014
103260.749402,0.0160506788,-0.00188449857,0.0337052857,0.0110175461,0.00771989673,0.000483955257
103260.759432,-0.00591273118,0.00420125108,0.052378422,0.00583103905,0.00964882411,-0.00144896656
103260.769461,0.0197369661,-0.0367015449,0.0875005888,0.00100752176,0.00934841949,-0.00198319647
103260.779490,0.0435822444,-0.0406099505,0.0490086533,0.000881288026,0.00903709605,0.00163523993
103260.789519,0.0453173976,-0.0119379828,0.0219873754,0.00305176433,0.00680297054,0.00188584346
103260.799549,0.0384498499,0.015887305,0.0362263286,0.00455724914,0.00211713836,0.000438149087
103260.809578,0.0466498152,0.000855447786,0.0368611194,0.00119128008,-0.00565290079,0.000246668234
103260.819607,0.0642097296,-0.0256681097,0.0503016157,0.00204002927,-0.00903671235,0.00089701172
103260.829636,0.0234881354,-0.0188201435,0.0866553701,0.00390663883,-0.00578419399,0.00225788727
103260.839666,-0.0100479313,0.0181932438,0.10558745,0.00717460411,0.00471425289,-0.000451346859
103260.849695,-0.0129608961,0.0516869326,0.115361825,0.00692453329,0.0127426181,-0.00251582917
103260.859724,-0.0100870943,0.0052457917,0.0995458314,0.0082505215,0.017634578,-0.00459309481
103260.869753,0.0371750077,-0.0244829916,0.0865232682,0.00463394821,0.0204825625,-0.00242501497
103260.879783,0.0434144866,-0.0176855866,0.0538052399,0.00856344309,0.0186985116,-0.000293155201
103260.889812,0.0326607451,0.00647767158,0.0281657718,0.00959967915,0.0178494956,-0.00135469064
103260.899841,0.0346031113,0.000939326677,0.0326964009,0.00786036812,0.0144358566,-0.00290145446
103260.909871,0.0459875519,-0.0228346399,0.0496434441,0.00306055276,0.0117841465,-0.00274299644
103260.919900,0.013143267,-0.0438955481,0.0434849215,0.00379052525,0.0106381886,-0.00157706439
103260.929929,-0.00580050297,-0.0177200733,0.028678982,0.00594342453,0.0141591541,-0.00122739188
103260.939958,0.0190226804,-0.00179039055,0.0128244103,0.0107642794,0.0144196106,-0.00240770448
103260.949988,0.0216664729,-0.0246162626,0.00372749609,0.0102750566,0.0112613682,-0.00320771802
103260.960017,0.0625964492,-0.056276014,0.011042203,0.00991046987,0.00787409395,-0.0019096937
103260.970046,0.0565364185,-0.0296665317,-0.00454173508,0.00816689804,0.0070881946,-0.00111101195
103260.980075,0.0363718746,-0.0191425074,0.00575052635,0.00498495298,0.00348014408,-0.00060927216
103260.990105,0.0366600439,-0.000655249038,0.025781507,-0.000730190775,-0.00136174913,-0.00361678004
103261.000134,0.0342851314,-0.0174272279,0.0252712194,-0.00585038448,-0.00979384966,-0.00480321795
103261.010163,0.0571329231,-0.0488417723,0.0451245054,-0.00522241089,-0.0114324922,0.000568377785
103261.020192,0.0432423449,-0.019773791,0.0816939483,6.2099658e-05,-0.00410587061,0.00134389009
103261.030222,0.013397534,0.0105813075,0.113863111,0.0014959455,0.00469534472,0.00179662788
103261.040251,0.0184881351,0.0334355289,0.0971662428,0.00193616608,0.0111031765,0.00226694206
103261.050280,0.042504386,0.0326432095,0.0924386297,-0.000994908973,0.0132310418,0.00118862838
103261.060310,0.0404892468,0.0432668948,0.0769739341,-0.000658818055,0.00991327595,0.00119981356
103261.070339,0.0349926952,0.0374126158,0.0666974547,0.00441663433,0.00914282352,0.00162938097
103261.080368,0.0379383933,0.0399658074,0.0829962631,-0.00249932869,0.00929409079,-0.00287748594
103261.090397,0.044827276,0.00681961689,0.100196404,-0.00633721007,0.0104597565,-0.00268733688
103261.100427,0.0550321514,-0.031169922,0.104231359,-0.00542338239,0.0119225224,0.000904023647
103261.110456,0.0357286082,-0.0154565123,0.0736696318,0.00486174598,0.0174065027,0.00229392713
103261.120485,0.00967003788,0.0129129653,0.0327057533,0.0150637832,0.0232912898,0.0017282716
103261.130514,-0.012824118,0.0315586291,0.0300561156,0.0165961664,0.0232734475,-0.00145234168
103261.140544,0.0263365105,0.00102320557,0.0177203656,0.0139798764,0.0223919414,-0.00230961293
103261.150573,0.0526952329,-0.0598790069,-0.0128740946,0.00974678248,0.0177660305,0.000140228309
103261.160602,0.0724368752,-0.0596691635,-0.0392722722,0.0100570405,0.0137968548,0.00147686945
103261.170631,0.0622170945,-0.0450999554,-0.0385176544,0.00553206354,0.00475515658,0.00150057115
103261.180661,0.046403147,-0.0425157842,-0.0265571675,0.000215328881,-0.000990879838,-0.00261960551
103261.190690,0.0463724596,-0.057652563,-0.0403881245,4.0359213e-05,-0.00845172536,-0.0028664805
103261.200719,0.047024786,-0.0544029136,-0.0279465761,0.00305931875,-0.0119295474,-0.000115700997
103261.210748,0.0291977452,-0.0447697006,-0.0102051677,0.00613526953,-0.00835691672,0.00215570908
103261.220778,0.0162742585,-0.0361164385,0.0451683445,0.00057938305,-0.00503009651,0.0028518592
103261.230807,0.0262573078,-0.0480669886,0.0673725775,-0.00865938887,-0.00633398024,0.00104943197
103261.240836,0.0316641353,-0.0482560814,0.0385001188,-0.0100005567,-0.00788154267,0.00198606541
103261.250866,0.0418617042,-0.0339332493,0.0213935012,-0.00993823912,-0.0115641616,0.00138179446
103261.260895,0.0380664035,-0.00670095894,0.0121878659,-0.00995395146,-0.0154720843,-0.00347155053
103261.270924,0.0503641596,0.0098921562,0.0339917015,-0.0109907202,-0.0214644633,-0.00522737205
103261.280953,0.039488253,-0.0385918887,0.0506716181,-0.010238111,-0.0241883434,-0.00336635578
103261.290983,0.022629765,-0.0411541404,0.0821820241,-0.00438687997,-0.0222061537,-0.00267233606
103261.301012,-0.00611702158,-0.0297021876,0.118878893,0.0017644898,-0.0143168047,0.00146035757
103261.311041,-0.0343520592,-0.0109594932,0.153548055,0.00623087678,-0.00290089892,0.000807883218
103261.321070,-0.0131871061,-0.0219026197,0.188429399,0.00533791911,0.0051003024,0.00208726572
