t,ax,ay,az,gx,gy,gz
94190.567510,-0.309842078,0.176279441,-0.156515033,0.0157824464,-0.0218836528,0.00660547823
94190.577537,-0.456236973,0.114212962,-0.150250712,0.00978367478,-0.0322729119,0.00498387985
94190.587564,-0.538179343,-0.105714486,-0.0206212922,-0.00610634191,-0.0369829789,0.00275907502
94190.597591,-0.571774374,-0.144521643,-0.036116383,-0.0186213341,-0.0342441828,0.000512166172
94190.607619,-0.550309561,0.0183873291,-0.0717096744,-0.0121807467,-0.0282368914,-0.000393841192
94190.617646,-0.55333658,0.174205412,-0.0451162665,0.0026381475,-0.0227358651,0.00128394993
94190.627673,-0.576028232,0.185891191,0.034527179,0.00226956611,-0.0157448009,-0.00163753774
94190.637700,-0.612096301,0.0842391268,0.0533826861,-0.000798928152,-0.0137053535,0.00229168985
94190.647727,-0.681371059,0.0332909568,-0.0696170861,-0.000308640164,-0.0172268499,0.0035353864
94190.657754,-0.757672501,0.0729000186,-0.171772223,0.00518146651,-0.0211078741,0.0239911277
94190.667782,-0.785044419,0.0597912522,-0.191287071,-0.00626266952,-0.0260973063,0.0103754487
94190.677809,-0.9117589,-0.04446599,-0.0952349269,0.00269220984,-0.0281609905,0.0191167418
94190.687836,-0.940199032,-0.175791044,-0.107043438,-0.00557370968,-0.0340212763,0.0202640325
94190.697863,-1.05882242,-0.132849481,-0.0716927233,-0.0109021628,-0.0369520851,0.0239578367
94190.707890,-1.16233839,-0.0547478214,-0.181744751,-0.0138090031,-0.0389971279,0.0237844654
94190.717917,-1.27475152,0.106379209,-0.19240117,-0.0108614165,-0.0455500998,0.0228691373
94190.727945,-1.37667548,0.214245161,-0.196582255,-0.0012716392,-0.0456145511,0.0211319562
94190.737972,-1.41635064,0.262681933,-0.152900934,0.00399635993,-0.0441186533,0.0228417062
94190.747999,-1.44776211,0.204984453,-0.126770467,0.00144345365,-0.0374301218,0.020382277
94190.758026,-1.45615278,0.132298096,-0.101150288,0.00324960919,-0.0326497473,0.0240025793
94190.768053,-1.47076816,0.078420321,-0.143671918,0.0119477592,-0.0261132859,0.0280857359
94190.778080,-1.44602886,-0.0509767465,-0.131653563,0.0174911309,-0.0175893058,0.0374805715
94190.788108,-1.36620246,-0.264710011,-0.0560935876,0.0010778015,-0.0119513955,0.0490187157
94190.798135,-1.27339909,-0.405884049,0.08221832,-0.00848667528,0.00362889608,0.057964274
94190.808162,-1.15582317,-0.33712093,0.176385381,-0.00394971384,0.0169154077,0.0683002707
94190.818189,-1.18127303,-0.230355413,-0.0367073346,-0.016653524,0.019996152,0.0683146503
94190.828216,-1.18650362,-0.0776554535,-0.200260651,-0.034110279,0.0164597395,0.0708595675
94190.838243,-1.21488435,0.153078215,-0.261828926,-0.0334615346,0.00309013854,0.070102432
94190.848271,-1.29902613,0.475196045,-0.189238322,-0.00450311899,-0.00400106074,0.0666224745
94190.858298,-1.31167621,0.66842119,-0.096706753,0.0226227742,-0.00641841186,0.0542334516
94190.868325,-1.25450632,0.472238401,-0.0297632146,0.034154794,-0.00662587234,0.0598061134
94190.878352,-1.26546333,-0.0290114413,-0.0430780387,0.0280950375,0.00410933024,0.057789569
94190.888379,-1.19202334,-0.273575144,-0.168245803,-0.00504347421,0.00927746086,0.0583624144
94190.898407,-0.993224374,-0.499176994,-0.322636738,-0.0294529434,0.0212212063,0.069840641
94190.908434,-0.80074906,-0.542064241,0.0350444809,-0.0479331512,0.0270471375,0.0721519974
94190.918461,-0.966015245,-0.176628042,-0.235890767,-0.0305344529,0.0029977269,0.0700840515
94190.928488,-0.876081365,0.0855706677,-0.154897076,-0.00284610009,0.0206345122,0.0758356836
94190.938515,-0.595346023,0.0175991516,0.610985005,0.0436156716,0.0332685492,0.0767589968
94190.948542,-0.792111142,-0.078579683,0.174033265,0.0452785518,0.0164054118,0.0793052476
94190.958570,-0.875768134,-0.38722874,-0.513869504,-0.00221519726,0.0278045412,0.0846992147
94190.968597,-0.542350638,-0.495930815,-0.0679114512,-0.0577748653,0.0196621909,0.085712814
94190.978624,-0.852504455,-0.175250306,-0.477532701,-0.0318372708,-0.0164380216,0.0976043579
94190.988651,-0.878574935,0.344342527,-0.242478914,0.0372672293,0.0215120229,0.0910431307
94190.998678,-0.434034713,0.277352884,0.498762647,-0.00360297034,0.0144213557,0.0957055252
94191.008706,-0.60600003,-0.33744523,-0.458351615,-0.0148934426,-0.00698433375,0.0993695047
94191.018733,-0.60370359,-0.43885101,-0.552621552,-0.00922517031,-0.0165373583,0.102473148
94191.028760,-0.627542219,-0.475609509,0.516856522,-0.0312210146,0.0154767667,0.0941552978
94191.038787,-0.645973436,-0.197470065,0.57233934,-0.0377444301,-0.00742668496,0.0925547418
94191.048814,-0.762838724,0.106466522,-0.211070799,-0.0463179436,0.031260791,0.0903256771
94191.058841,-0.339459217,0.433059213,0.50354579,-0.00628024637,0.0299534451,0.0839191761
94191.068869,-0.768324462,0.684118891,-0.681473557,0.0665609416,0.00905402167,0.0747959849
94191.078896,-0.753497626,0.299164812,-0.693808723,-0.0100952249,0.03054227,0.0675047797
94191.088923,-0.404866194,-0.515431013,0.354386909,-0.040822779,0.00793309672,0.0692358401
94191.098950,-0.564606309,-0.211060583,-0.117055129,-0.0183270548,0.0144495859,0.0518078443
94191.108977,-0.345129372,0.36829448,0.228258776,0.0167968448,-0.00556513505,0.0471584957
94191.119005,-0.557215979,0.168174461,0.382251652,-0.0150399163,0.0355436846,0.0402832788
94191.129032,-0.7194162,0.219566648,0.114228492,-0.0944931928,-0.0330670655,0.0320730221
94191.139059,-1.01473602,0.677838057,-1.3972662,0.0092941856,0.0280205223,0.0193708085
94191.149086,0.0264096192,1.24050058,-0.208624575,0.0497974034,-0.0125756406,-0.0195752594
94191.159113,-0.639734396,0.448406201,-0.171439046,0.0548132014,0.0141340007,0.00193456024
94191.169141,-0.202741228,-0.762769332,0.80675483,-0.0362357508,-0.0121359529,0.00449918419
94191.179168,-0.648772858,-0.434447551,-0.0658404901,-0.00165460184,0.0185657691,-0.00798411645
94191.189195,-0.0691063721,0.26189323,-0.161011175,-0.00759291807,0.0193039968,-0.0163818623
94191.199222,-0.145439451,-0.0166019412,-0.280168885,0.000526793409,0.00149330718,0.0141382294
94191.209249,-0.198045325,-0.00339486542,0.0572083819,-0.0364123184,0.00803669425,-0.0192442264
94191.219277,-0.330741877,0.52980007,0.647801116,0.0349619973,0.00335645466,0.000927086212
94191.229304,-0.148549692,0.22453618,0.249426067,0.0281019628,0.0539900705,-0.028277139
94191.239331,-0.0435458144,0.332582093,0.270858147,-0.00948775764,-0.000191674922,-0.0217185717
94191.249358,-0.502663793,-0.391716772,-0.475924097,-0.0489528749,0.0229607827,-0.0115628725
94191.259385,-0.10830726,-0.295208701,0.081805063,0.0311478198,0.0106639021,-0.00839877106
94191.269413,-0.355836132,0.0493381468,-0.820923529,0.0733173814,-0.00666289055,-0.0230655994
94191.279440,-0.310703882,-0.570416622,-0.979558678,-0.0610020805,-0.0303351947,-0.00470470056
94191.289467,0.180288441,-1.48373149,0.649746405,-0.07766628,0.0168341796,0.0203385998
94191.299494,0.163979184,-0.432655151,0.864339004,-0.0336695287,0.00165922206,0.00233936053
94191.309521,-0.120127242,0.575139132,0.248852067,0.0202317897,0.0458796814,-0.0100448707
94191.319549,-0.0753359872,0.646748653,0.00409989206,0.0253674284,-0.0229947243,-0.00945364848
94191.329576,-0.741045337,0.19725395,-0.982532141,-0.0497169357,-0.0185594962,-0.00895031147
94191.339603,0.0213448832,-0.212599008,0.214161277,-0.035039724,-0.0196894754,0.00784597848
94191.349630,-0.250616055,0.0900170892,0.18562258,0.0141978644,-0.0399611921,-0.0218011278
94191.359657,-0.517937423,0.487299265,0.917961873,0.0443778697,0.0243301808,-0.0244786728
94191.369685,-0.431884257,-0.0958218001,0.683468642,0.019352679,-0.024853877,-0.0216517251
94191.379712,-0.732314626,-0.0845796998,-1.14960837,-0.00838094782,0.0152298917,-0.0343526069
94191.389739,-0.276854073,-0.00536655365,-0.880323813,-0.0973675448,-0.101455714,-0.0237678762
94191.399766,-0.916405776,-0.197548373,0.494445368,-0.0762316335,0.0162831719,-0.0275391776
94191.409793,0.133388085,0.558330109,3.06295146,0.124770189,0.0977069258,-0.0326178249
94191.419821,-1.19643326,1.05642755,-1.30519524,0.258586841,-0.0246682551,-0.0327089045
94191.429848,-1.84753928,0.1734246,-4.71612596,-0.030974406,-0.0864895464,-0.0687025923
94191.439875,-0.33505258,-1.89201228,-0.133303669,-0.264930439,-0.0239364181,-0.0148444192
94191.449902,0.356095674,-1.45898327,1.70155204,-0.123687294,-0.043586287,0.0107070126
94191.459929,-0.89292692,0.867170177,0.450184202,0.153221789,-0.0104586941,-0.028855576
94191.469957,-0.726753119,1.12039127,0.553040181,0.121925126,-0.00213338552,-0.0320132885
94191.479984,-0.641908744,-0.76727395,0.35051679,-0.0595165726,-0.0372964323,-0.0112233197
94191.490011,-0.851986788,-1.00216436,-0.188057003,-0.122521897,0.0325580172,-0.00975298859
94191.500038,0.339703561,0.24990538,0.94448923,0.0787038904,0.11549018,0.00389997311
94191.510065,-0.206333553,0.717832652,-0.26818151,0.0035328812,0.0122147461,-0.0156936485
94191.520093,-1.88491449,0.366351456,-0.648244657,-0.0205548789,0.0589734658,-0.0149130744
94191.530120,-1.17826274,0.607498446,-1.00606149,0.0477940876,-0.0505660765,-0.0372423518
94191.540147,0.101344887,-0.116611764,1.06478267,0.0223627601,0.0227376937,-0.0382759224
94191.550174,0.104250034,-0.117211794,1.0650761,-0.0385229599,-0.100316855,-0.0247752953
94191.560201,-1.46334196,0.0717760333,-0.0441120579,-0.0194193061,-0.029665326,-0.0497741203
94191.570229,-0.444376293,0.829584323,1.28847393,0.121453392,-0.0210819573,-0.0358894642
94191.580256,-1.02692184,0.672664527,-0.432492367,0.121039006,0.015242228,-0.0648894224
94191.590283,-0.718561337,-0.059971826,-0.0914255978,0.00262953695,0.0117907708,-0.0333884906
94191.600310,-0.786597128,-1.26960534,-0.736674051,-0.0247072775,0.0401228114,-0.0111071521
94191.610338,-0.784240774,-0.854681599,-0.781889157,-0.0108420636,-0.0627894581,-0.018333907
94191.620365,-1.15696744,-0.512220198,-0.540654635,-0.0627460081,-0.00728864666,-0.0193094227
94191.630392,0.0450305139,-0.502383827,2.53189052,-0.0443422321,0.0921705633,-0.0238770086
94191.640419,0.173703656,0.533074927,1.18340729,0.186907488,0.0517131544,-0.016983683
94191.650446,-1.23861477,0.515790213,-2.46414257,0.100824813,0.0132123667,-0.0399020489
94191.660474,-0.779168878,-0.900457847,-1.10211188,-0.172939894,-0.0120903265,-0.00987490803
94191.670501,-0.05247519,-1.40327644,0.0346125192,-0.203932968,0.0162206727,0.0130216202
94191.680528,0.282949408,0.380088634,1.95569398,0.0960044961,0.114638057,-0.0253020662
94191.690555,-0.125663614,1.5946206,0.69157596,0.119181449,0.0433058224,-0.0347203377
94191.700582,-0.861340673,0.772362407,-1.65467386,0.0612252083,0.0405475877,-0.0303333129
94191.710610,-0.259292113,-0.172472567,-2.01000589,-0.118601811,-0.103691611,-0.0480550516
94191.720637,-0.360217343,-0.869545041,1.07352653,-0.0541157659,0.0702772557,-0.00794651151
94191.730664,1.41749712,-0.330921016,3.55505985,0.0183019739,0.0697435557,-0.00573369186
94191.740691,-0.776150772,0.553070106,0.0162129392,0.132450375,0.0969131261,-0.0233459759
94191.750719,-0.599128683,0.792832875,-1.99777652,0.111304621,-0.000309034605,-0.0221672605
94191.760746,-0.763654863,-0.559038246,-3.01223297,-0.16200575,-0.0433875278,-0.0102839691
94191.770773,0.232232271,-1.21735296,0.559536557,-0.236529795,-0.0161553763,0.0151042121
94191.780800,0.996004666,0.220792226,2.44925959,0.0134592818,0.0902837187,0.0074561464
94191.790827,0.311840937,1.93758561,0.91997029,0.208643677,0.0113292455,-0.0173141796
94191.800855,-1.29467276,1.53684587,-1.50398529,0.186173531,-0.0378747836,-0.0345911745
94191.810882,-0.602661752,-0.229231122,-0.744032013,-0.0715879697,-0.0149279248,-0.0415854331
94191.820909,0.539818576,-1.3984382,0.891505243,-0.0907789741,0.0446259498,0.0236644104
94191.830936,0.459306823,-0.639919855,0.857904587,0.0148446577,0.057627768,-0.00481037401
94191.840964,-0.464166597,0.937034571,-1.1090256,0.0767884504,-0.0346126773,-0.0302789833
94191.850991,-0.826104013,0.0760797264,-1.77338149,-0.0519029472,-0.0662065551,-0.0124797446
94191.861018,0.0645730534,-1.34292557,1.56108617,-0.00667315088,0.0323192149,0.0372507919
94191.871045,0.744412855,-0.509976839,2.4805958,0.0124163877,0.031149822,-0.00303937193
94191.881072,-0.586327142,0.522534244,-0.43127773,0.0361217175,-0.00130292646,-0.000795658454
94191.891100,-0.361208838,-0.241577594,-1.02425356,0.0601343762,0.0895092681,0.0485868018
94191.901127,0.380567779,-0.819206601,-1.71504445,-0.0730788086,-0.122644532,0.0376798299
94191.911154,-1.12435945,-0.5389342,-2.17589145,-0.193882195,0.000787122461,-0.00205080654
94191.921181,0.898384542,0.275281722,3.28701915,-0.00311543392,0.063176465,0.0170560416
94191.931209,0.382923329,0.848554251,1.25641934,0.133087667,-0.00431229803,0.000213413723
94191.941236,-0.577443725,1.00110117,-0.473881193,0.123424399,0.057182756,0.0130836714
94191.951263,0.481495639,-0.373819552,0.171293026,-0.126964149,0.0299793619,-0.00596671809
94191.961290,-0.0378995521,0.105764675,-1.51751346,-0.016951089,-0.0437180244,-0.0189216647
94191.971318,-0.368890479,0.733715427,-1.09181728,0.15884203,0.0105928814,-0.0235260043
94191.981345,0.210500112,-0.315944286,1.66252819,0.0718794491,0.0102402789,-0.015118405
94191.991372,-0.0396159276,-1.51044136,1.11776314,-0.134032172,0.020286788,0.00812673032
94192.001399,0.197656778,-0.703916234,-0.445915912,-0.136121956,-0.0353173495,-0.0216609936
94192.011427,-0.266535582,1.24078028,-1.49790743,0.0742573839,0.0125436464,-0.0278981167
94192.021454,0.199740891,1.0176503,0.241919053,0.103026981,-0.00743938215,-0.00618190203
94192.031481,-0.26300317,-0.49318601,0.594751078,-0.0797726635,-0.0104756525,-0.00278583892
94192.041508,-0.0679444887,-0.516986572,0.795409844,0.00117571738,0.052969367,-0.00727406494
94192.051536,0.26325387,0.45510358,-0.708923874,0.151518347,-0.0403541878,-0.026744968
94192.061563,-0.515738598,-0.150516244,-1.61970075,-0.0377016414,-0.0406724357,-0.0145181285
94192.071590,-0.249815771,-1.47878307,0.980839477,-0.192603615,-0.0487111874,0.0187229153
94192.081617,-0.308925547,0.0787484889,0.97302325,-0.0236851584,0.0899582773,-0.00116477232
94192.091644,1.41580273,2.26758606,-0.51135606,0.200522366,0.0123457739,-0.047470222
94192.101672,0.553480825,1.15788974,-1.10481061,0.088322873,0.06857789,-0.0452366273
94192.111699,0.455706899,-1.20549607,2.76144571,0.00865440611,0.0780776485,0.0191386354
94192.121726,0.871769507,-1.37843016,0.953667392,-0.0863285635,0.197961171,0.00863139912
94192.131753,1.76262573,0.0323725268,-0.0554435993,-0.0723967675,0.130924617,-0.00359943487
94192.141781,0.866364287,0.475331836,-2.20857733,0.0025533706,0.0995797485,-0.0093627812
94192.151808,1.11849758,0.710384017,-0.0488186282,0.0483251203,0.0730397522,-0.00747326925
94192.161835,0.943931218,0.176147193,0.470514458,-0.0296168152,0.0806934058,-0.0224439639
94192.171862,2.03375884,-0.0731621332,0.799832921,0.0720139395,0.0949889913,-0.0130528582
94192.181890,1.92367408,-0.442970867,1.14794143,-0.00639405166,0.111302715,-0.0126142351
94192.191917,1.91196552,-0.447207445,1.14662684,-0.058772837,0.130127256,-0.0247867468
94192.201944,2.03790456,-0.228540582,1.05326934,0.00361197703,0.19219463,-0.00680667885
94192.211971,2.19693105,-0.217878026,0.453209687,0.0342548404,0.267983679,0.00172502337
94192.221999,2.36985191,0.0368911367,-1.68484104,0.00854947772,0.102752101,-0.00379064936
94192.232026,1.17431153,-0.675314774,-3.55648363,-0.197096897,0.0760248869,-0.00575339865
94192.242053,2.31809279,-0.511687552,1.50499604,-0.0949769143,0.0370380736,-0.0026273809
94192.252080,2.2509283,0.502924375,2.03509076,0.15047625,0.0975650668,0.020227601
94192.262108,2.08026457,0.4818745,1.27026841,0.106478172,0.0935530111,-0.00528494898
94192.272135,1.92642805,-0.191976783,0.44492935,-0.0499990519,0.0844777569,-0.0100852975
94192.282162,1.65215927,-0.694503166,-1.07705518,-0.0660957295,-0.00908335136,0.0325857338
94192.292189,1.50971392,-0.0814039101,-1.85407883,-0.0312943395,-0.00978882355,0.0108711172
94192.302217,1.82217068,0.74879843,0.0965274159,0.0141849926,-0.060769181,0.0129118983
94192.312244,1.13411016,0.103665273,0.767470282,0.0171810489,-0.0621718646,0.018962865
94192.322271,1.58060795,0.0976461775,1.31832254,0.0324601371,-0.0103869692,-0.0014888791
94192.332298,2.20618432,0.180266374,0.215546594,0.0080807617,-0.0667397187,-0.00196318865
94192.342326,0.787769035,-0.388846222,-1.26396073,0.00451212544,-0.130336817,0.0265640591
94192.352353,0.457834778,-0.527306817,-0.588517626,-0.0493375223,-0.115014839,0.00840742722
94192.362380,1.40904288,-0.0235885121,0.402082727,-0.0599744555,-0.109661619,0.00812806118
94192.372407,1.07728587,0.0503343639,0.665160832,-0.0102311337,-0.117269206,0.0108839006
94192.382435,0.582337356,0.474543828,0.466665966,0.0605455663,-0.104957412,-0.00273017842
94192.392462,0.543000713,0.406256327,-0.175536544,0.0417575005,-0.11900692,-0.00125798281
94192.402489,0.438709514,-0.481179199,-0.356466527,0.002887331,-0.110200915,0.0139060554
94192.412516,0.461612177,-0.817606326,0.063872516,-0.0472147178,-0.107613649,0.0105893549
94192.422544,0.250736188,-0.55632274,-0.0480406295,-0.0221136261,-0.100553881,0.0218734343
94192.432571,0.331484526,-0.313098907,0.11808809,-0.00506406901,-0.0687884942,0.0160677445
94192.442598,0.361693713,-0.184491451,0.524531295,-0.0173436377,-0.0696726621,0.0209929936
94192.452626,0.0415886298,-0.276348956,0.256305305,-0.0181918565,-0.0517727577,0.0192126718
94192.462653,-0.289543167,0.100135163,-0.252864114,-0.0425014544,-0.0674385384,0.019977798
94192.472680,-0.283407148,0.0963859118,-0.252167948,-0.0422798816,-0.0537224554,0.0198994998
94192.482707,0.0172056645,0.423354908,0.0191466545,-0.0027050408,-0.0405328863,0.0236329858
94192.492735,-0.0503633855,0.488022903,0.100759939,0.0265074398,-0.0229115498,0.0284937855
94192.502762,-0.0847570918,0.264363657,0.230695063,0.0355390187,0.0121343189,0.0297436092
94192.512789,0.431452163,-0.0388169604,0.357643281,-0.00687334146,0.0284482229,0.0331020553
94192.522816,0.34078858,-0.382545259,0.319836405,-0.0550611105,0.0222340028,0.042742965
94192.532844,-0.0873134253,-0.0665272298,0.44111476,-0.0195475921,0.0215152155,0.0365425919
94192.542871,-0.187999294,0.686483282,-0.0240243787,0.0161725886,0.0185244854,0.0209103685
94192.552898,-0.0745585731,0.775424133,-0.256582258,0.00710452516,0.0106662956,0.0151275808
94192.562925,0.0793998895,0.466735456,-0.255339564,0.00720146466,0.0126729875,0.0147297049
94192.572953,0.18207452,0.428646365,-0.2441033,0.0223497905,0.0106279466,0.0103927471
94192.582980,0.258301728,0.251688537,-0.14750872,0.019244545,0.0358057364,0.0137115784
94192.593007,0.697684933,-0.098710142,0.409388081,0.0131672116,0.0484672047,0.0214720305
94192.603035,0.826902337,-0.359038419,0.276693429,0.00837964733,0.0575262129,0.0312439662
94192.613062,0.949973056,-0.503509031,0.316681156,-0.0168881595,0.0675042763,0.0338139173
94192.623089,0.936231165,-0.336333104,0.327510008,-0.0311065104,0.0638030141,0.0312719282
94192.633116,0.937500966,-0.0420573808,0.185299924,-0.000619440639,0.0782807588,0.0322999109
94192.643144,1.14920135,0.145648923,0.205952836,-0.00536546036,0.081115958,0.028473479
94192.653171,1.15698419,0.130871023,-0.00665998688,-0.0094491506,0.0726055622,0.0232763209
94192.663198,1.15205287,0.0931650135,-0.214804725,0.0126138067,0.0612676896,0.0230755184
94192.673225,1.27283832,-0.00873794348,0.00439390657,-0.0042823527,0.0731722831,0.0245104295
94192.683253,1.52348496,-0.18686651,0.490893813,-0.0308721524,0.0764772638,0.0268047426
94192.693280,1.36790467,-0.0847169802,0.212125972,-0.0217212636,0.0570782691,0.0244190835
94192.703306,1.22948631,0.273042528,-0.158864226,0.00921188463,0.0540124371,0.0124015689
94192.713335,1.38113372,0.331029931,-0.00604039368,0.0263189662,0.0374664857,0.00769416591
94192.723362,1.33068524,-0.0654765472,0.0317466084,0.00906594359,0.025905703,0.00925025087
94192.733389,1.34356708,-0.389043681,0.28962656,-0.0312918659,0.0120830981,0.00739056546
94192.743416,1.19523442,-0.315935628,0.0975403923,-0.039783356,-0.0166564055,0.00164319783
94192.753444,0.973222487,0.128408487,-0.228948401,-3.00831247e-05,-0.0359049358,-0.000180268437
94192.763471,0.939457726,0.314582618,-0.101854637,0.0203508221,-0.0498351299,0.00222829426
94192.773498,0.925163024,0.063264431,0.109728258,-0.0177582141,-0.054196588,0.00741746346
94192.783526,0.785433066,-0.034115144,0.23326696,-0.0166119907,-0.0661571131,0.00862467404
94192.793553,0.541466854,0.275542583,-0.140604931,0.0153286325,-0.0761378438,0.00330980377
94192.803580,0.450106156,0.382130844,-0.242312909,0.0175044358,-0.0876839787,0.00529465754
94192.813606,0.440943995,0.121643505,-0.0420183005,0.0147539236,-0.0843449042,0.00989553448
94192.823635,0.571067189,-0.0471603802,0.115534899,0.00646057334,-0.0741215602,0.0124550995
94192.833662,0.568454595,-0.112185226,0.208624686,-0.00743819792,-0.063541624,0.0137414059
94192.843689,0.373283467,-0.0386383342,0.23339497,0.0015917819,-0.0573449798,0.00595592078
94192.853717,0.212205674,0.124212971,-0.0077659023,-0.00593031682,-0.0601692603,0.00133506976
94192.863744,0.0754477178,0.148358411,-0.0911666546,-0.0129461477,-0.0659722865,-9.50477645e-05
94192.873771,-0.10907028,0.146336321,-0.0770627259,0.00378862354,-0.0748789639,0.000324666724
94192.883798,-0.299178353,0.187840207,-0.115436003,0.0231905494,-0.079285431,-0.00587384101
94192.893826,-0.390856446,0.0344334185,-0.0608632862,0.0156261072,-0.0796321735,-0.00387833431
94192.903853,-0.429400916,-0.28739136,0.0299065335,0.00117286672,-0.0777812779,0.00222989194
94192.913880,-0.530947785,-0.390902132,-0.0179213856,-0.00304850978,-0.0727305964,0.00786407594
94192.923908,-0.570124414,-0.351610789,-0.0921544966,-0.0170157246,-0.0644580156,0.00996584188
94192.933935,-0.532126692,-0.250033233,0.0744155373,-0.0292524185,-0.0527470328,0.0111861026
94192.943962,-0.64698802,-0.0388408117,0.119984864,-0.0177763246,-0.0457319983,0.0124431152
94192.953989,-0.811614884,0.217533663,-0.000744625358,0.00063650606,-0.0469123118,0.00497214891
94192.964017,-0.918763372,0.315199361,-0.164858498,0.00477878638,-0.0497206145,-0.00234408747
94192.974043,-0.966241894,0.193279037,-0.16823645,0.00569065363,-0.0502857373,-0.00396701764
94192.984071,-1.01564028,0.0381211854,-0.0749485102,0.0119562725,-0.0505573817,-0.00331108063
94192.994098,-1.08527079,-0.0328908583,-0.0994504988,0.0174642213,-0.0448752597,-0.00138162054
94193.004126,-1.10811383,-0.164876595,-0.0879248962,0.00067086092,-0.0442302406,-0.0022130597
94193.014153,-1.1620869,-0.225460006,-0.121900816,-0.00801397413,-0.0438060009,-0.00165912207
94193.024181,-1.21032859,-0.154476069,-0.181325649,-0.0112627635,-0.0393257656,-0.00136750635
94193.034208,-1.22358321,-0.00517362489,-0.064542267,-0.0143946411,-0.0325743847,-0.00331401058
94193.044235,-1.19520701,0.219659058,-0.0455312771,-0.00601607021,-0.0286707238,-0.00760090142
94193.054262,-1.21260676,0.372740135,-0.0933258784,0.012983986,-0.0175656073,-0.0107391698
94193.064290,-1.15705483,0.355465577,0.0571896772,0.0274449501,-0.0129796446,-0.00832634583
94193.074317,-1.17335802,0.101599829,0.0448042429,0.0187550548,0.0028464559,-0.00958362386
94193.084343,-1.04166524,-0.0775621583,0.0171470052,0.000676719871,0.0219607621,-0.010689901
94193.094372,-0.849881413,-0.10481761,-0.221923617,0.00312469742,0.0310029935,-0.00931943931
94193.104398,-0.715804878,-0.176456321,-0.206983237,0.00116594257,0.033870951,-0.000984543711
94193.114426,-0.701706137,-0.301064624,0.0909154212,-0.022838195,0.0372177444,0.00646671489
94193.124454,-0.743216324,-0.158119467,0.144012221,0.00317423237,0.0255698773,0.00608801352
94193.134481,-0.911146541,0.151650922,-0.421204665,0.0348999377,0.00913497782,0.00386240961
94193.144508,-0.914856866,-0.0256954121,-0.528303688,-0.00840572472,-0.020198676,0.0049500449
94193.154535,-0.812137885,-0.337594941,-0.0685257837,-0.0524522785,-0.0165397592,0.00504165724
94193.164563,-0.663037384,0.0954097602,0.473648664,0.0114699796,-0.0214698028,0.00424670404
94193.174590,-0.976758904,0.504147706,0.145966277,0.0516442943,-0.0111505857,0.00356759759
94193.184617,-0.984251671,0.297131096,0.138771982,0.0423450682,0.00292155728,0.000556095727
94193.194645,-0.950506053,-0.0639924643,-0.44251341,0.00605683755,-0.0117756298,0.00168394413
94193.204672,-0.849295284,-0.328198642,-0.69678277,-0.0129647899,-0.0117860159,0.0139914763
94193.214698,-0.698704179,-0.395908963,0.224134974,-0.0242850903,0.0065948551,0.0117509591
94193.224727,-0.832495248,0.0788925781,0.55651984,0.0304849491,0.0154791602,0.0139432729
94193.234754,-0.828183888,0.285335517,-0.215214475,0.0141957242,0.0202845677,0.00832400307
94193.244781,-0.741569215,0.0888511872,-0.481674039,-0.0230142299,0.00340492092,0.00547229055
94193.254809,-0.871530497,-0.00214742264,-0.384983597,0.0210576251,-0.0120797625,0.00924599007
94193.264836,-0.909737331,-0.189444963,0.105418578,0.0425770309,-0.028124775,0.0119467017
94193.274863,-0.908478271,-0.185493431,0.105522623,0.0284937032,0.00885854172,0.00809417222
94193.284890,-0.345427697,-0.552276825,0.555395219,-0.012170369,0.000505537372,0.0290620376
94193.294918,-0.911984818,-0.899632648,-0.0882785319,-0.0604870368,-0.00366683701,0.0380374242
94193.304945,-1.10553039,-0.214482502,-0.517300648,-0.0141885124,-0.0161986083,0.0244803366
94193.314972,-0.806293031,0.440169045,-0.341751189,0.00370047293,0.0178278021,0.0205330003
94193.325000,-0.542395061,0.267671777,0.979027459,0.00135795637,0.0216963093,0.0281757389
94193.335027,-0.921641923,0.401337905,0.269768598,0.0116073981,0.03281181,0.016003228
94193.345054,-1.06081571,0.885150509,-1.07816168,0.0186511919,-0.0161818296,-0.00256592851
94193.355082,-1.25956901,0.88401376,-1.97076226,0.0839367237,-0.0585671023,-0.0091873461
94193.365109,-0.826080632,0.20996973,-0.133000302,0.0144055819,-0.0252972983,-0.00951145194
94193.375135,-0.558169627,-0.526773222,1.94672332,-0.0130140588,-0.0469224334,0.0145888238
94193.385164,-1.33795047,-0.351537359,1.00790693,0.0367809262,-0.0155985982,0.0144908198
94193.395190,-1.43989109,0.220437878,0.233846221,0.0674834427,0.00925482041,0.0145475448
94193.405218,-1.49995334,-0.0410344538,-1.17928279,-0.0379183453,-0.0101119534,0.00735274864
94193.415246,-1.72138981,-0.0508781175,-2.23314127,-0.0966250647,-0.08785415,0.00679002259
94193.425273,-1.67163064,0.0357039682,-1.07337736,0.00930642691,-0.0879087478,0.0227125299
94193.435300,-1.45304473,0.260370477,0.718303808,0.0499633092,-0.0992436961,0.017975298
94193.445328,-1.52687233,0.0203894901,1.52628549,0.0591741156,-0.0548040562,0.00797486328
94193.455355,-1.55436268,-0.326108026,0.760781598,0.0540382106,-0.049703303,0.0316367831
94193.465382,-1.77993772,-0.791745835,-0.87208673,-0.0327246461,-0.0200537995,0.0474391815
94193.475410,-1.88422008,-0.790503142,-0.638096188,-0.0307379283,-0.0197994683,0.0758516428
94193.485437,-1.98093098,-0.524620428,-0.570823564,0.0129174076,-0.0376096249,0.0948210743
94193.495464,-1.97413445,-0.340867277,0.196230484,-0.00619103964,-0.0586808205,0.104775706
94193.505492,-1.98675895,-0.339082987,1.02496211,-0.00452869497,0.00355618842,0.106789851
94193.515519,-2.03792595,-0.0356914945,-0.137913208,0.0810313623,-0.0395347395,0.102082246
94193.525546,-2.47238792,0.278937998,-3.33782569,0.0177184332,-0.0728580758,0.095893861
94193.535574,-2.25346519,-0.673777408,-0.512798076,-0.103482028,-0.0694934384,0.0924075108
94193.545601,-1.88611977,-0.898446653,1.72783098,-0.158532498,-0.0560498007,0.0656576541
94193.555628,-2.00620892,0.344035397,0.844195795,0.117466065,-0.0281787526,0.0794477698
94193.565656,-2.01919933,0.569345789,-0.750507931,-0.0787995804,-0.0441854179,0.0309145928
94193.575682,-1.98292668,0.240016147,0.205966865,-0.0936536316,0.05246123,0.0291036435
94193.585710,-0.953189593,0.741484746,0.990809082,0.13754231,0.0564711511,0.021235333
94193.595737,-1.81194731,0.635218739,-0.237771759,0.0501914237,0.101375242,0.0127425131
94193.605765,-1.50941792,-0.623921344,-0.440042052,-0.158381489,0.0253941945,0.0193578054
94193.615792,-1.19084881,-0.700800221,-1.13716858,-0.0397158314,0.0932597935,0.00940930028
94193.625820,-0.81914338,0.554619637,-0.766287684,0.000435050161,-0.0226561551,0.0045479664
94193.635847,-1.09963235,-0.294646373,1.77496273,0.00222842284,0.136386503,0.00237242993
94193.645874,0.188425862,-0.307862029,2.55281115,0.0519626912,0.0205512352,0.0303326913
94193.655902,-1.9509187,-0.00820197344,-2.0602625,-0.0129499968,0.0623777776,-0.0131399508
94193.665929,-0.688764092,0.708915259,-0.948470297,-0.067984489,0.033741337,-0.0311666231
94193.675956,-0.592661387,0.206263277,-0.119192141,-0.0674760912,0.123936211,0.00319880875
94193.685984,-0.956193597,0.405790098,-1.51653439,0.161714482,-0.149782936,0.0618871574
94193.696011,-2.04943256,0.498630806,-3.23448631,-0.0674680967,-0.0402244993,-0.0506662864
94193.706038,-0.0446796407,-0.310188938,3.26960332,-0.0334906924,0.00164359062,0.022387949
94193.716066,-0.585078019,-1.16075889,1.23066238,-0.0340693977,-0.090211767,0.0676568982
94193.726093,-1.89654297,0.427391799,-0.507956481,-0.0333639245,0.0108173813,-0.00761335786
94193.736120,-0.616841815,1.76791278,-0.0918610666,0.191370386,-0.0169687097,-0.0186596185
94193.746148,-0.4965117,-0.245129496,-1.0922165,-0.0180542126,0.0357994295,0.063049094
94193.756175,-0.731490085,-1.9665549,1.08230955,-0.287706179,-0.00711021922,0.0717328649
94193.766202,-1.93048528,0.201987883,-0.859922245,0.0660979476,-0.0541344539,0.0490408663
94193.776230,-1.03093597,2.01814777,-1.41021921,0.106412086,0.0342689089,-0.0195760119
94193.786257,0.0360231777,0.412834866,2.8873073,0.103923361,0.0369858674,0.0268122584
94193.796284,-0.950837696,-0.604591169,0.985436157,-0.00526810921,0.0631713986,0.0158301827
94193.806312,-1.95830808,0.13697334,-2.6514152,-0.0428202759,-0.11017109,0.051229452
94193.816339,-1.94919758,0.609013746,-3.46285433,-0.0250719089,-0.00431629713,-0.0311293367
94193.826367,-0.205591137,0.564988179,1.25554781,0.0639945891,0.0115287115,-0.018354154
94193.836394,-0.0195709915,-0.757666602,3.18494527,-0.0406836245,0.0791458383,-0.00863255072
94193.846421,-0.843366624,-0.269413641,1.59295606,0.073830704,0.0059211601,-0.00265641674
94193.856449,-2.25287336,0.337581362,-2.82634039,0.200883466,-0.00281320909,-0.0032095553
94193.866476,-1.06825923,-0.270917725,-2.54001468,-0.151701224,-0.0295641285,-0.0709561098
94193.876503,-0.400510044,-0.944956841,0.395535497,-0.159806815,-0.0268287968,0.0100583129
94193.886531,-0.461679895,-1.25607307,2.23853009,-0.124423792,0.0467719182,0.0396982294
94193.896558,-0.783151664,0.848440853,2.14432738,0.136866125,0.075534594,0.00415328586
94193.906585,-1.35120231,2.24223228,-1.93221012,0.368060457,-0.0335282453,-0.0388855289
94193.916613,-1.65770294,0.0473525624,-2.66685067,-0.087353659,0.0481764718,-0.0769692648
94193.926640,-0.246034718,-2.20839557,0.0167992146,-0.26149295,-0.0862340659,0.0130277381
94193.936667,-0.901698694,-2.12381818,-0.256153219,-0.289732588,0.0157181311,0.0460948769
94193.946695,-0.54896896,0.531447436,3.06857339,0.0638864588,0.0177647702,0.00880929012
94193.956722,-0.73042209,1.91206406,-0.127498782,0.364887583,0.0364841267,-0.0392839376
94193.966750,-1.0311011,0.900601833,-1.34180384,-0.0123936629,-0.100843105,-0.0781383875
94193.976777,-2.31905439,-1.4280552,0.109739364,-0.0755417395,-0.00074925961,0.00771659542
94193.986804,-1.13784291,-1.36752956,0.882987005,-0.13486552,0.123003577,-0.00543436013
94193.996832,0.594721475,1.32436442,-2.63905841,-0.0311566994,-0.0833320201,-0.016200722
94194.006859,-1.34060873,1.43614006,-2.07620124,-0.0546106223,-0.00272292807,-0.0264184724
94194.016886,-0.345990446,-0.0434525158,3.20496222,0.0945884462,0.000856093941,-0.00379545126
94194.026914,-0.711765759,0.0265686126,1.98372589,0.0578112591,0.0948925733,-0.0350029047
94194.036941,0.382772376,0.324167425,1.25325415,0.149935054,0.176087831,0.00208134646
94194.046969,-0.390975177,0.166418411,-2.84251294,-0.266103161,-0.117289189,-0.114046327
94194.056996,-2.19915916,0.814845019,-2.08606037,0.123046721,0.0507765158,-0.0402029927
94194.067023,1.20119245,0.633589604,-0.429353484,-0.0118570358,0.0420333564,-0.0509509805
94194.077051,0.301470715,0.270698541,2.50496978,-0.233190489,0.0173019122,-0.0881721142
94194.087078,-0.877300824,0.441370092,1.9617882,0.182406979,0.0517807908,0.00578553718
94194.097105,0.280523862,0.757255804,-0.0541225798,0.167040276,0.143600468,-0.0243617136
94194.107133,1.25956076,1.09323891,-1.22496201,0.169490385,0.114073192,-0.118981427
94194.117160,-0.0377165968,-0.742569936,-2.64706168,-0.0661548946,-0.0243637741,-0.0660814631
94194.127188,-0.790214295,-2.2792557,-0.635129739,-0.343125236,0.00326918414,-0.0341685366
94194.137215,0.406825525,-0.863354954,2.74327468,-0.123197143,0.0523488454,-0.00262046397
94194.147242,1.08643817,1.28304632,1.80104878,0.0560969811,0.0868133425,-0.0437223602
94194.157270,0.182981991,2.18768659,0.225441381,0.0847185057,-0.0160906643,-0.104493833
94194.167297,-0.231824261,1.58641304,-0.247499957,0.0306592628,0.138640602,-0.135967067
94194.177324,1.46588705,-0.229461533,2.20608913,0.248081329,0.256059621,-0.0620305303
94194.187352,-0.291445932,-0.00533702159,-4.55574368,0.0922041189,-0.139572646,-0.0979749474
94194.197379,-1.7356805,-0.636047543,-5.07393402,-0.182505203,-0.0258692589,-0.150735101
94194.207407,1.71803255,-0.957407084,2.32738093,-0.176890192,-0.0592794151,-0.140390849
94194.217434,1.2921217,-0.398347041,2.6673862,-0.0255808376,-0.00892889244,-0.119576386
94194.227461,1.27753554,0.196984631,2.60617273,0.0443407249,0.0992380574,-0.0763045389
94194.237489,0.773208229,0.523501664,1.46591607,0.0311362378,0.129662548,-0.0513717595
94194.247516,0.464897848,1.2684004,-2.29312725,0.256595718,0.000147160487,-0.0668252844
94194.257544,0.781340902,-0.133755115,-2.73945998,-0.127953273,0.0467559404,-0.0815842587
94194.267571,0.855426859,-1.72391767,2.25969271,-0.296346021,0.000244365884,-0.0456382397
94194.277598,0.497341005,-0.21318974,0.866336899,0.238293948,0.0931812271,0.0269451507
94194.287626,1.79098615,0.993342588,-0.806693928,0.116249266,0.0462185151,-0.0377606067
94194.297653,0.0493926546,0.00517163624,-0.983268054,-0.0701799963,-0.0988968641,-0.0484811615
94194.307680,-1.0938759,-1.20647281,-1.30462299,-0.0269281317,-0.0871203647,0.0211218831
94194.317708,1.42677582,-0.325859824,0.00913671719,-0.1635126,-0.0498409078,-0.0417598772
94194.327735,1.65377241,0.761502063,2.22345995,0.0568469267,0.0320752643,-0.0124661706
94194.337763,1.06728178,0.247554689,2.15181744,0.0402168173,0.0577191084,-0.00324151363
94194.347790,-0.391282855,0.443664267,-0.51459665,0.0668662738,-0.018126651,-0.0169434778
94194.357817,0.700716628,0.794892657,-2.10026425,0.0412104454,0.0304845597,-0.0326103221
94194.367845,1.65646136,-0.217001298,-0.133478441,-0.0178645954,0.0249723501,-0.0339104782
94194.377872,1.058988,-1.06053333,1.62158711,-0.0437593061,0.0607923984,-0.0164079152
94194.387900,0.945485535,-0.411963551,1.32781459,-0.0987173665,0.0449015803,-0.018462545
94194.397927,-0.218815434,1.05786825,-1.37605975,0.161151769,-0.0170677782,-0.0424477707
94194.407954,1.2484189,1.4850869,-2.18732469,0.095829482,0.00598321179,-0.0774371836
94194.417982,1.72874903,-0.71592509,0.935532016,-0.0282088455,8.77720257e-05,-0.0124541863
94194.428009,0.670526219,-1.68847416,1.68791807,-0.0476432603,0.0568181619,0.009064954
94194.438037,1.14142049,0.159080086,-0.334418362,-0.0519567851,0.000872072934,-0.0660396505
94194.448064,1.40951985,1.03307963,-0.974344743,0.168360936,0.100868177,-0.0263822514
94194.458091,1.51494539,-0.778256824,2.0045413,-0.0300307136,0.0836252763,0.000120727569
94194.468119,0.632963527,-0.856185209,-0.602490622,-0.110937809,-0.0525213771,-0.00494939905
94194.478146,1.09389177,-0.59787103,1.1387089,0.0215834778,0.144150679,0.00396153819
94194.488174,2.18728234,0.122629209,1.66484699,0.166959855,0.10950454,-0.0201001212
94194.498201,0.784456623,0.429359811,-3.26848561,0.016329062,-0.0510779463,-0.0540306557
94194.508228,0.0738661477,-1.31870649,-0.796080764,-0.272631896,0.0239230643,-0.03884052
94194.518256,1.95784113,-0.72695078,2.58474942,0.0222548682,0.00342746055,-0.0344877567
94194.528283,1.98236534,0.598750528,0.405989086,0.0229342401,0.102515694,-0.0458029944
94194.538311,1.84592214,0.174760561,2.35342722,0.122066679,0.188758706,-0.0127345238
94194.548338,1.94628075,-0.296289519,-0.0767342246,0.0453833554,0.162157451,-0.0315388392
94194.558365,2.09890468,-0.651712218,-1.82515142,-0.114675556,0.114728954,-0.00649633609
94194.568393,1.93675538,-1.49701694,-0.657771779,-0.136228514,0.0699649423,0.0296440918
94194.578420,2.0691268,-0.348475341,0.602460337,-0.0246663012,0.0997073918,0.0577702683
94194.588448,2.17737353,0.427313363,1.14743465,0.0784028199,0.0571916222,0.053193358
94194.598475,2.04066321,0.521827813,-0.179197989,0.0575220462,0.0917269632,0.0599524614
94194.608503,2.00816672,-0.353776552,0.184891344,0.00851695035,-0.00879804721,0.0711049822
94194.618530,1.73546986,-0.627256553,0.247228849,-0.0761414815,0.0882201164,0.0514260877
94194.628557,2.13782975,-0.157011177,2.0337446,-0.0636754904,0.0834061846,0.0639836874
94194.638584,1.79838108,0.106739128,-1.33069267,0.0227890972,0.018330245,0.0919713837
94194.648611,1.89163,0.485729677,-2.64203246,-0.092405935,-0.0415948771,0.043071748
94194.658639,2.17767295,0.125021767,1.31817583,-0.139068511,-0.0170397305,0.0582744044
94194.668666,1.80602356,0.252412175,2.73189287,0.039300165,0.00399498059,0.0838551309
94194.678693,1.59572895,1.26566162,0.16967507,0.115007969,-0.000399501766,0.0302962989
94194.688721,1.68121673,1.23868608,-1.37891748,0.0572775666,-0.10980242,0.014733053
94194.698748,1.0560827,-0.575631836,-1.62400809,-0.125942853,-0.13344809,0.0532956247
94194.708776,1.69058341,-0.955632183,1.19851309,-0.152516407,-0.0791776658,0.0445740383
94194.718803,1.44547643,0.568617256,2.04988968,0.139763388,-0.0762540505,0.0422272619
94194.728830,0.650347208,1.28353367,-0.467612196,0.192869472,-0.117707487,-0.0206334598
94194.738858,0.883094107,0.338771741,0.152584234,0.0979530837,-0.00937595335,0.00199701753
94194.748885,1.27266896,-1.09045851,-0.160787303,-0.0160887923,-0.102239314,0.021488161
94194.758913,-0.47323392,-0.18920246,-4.47364407,-0.133246851,-0.324226822,0.0104978273
94194.768940,0.238339429,-0.100669204,-0.891055635,-0.1190261,-0.176262404,0.0518940028
94194.778968,1.98918787,-0.316619555,3.96640602,-0.00865378063,-0.120248939,0.0528322358
94194.788995,0.271929856,0.827372785,1.87934782,0.124217975,-0.120242278,0.0246597186
94194.799022,0.0502557742,1.17880839,-0.200686183,0.149666878,-0.0555469126,-0.00825508755
94194.809050,1.15494998,0.452154265,-0.387384813,-0.0777867783,-0.0580532134,-0.0258418049
94194.819077,0.089075115,-0.665427148,-0.662550246,-0.194555742,-0.0855000124,0.0309194785
94194.829105,-0.281824994,-0.0309191221,0.657929127,-0.0796725649,0.000292387437,0.00912736472
94194.839132,1.22656501,2.02937439,1.10993406,0.162861782,0.0208858128,-0.0771412093
94194.849159,0.413640466,2.06930615,-0.968977079,0.222975182,-0.0426191271,-0.0706364426
94194.859187,-0.0134367996,-0.629564319,-1.18216507,-0.00435889996,-0.0597344667,-0.0618650529
94194.869214,0.536317801,-1.72088356,0.615318065,-0.136701224,-0.00177049707,-0.0369386624
94194.879242,0.996829499,-0.682791028,1.70949687,-0.0332126517,0.0337707184,-0.0375887405
94194.889269,0.659465823,0.540505479,0.48897892,0.0706506249,0.0520445302,-0.0474179376
94194.899296,0.473600502,0.548185841,0.534167138,0.00806953926,0.0911224305,-0.0504217174
94194.909324,0.351491395,0.183932185,-0.770481628,-0.012574752,-0.0178394776,-0.0335255552
94194.919351,-0.0344489733,0.284609395,-2.18207978,-0.0700849194,-0.00373883942,-0.0461318966
94194.929379,0.941811084,0.400472082,1.09941325,0.00190831656,0.027957306,-0.0403150197
94194.939406,0.721003191,0.591027788,2.18618382,0.126959967,0.0669768795,-0.0616533298
94194.949434,0.15670817,0.86429674,0.170712596,0.0923388775,0.0126443941,-0.0625217843
94194.959461,0.0944837692,0.12065021,-1.32311843,-0.00377247221,0.0340175934,-0.0573270235
94194.969488,0.686480086,-0.343022774,-1.44523149,-0.0428703401,-0.0566313483,-0.0346142564
94194.979516,-0.0672510266,-0.357203056,-1.21348375,-0.0858236674,-0.0608274259,-0.0451851401
94194.989543,0.381049425,0.0584747856,1.43556653,-0.0694926355,-0.0135757581,-0.0503833655
94194.999571,0.99032589,0.553942688,2.25083077,0.0401864637,0.0279402609,-0.0547448236
94195.009598,0.552085571,0.958851632,0.75553493,0.16481893,0.0344634063,-0.0431622032
94195.019625,-0.0598215342,0.68017293,-1.28333997,0.109303477,-0.014831438,-0.0512180019
94195.029653,0.0489502446,-0.0559713171,-1.88550214,-0.0518201601,-0.0301286329,-0.0622301686
94195.039680,0.721194549,-0.848565674,-0.121764622,-0.0999930177,-0.0150546108,-0.0390348386
94195.049708,0.830981423,-0.298525498,1.29674433,-0.0729896326,0.0144127335,-0.0506472837
94195.059735,0.835317187,0.782817385,1.45792624,0.150365966,0.043530938,-0.0569786865
94195.069763,0.389386168,0.844142572,-0.255566359,0.171808931,-0.00447866577,-0.0749579507
94195.079790,-0.0945766943,-0.265751063,-1.13487257,0.0154062824,-0.0257509307,-0.0629292491
94195.089817,0.575696602,-1.43262835,-0.374954955,-0.0831384037,-0.000288980552,-0.0256255556
94195.099845,0.767344598,-1.02605085,0.0882470788,-0.071276148,-0.0414454744,-0.0224140498
94195.109872,0.0696513796,-0.10725377,0.220249657,-0.0479577754,-0.0258531955,-0.0312552105
94195.119900,0.357016223,0.177649579,1.43805776,0.0525829446,0.00139600143,-0.0378539923
94195.129927,-0.0391312859,0.447745472,0.176846569,0.0758808058,-0.0486586459,-0.0434231933
94195.139955,-0.531632771,0.239325205,-0.937557273,-0.0120461147,-0.030418386,-0.052240121
94195.149982,-0.0134485631,-0.0972091994,-0.513809299,-0.087973905,-0.0760623023,-0.0542095292
94195.160009,-0.351307622,0.32240732,-0.718875944,-0.0343101408,-0.0667558864,-0.0512313161
94195.170037,-0.16446257,0.618959605,0.548614181,0.0975107353,-0.0372467332,-0.0467183243
94195.180064,-0.369163305,0.282819771,0.469761009,0.0852410223,-0.0614037358,-0.0640515077
94195.190092,-0.690171109,-0.401364379,-0.322805665,-0.0175103873,-0.0713205442,-0.0556492347
94195.200119,-0.540779004,-0.883916827,-0.296973889,-0.0632712219,-0.0822616101,-0.0346190508
94195.210146,-0.663089187,-0.194950813,-0.0283545168,-0.0576186601,-0.0640522421,-0.0381088581
94195.220174,-0.746526107,0.655591446,0.251343299,0.0175495956,-0.054706949,-0.0488989193
94195.230201,-0.898120324,0.900707413,-0.210475171,0.0334132452,-0.0587751933,-0.0656779024
94195.240229,-0.814021214,0.619359345,-0.284095703,0.0581287134,-0.0357646861,-0.0687128368
94195.250256,-0.657822718,-0.138217639,-0.131890295,0.00147794984,-0.0326876671,-0.0658046666
94195.260284,-0.743731215,-0.737298936,-0.281302857,-0.0267760579,-0.0359673493,-0.0468719888
94195.270311,-0.519685217,-0.644725867,0.0866256151,-0.0286242917,-0.0193596103,-0.0497061226
94195.280338,-0.421437828,-0.0712605009,0.815323336,-0.02479227,0.00592177757,-0.0521237429
94195.290366,-0.639790729,0.146551791,1.04570446,0.0353501651,0.0294462785,-0.0341122511
94195.300393,-0.869225873,0.314091656,-0.673849638,0.0112008842,-0.0219886836,-0.0423310313
94195.310421,-1.11707251,0.34948062,-1.37024434,-0.0564447392,-0.0333238982,-0.0508661966
94195.320448,-0.658238094,0.0354508519,0.135237963,0.00578854215,0.0202043101,-0.0365096282
94195.330476,-0.262667508,0.423317645,0.433620021,0.0638113644,-0.014996554,-0.0722923938
94195.340503,-1.02475823,0.562539543,-0.836343801,0.0318614233,-0.0393759303,-0.0636584226
94195.350531,-0.711435066,-0.57693258,0.287911573,-0.070925412,-0.00824597409,-0.052339724
94195.360558,-0.540227581,-0.462036034,0.92658474,-0.0924080659,-0.0312208005,-0.0471617419
94195.370585,-1.00259894,0.423514957,0.510260777,0.0549414407,0.0406661748,-0.0591707293
94195.380613,-0.6187627,1.01051745,-0.120677411,0.200318339,0.0489041291,-0.0548646662
94195.390640,-1.18068917,0.31249792,-2.89272863,-0.0231024932,-0.0928591222,-0.104990422
94195.400668,-1.19902079,-0.99495129,-1.34497663,-0.163937372,-0.0635039017,-0.0431800473
94195.410695,-0.368750778,0.434004385,2.33832727,-0.157342863,-0.0132101059,-0.0214822095
94195.420723,-0.368006536,0.427889008,2.33842196,0.092052589,0.0108733929,-0.032032321
94195.430750,-0.983838121,1.54117879,0.265526138,0.248734074,0.030927262,-0.067314944
94195.440777,-0.798502889,0.945195374,-1.65169514,0.0178934082,-0.0214054503,-0.104784286
94195.450805,-0.775237164,-0.942470211,-1.00761398,-0.0679794226,-0.0063332913,-0.0262716401
94195.460832,-0.480863465,-1.10720587,0.201200673,-0.0311649471,0.0418017476,-0.0362214733
94195.470860,0.0711123921,0.585501463,0.690900253,-0.026790173,0.050434117,-0.0913047034
94195.480887,-0.375425215,0.829943147,0.276018306,0.0207312729,0.0042687531,-0.0805428687
94195.490915,-1.20754188,0.359882955,-0.413039478,0.0881784882,-0.0234571502,-0.0618035335
94195.500942,-0.9602135,0.220643265,-1.09923427,0.0706724625,-0.0290979904,-0.0671226669
94195.510970,0.374549834,-0.273723668,0.100612055,-0.0544292565,0.0290806263,-0.0930762354
94195.520997,0.27248369,-0.878604692,1.61334477,-0.0846686859,-0.00121010701,-0.0411553148
94195.531024,-1.33219556,-0.354971717,0.532138263,0.0515080567,0.0489356189,-0.047775666
94195.541052,-0.831202139,1.24320926,-1.52491994,0.0728919085,-0.0263769787,-0.122403568
94195.551079,-0.110706868,0.706676613,-1.28555589,0.055795214,0.0278076965,-0.0841989208
94195.561107,0.334879502,-1.08849993,0.906523364,-0.0270045932,-0.0255628501,-0.0461434152
94195.571134,-1.02857823,-1.03474634,0.394729441,-0.0767697517,-0.0260174528,-0.056190456
94195.581162,-0.606697072,0.333653521,0.282861888,0.0789034691,0.0294985368,-0.0726261574
94195.591189,-0.225315755,0.758857248,-0.227373114,0.172819304,0.0320575691,-0.0599130194
94195.601217,-0.328749753,-0.668029805,-1.45603053,-0.037339789,-0.0680818141,-0.0506217841
94195.611244,-0.650138666,-1.65558896,0.231367848,-0.139060286,-5.18983044e-05,-0.00968580484
94195.621272,0.0046347906,-0.395767436,1.40516087,0.02168971,-0.0174391449,-0.0303482066
94195.631299,-0.769177718,1.21225064,-0.426099451,0.166369933,0.0530390188,-0.0528284821
94195.641327,0.0958546922,-0.0239620855,0.817486651,0.0100820556,0.0672560378,-0.00879737526
94195.651355,-0.285283171,-1.28713749,-0.623005002,-0.153128964,-0.0257689797,-0.0204606901
94195.661382,-0.901634762,-0.0834456268,-1.40815643,-0.0324829828,0.00303790112,-0.0260663766
94195.671410,-0.0688926563,0.760739554,0.227975283,0.0942890819,0.00532821961,-0.0410293478
94195.681437,-0.284608049,0.293015294,1.20025906,0.104986462,0.0170871399,-0.0253372032
94195.691465,-0.477929603,-0.713686663,0.639603781,0.0319276962,0.0167875353,-0.00423964091
94195.701492,0.0889690243,-0.808151684,-0.702438604,-0.0685030345,0.00172043533,-0.0256306816
94195.711520,0.205662682,-0.717046057,0.181733172,-0.266594005,0.0196064922,-0.00964053139
94195.721547,0.189756453,-0.518974969,2.78381595,0.016087218,0.206650411,0.0446464096
94195.731575,0.733326447,1.33566104,-0.193279706,0.311681318,0.106220481,0.0252386231
94195.741602,-1.08801695,1.52705382,-4.79531465,0.074512976,-0.0354618237,-0.0770278338
94195.751629,-0.554197289,-1.60483653,-1.70347443,-0.257483077,-0.0584134788,-0.0293588403
94195.761657,1.07283203,-2.21227417,1.87114698,-0.240414602,0.0150093425,0.0165053189
94195.771684,1.56187753,-0.232542292,2.39310983,0.175513896,0.0699732571,0.0780879867
94195.781712,0.406397655,0.20334423,0.921031197,0.178354162,0.0607946708,0.036077955
94195.791739,-0.158009302,-0.34562576,-0.204052445,0.0721992206,0.0429850488,0.0349546347
94195.801767,0.966713543,-1.69036246,-0.812723856,-0.0816854138,0.0776793852,0.0638496664
94195.811794,1.05995056,-2.06158808,-0.320661639,-0.258970184,0.0206965234,0.121410162
94195.821822,0.519948412,-0.673142325,0.0115040308,-0.19456136,0.0661407083,0.0930112761
94195.831849,1.23010166,2.04898466,0.316205355,0.00544948625,0.0501777127,0.0610261832
94195.841877,0.430774045,2.20118247,0.65247203,0.117793071,0.0460799083,0.036802334
94195.851904,0.45350179,1.24321408,0.543240671,0.155002492,0.0611054643,0.0344792579
94195.861932,1.29428794,0.0127814217,-0.0388069372,-0.0165389024,0.0446977287,-0.000870742612
94195.871959,0.846701774,-0.703649619,-0.221951089,-0.050110181,0.0343028798,0.0185759265
94195.881986,1.05792767,-0.915227692,-0.279401992,-0.0651975173,0.045403999,0.0354790103
94195.892014,1.36841423,-0.351786584,0.480522057,-0.0594336402,0.0596918582,0.0440384087
94195.902041,1.09606371,0.470646382,0.66796186,-0.00716031501,0.0633992448,0.0109994991
94195.912069,0.936135377,1.17460487,0.0176730749,0.0572724704,0.0629611581,-3.90370935e-05
94195.922096,0.926439182,0.623337894,-0.985915354,0.022644718,-0.041280295,0.0162696291
94195.932124,0.771854915,-0.352555231,-0.57389055,0.0110509124,0.0500610664,0.0258306425
94195.942151,1.78776032,-0.250645629,0.746663641,-0.0403963003,-0.0277226747,0.0102713911
94195.952179,0.871242853,-0.211530813,0.0248398978,-0.0534093056,0.0325116373,0.0241328787
94195.962206,1.6820111,-0.0397645389,1.36364052,-0.0244032174,0.0531814962,0.0267254647
94195.972234,1.49135979,0.74552708,0.439434844,0.018432929,0.0619254529,0.0141092718
94195.982261,1.30401658,0.845115581,-0.623047672,0.0767748009,0.0219532687,0.0273981814
94195.992289,1.34197177,0.150870257,-0.828283829,-0.0681163419,0.0191580157,0.00267658824
94196.002316,1.65143973,0.10525099,0.540925965,-0.0283375058,0.0057756307,0.00328272371
94196.012343,1.19562021,0.547314757,0.467755514,0.0533781301,0.0167603723,-0.00968021318
94196.022371,1.33296838,0.725450872,0.237795251,0.0685775902,0.008443319,-0.0109273715
94196.032398,1.37749828,-0.181009016,0.45975984,-0.00826233085,0.0290127757,-0.00519704703
94196.042426,1.47339305,-0.56946692,0.261874045,-0.0208401747,0.0108034124,0.00422308616
94196.052453,1.33017393,-0.195953925,-0.620782065,0.0350047153,0.00141070969,-0.000752231814
94196.062481,1.23651044,-0.171642929,-0.101849961,0.0169703223,-0.0230312508,0.0113630213
94196.072508,0.929089769,-0.577434282,0.525759375,-0.0668641228,-0.00667171763,0.017902679
94196.082536,1.21321855,-0.131590813,0.294094061,-0.0257662229,-0.0157520317,0.0288565282
94196.092563,1.11072293,0.552235153,-0.838584274,0.0170512822,-0.0492125184,0.007717686
94196.102591,0.986904391,0.540976677,-0.48438622,0.0582229521,-0.0553521693,0.0088689702
94196.112618,1.19367389,-0.402796531,0.900009452,0.0159370143,-0.017030881,0.0150887829
94196.122646,1.09025816,-0.867199501,1.43048177,-0.0389310282,-0.0141056657,0.0311199475
94196.132673,0.774670557,-0.532332792,0.167072194,-0.0746685166,4.66386508e-05,0.0207466681
94196.142701,1.09273646,0.494209592,-0.445501486,-0.0547382209,-0.00706080557,-0.000318934917
94196.152728,1.00252537,1.27006,-0.561795039,0.0486864362,-0.00976231625,-0.0143167765
94196.162755,0.986394249,1.26905433,0.032964752,0.0928251397,0.0108167285,-0.0260661084
94196.172783,1.28732117,0.383604095,0.538280419,0.0569712658,0.00798525544,-0.0182774279
94196.182810,1.23944824,-0.613394982,0.286930161,-0.0265342791,0.0120638867,-0.00366439834
94196.192838,1.35056439,-0.776050765,0.436513988,-0.0442280557,0.029244472,-0.00591397077
94196.202865,1.38259532,-0.0307661395,0.290689806,-0.00425374107,0.0429051563,-0.00854091324
94196.212893,1.43446199,0.334414349,0.194531279,0.0142616209,0.0480583727,0.00204834877
94196.222920,1.39743253,0.156065889,0.180026368,-0.00570010366,0.0334538638,0.00707399961
94196.232948,1.26324354,0.214421029,0.0290800195,0.0186257426,0.0411599844,-0.00478771959
94196.242975,1.50784082,0.406049991,0.00141284494,0.0239944093,0.0339848965,-0.0145338231
94196.253003,1.5662236,0.124426623,0.0560796701,-0.00326011558,0.0350815847,-0.0174547795
94196.263030,1.58919428,-0.095772682,0.255665838,-0.0233810965,0.0205367345,-0.0196686636
94196.273058,1.38974782,0.138357323,0.0359715326,-0.0148147728,0.01515049,-0.0233691249
94196.283085,1.4754342,0.437251733,0.0814625332,0.0314259592,0.00943401525,-0.0288776073
94196.293113,1.49651059,0.303557987,0.176053373,0.0496859204,0.0102468121,-0.0208042364
94196.303140,1.41896251,-0.26912527,0.343235985,0.0240109198,0.00360062718,-0.0135489868
94196.313167,1.33375237,-0.652629991,0.113677873,-0.000423849103,-0.0019283616,-0.00192508731
94196.323195,1.38669121,-0.781425225,-0.00717261258,-0.0275793031,-0.00780063146,0.00708864745
94196.333222,1.34083693,-0.617583593,0.127070438,-0.0374537718,-0.0186892313,0.0100146618
94196.343250,1.23642714,-0.152751584,0.195384096,-0.0157737762,-0.0212160398,0.0103366387
94196.353277,1.18690338,0.222129083,0.117684186,0.0113643676,-0.0256435454,0.0104133377
94196.363305,1.06465099,0.239639349,0.0288234144,0.00617786106,-0.0314010338,0.00982105102
94196.373332,1.05853974,0.0945801775,0.0413111401,-0.0105859388,-0.0329110429,0.00764737859
94196.383360,1.06196606,0.113839151,0.10300801,0.000701070114,-0.0275317256,0.00683378264
94196.393387,1.01234498,0.157674749,0.19308634,0.0077856116,-0.0276816611,0.00437089125
94196.403415,0.872590029,0.102606512,0.1516414,0.010167009,-0.0274867185,0.00238550477
94196.413442,0.847160916,0.0146225606,0.0307558438,0.00518902932,-0.0305251193,0.00311254779
94196.423470,0.850349483,-0.0999815593,0.00223935889,-0.00611768728,-0.0362722233,0.00350536382
94196.433497,0.749016549,-0.149161825,0.0862971138,-0.012061597,-0.0361284122,0.00341455009
94196.443525,0.622167335,-0.0160010207,0.143727558,-0.0133630831,-0.0401793451,0.00320975319
94196.453552,0.496609183,0.154756505,0.0171785693,-0.00478584058,-0.0489105166,0.000513568744
94196.463580,0.467013963,0.275914011,-0.0689331954,-0.00661489945,-0.0484729589,-0.00102733612
94196.473607,0.47532433,0.334665877,0.0646090136,0.000411850799,-0.0457112596,-0.00279381104
94196.483634,0.402439054,0.356598599,0.0722668348,0.0248282447,-0.046792771,-0.00303482708
94196.493662,0.233087207,0.201655308,-0.0424151909,0.0209309746,-0.0555931882,-0.00495256927
94196.503689,0.0773558896,-0.0673245314,-0.125089382,0.00695204158,-0.0721210272,-0.00266704407
94196.513717,-0.0794668034,-0.234788701,-0.195314427,-0.00530702127,-0.085139896,-4.67605516e-05
94196.523744,-0.113639195,-0.24614914,-0.0210064921,-0.00794317498,-0.080072257,0.00274499901
94196.533772,-0.137022044,-0.117122426,0.0972826182,0.000697450878,-0.0750351504,0.00366565375
94196.543799,-0.226679883,-0.00900612486,0.0631535541,-0.00298223896,-0.067002523,0.00147839937
94196.553827,-0.241722554,0.0413415265,0.0705185299,-0.00274202153,-0.0532403805,0.000377448499
94196.563854,-0.113927511,0.0591472597,0.156990945,0.00149000755,-0.0308506519,0.000892237984
94196.573882,0.015881284,0.066316133,0.218387955,0.00660247803,-0.00652826741,0.00294047523
94196.583909,0.0566017823,0.031523938,0.192168641,0.00156297831,0.0115641828,0.0018626938
94196.593937,0.133696859,-0.0139544406,0.161309392,-0.0130583087,0.02245012,-0.00201114058
94196.603964,0.124405445,0.0377518635,0.0432973455,-0.0116798572,0.0251383155,-0.00519707963
94196.613992,0.0743991586,0.186671857,-0.0796293615,0.00799424555,0.0185643013,-0.00570308022
94196.624019,0.0497062506,0.150648759,-0.0785824828,0.0131322823,0.00961847766,-0.00264417358
94196.634047,0.00107907088,-0.0180315721,-0.0277740866,0.00379231042,0.00195123744,0.00182940414
94196.644074,-0.0625131844,-0.115746197,-0.0412099067,-0.00142482221,-0.00753760501,0.00306031736
94196.654102,-0.06990819,-0.0865421863,-0.0523421261,-0.00713996561,-0.0101608199,0.0068864806
94196.664129,-0.0486171994,-0.0271331533,0.0260077725,-0.0104263073,-0.00551040727,0.00450215278
94196.674156,-0.021204511,0.139894634,0.0712187871,0.00493800249,0.000176773169,-0.000929896496
94196.684184,0.0108711277,0.209950058,0.03452601,0.0143842341,0.00412331172,-0.00378800161
94196.694211,0.0279507843,0.0942835784,0.0118617582,0.0106960226,0.00743868085,-0.00651640981
94196.704239,0.0586080806,-0.132122783,0.00371235405,0.000850582661,0.00596435484,-0.00377601735
94196.714266,0.0555339338,-0.291686884,-0.023391926,-0.0142593944,0.000357868145,0.00326005438
94196.724294,0.0275525787,-0.20649523,0.00177174138,-0.0136924081,-0.00331676123,0.00552107789
94196.734321,-0.00240263375,0.0589235979,-0.0101495826,-0.00379290497,-0.00659271586,0.00297962338
94196.744349,-0.0733672444,0.203969376,-0.0498625843,0.00518594245,-0.0106191498,-0.000185277089
94196.754376,-0.0858624958,0.196167853,-0.0326869931,0.00282718083,-0.0104694797,-0.00342368126
94196.764404,-0.0453663809,0.108788379,0.0266741274,-3.51847351e-05,-0.00793335145,-0.00166333165
94196.774431,-0.0558225276,0.0635628842,0.0648796472,0.00604481232,-0.0016205943,-0.00264044549
94196.784459,-0.0435571395,0.0572229726,0.0347995662,0.00380509375,0.00244072638,-0.00301701646
94196.794486,-0.0198353415,0.00200636801,0.00649292468,0.00544533441,0.00308521138,-0.00283165999
94196.804514,0.00449304404,-0.0767098888,-0.00912666926,0.00257045199,0.00410333764,0.00125575926
94196.814541,0.00256887105,-0.149816736,0.0454454634,-0.00253935503,0.00503571075,0.00422784708
94196.824569,-0.0339023723,-0.147880288,0.0250701994,-0.0068009451,0.000306469151,0.00579511769
94196.834596,-0.0422101088,-0.0334320754,-0.0192114254,-0.00766620617,-0.00453941874,0.00527926277
94196.844624,-0.11420019,0.0895826615,-0.0617920915,-0.00706433197,-0.00696209609,2.05852464e-05
94196.854651,-0.152332133,0.201585586,-0.0657317691,0.000656171868,-0.0107605637,-0.00341009885
94196.864679,-0.174927338,0.224892483,-0.0605207564,0.0143778425,-0.0119310229,-0.00509268396
94196.874706,-0.19783592,0.112053382,-0.025822368,0.0150753249,-0.0144128234,-0.0025163421
94196.884733,-0.227852361,-0.0991197,-0.00907055515,0.00815270357,-0.0139491663,-0.000361045599
94196.894761,-0.25765326,-0.243889013,-0.0476577677,-0.00226771268,-0.0189692241,0.00389282148
94196.904788,-0.340989569,-0.259719911,-0.0841079682,-0.0137643127,-0.0217242644,0.00667342799
94196.914816,-0.393234281,-0.147611307,-0.0340366541,-0.0136034584,-0.0242422831,0.00634372862
94196.924843,-0.466239604,0.0383571039,-0.0769914142,-0.0065085303,-0.0310333439,0.00283181783
94196.934871,-0.616723011,0.181206943,-0.126305772,0.0078552289,-0.0393871472,-0.000760253295
94196.944898,-0.683482644,0.169892334,-0.151166073,0.0137498694,-0.0468677015,-0.00359598711
94196.954926,-0.790288603,0.0147039325,-0.123273273,0.00963315443,-0.0543610372,-0.00111525297
94196.964953,-0.91442169,-0.100088865,-0.162171451,0.00164367205,-0.0651311234,0.00177454319
94196.974981,-1.02070589,-0.114794687,-0.189783096,0.000691591928,-0.068085897,0.00649073509
94196.985008,-1.0652089,-0.0714341039,-0.150064249,0.00261359504,-0.0659178228,0.0103730915
94196.995036,-1.08472565,-0.0466268716,-0.0702764267,-0.00227090851,-0.0604751215,0.0119494165
94197.005063,-1.13051644,0.00522571365,-0.0315617884,0.000364822036,-0.0521783114,0.0135347966
94197.015091,-1.19240598,0.0544255376,-0.045744043,0.00832527671,-0.0466027178,0.0113296986
94197.025118,-1.24216691,0.0417315944,-0.0800274209,0.0111903053,-0.0416993045,0.0117752452
94197.035146,-1.30140002,-0.0247870651,-0.099830438,0.00347006815,-0.0406193913,0.0100015805
94197.045173,-1.34333684,-0.116377152,-0.158394271,-0.000949447925,-0.0375141457,0.0131299954
94197.055201,-1.39182541,-0.129979743,-0.166105283,-0.00884625334,-0.0348659002,0.0112836261
94197.065228,-1.39053201,-0.0716521899,-0.0878214358,-0.00806914288,-0.0278322243,0.00664573092
94197.075256,-1.33957515,0.0703578279,-0.0359807739,-0.000737460339,-0.0145659552,0.000457610227
94197.085283,-1.21088286,0.141482671,0.124009297,0.00793432426,0.00596888246,0.000945767611
94197.095311,-1.1375269,0.0565319033,0.139604341,0.000729675105,0.0196801673,0.00238920072
94197.105338,-1.10148002,0.00888828214,0.00934948316,-0.00628402568,0.0243846409,0.00339481024
94197.115365,-1.09966004,0.0039903997,-0.0523947331,-0.00959619991,0.0275231756,0.00201768963
94197.125393,-1.10748861,0.0645678646,-0.0888425955,-0.00240832772,0.0225595764,-0.00128436346
94197.135420,-1.12046902,0.102529301,-0.149774326,0.0165632319,0.0165160659,-0.00132058259
94197.145448,-1.08915092,-0.0231296122,-0.14050264,0.017993883,0.0114874837,0.00130316358
94197.155475,-1.04645905,-0.255559321,-0.174230722,-0.00256838342,0.0019597595,0.00696158199
94197.165503,-1.12986221,-0.338009403,-0.211763457,-0.00300381025,-0.00575115695,0.0111142492
94197.175530,-1.12788433,-0.105310234,-0.198082722,0.00285248068,0.000307534351,0.0136019078
94197.185558,-0.955229501,0.0521981302,-0.0934001127,-0.00808432251,0.00825866754,0.0132034991
94197.195585,-1.00037549,0.0943658224,-0.240652867,-0.0378366236,-0.00182113017,0.011919589
94197.205613,-1.05353271,0.285291166,-0.527719166,-0.0198845241,-0.0072305433,0.00639086658
94197.215640,-0.942453606,0.559507519,-0.0940080155,0.0303059433,-0.00692427974,0.0038230468
94197.225668,-1.01336006,0.327603683,0.306294202,0.0405287545,0.0048141356,0.000427516401
94197.235695,-0.913700609,-0.0555417665,0.360904328,0.036574493,0.0149424027,-0.00151898783
94197.245723,-0.929888212,-0.459794576,-0.33240293,0.00554999691,-0.00552425557,0.013505501
94197.255750,-0.954726155,-0.83565322,-0.328628088,-0.0595725451,0.00132326397,0.015842424
94197.265778,-0.870584009,-0.38247687,0.427308353,-0.0490852829,0.0191246315,0.0153124567
94197.275805,-0.770070794,0.335610574,0.297289642,-0.0120146165,0.0349470049,0.00345739465
94197.285833,-0.874195624,0.803299762,-0.322717402,0.0197451774,0.0129341136,-0.00678086165
94197.295860,-0.86015307,0.433305589,-0.371979738,0.025884562,0.0168361783,-0.00480106823
94197.305888,-0.742739062,-0.12915617,0.0972311802,0.0302548099,-0.00331995707,-0.00779366191
94197.315915,-1.04166451,-0.392286389,-0.0159854491,0.0329861481,0.0187251575,0.0052976387
94197.325943,-0.597533523,-0.682037068,-0.348757268,-0.0228544801,0.00747703039,0.0121896334
94197.335970,-0.330154944,-0.624201915,-0.402915559,-0.0975990269,0.0291759341,-0.00370038372
94197.345998,-0.55159076,0.0800649464,0.345246156,-0.0459563371,-0.00674504857,0.00403024046
94197.356025,-0.992611064,0.726372736,-0.00951888344,0.0421817776,0.0320995531,-0.00721628848
94197.366053,-0.389922819,0.973007071,0.323341783,0.0617738541,0.0314342945,-0.0135727215
94197.376080,-0.59746791,0.109794223,-0.215878491,0.0313238043,0.0049520873,-0.00169156097
94197.386107,-0.751634682,-0.6685653,-0.488302517,-0.00861855335,-0.0145867274,0.0026746916
94197.396135,-0.608413594,-0.676968971,-0.120874395,-0.011322993,0.00724080787,0.0116258424
94197.406162,-0.393307931,-0.451739279,0.111674132,-0.0116950368,-0.0181159482,0.0160600052
94197.416190,-0.793248914,-0.318289279,-0.34167637,-0.0370885406,-0.0102921131,0.0264609803
94197.426217,-0.439342537,-0.258621814,0.213040164,-0.000825610952,-0.00366616832,0.0374792751
94197.436245,-0.517509992,-0.0847591023,-0.0428132503,-0.016057295,-0.0191196941,0.0354273107
94197.446272,-0.514170253,-0.0915057179,0.545671698,-0.0383431587,0.0212732691,0.034140737
94197.456300,-0.555410464,0.0172806922,0.673306729,0.0268954977,0.0261934593,0.0508310359
94197.466327,-0.668765333,0.378198729,-0.690501498,0.0601469304,0.0378437235,0.0265651115
94197.476355,-0.569580371,0.433821941,-1.3599778,-0.00572236506,-0.0139052237,0.0198443581
94197.486382,-0.249602129,-0.700543908,0.102056993,-0.0553008366,0.0571657575,0.0703099307
94197.496410,0.347432548,-0.923297455,1.17226338,-0.0366456594,-0.00159129955,0.0693972644
94197.506437,-0.611602891,0.185872889,-0.42645484,-0.0105972823,0.0421279527,0.0268617861
94197.516465,0.0309170867,0.29178272,0.784750503,-0.00603102538,0.0383934013,0.0463143152
94197.526492,-0.32450722,-0.282869791,0.0717939566,-0.0370048854,0.0331570811,0.0307537739
94197.536520,-0.292754822,0.387877571,-0.99059036,-0.00497904112,-0.000832843715,0.0201591861
94197.546547,-0.213973766,0.208556996,-0.740821234,-0.021528722,-0.00793762436,0.027324687
94197.556575,-0.293581556,-0.287180165,0.352453896,0.0205156643,-0.0128074812,0.0344787363
94197.566602,-0.178309382,-0.239508039,0.66327984,0.0278662581,0.0311123047,0.033804157
94197.576630,0.228087718,-0.455895559,0.765348468,-0.0262276057,0.0500590994,0.0429553103
94197.586657,-0.212374587,-0.476573751,-0.58015604,0.0351097871,-0.0053399771,0.0525243145
94197.596685,-0.609154183,-0.22097391,-1.80669222,-0.0666368131,-0.0312946134,0.0468983885
94197.606712,-0.0593904493,-0.558400678,-0.332026498,-0.135931743,-0.0399320454,0.0667988595
94197.616740,0.128282067,-0.0495742182,1.39526959,-0.0452678774,0.0100054226,0.0521216441
94197.626767,-0.00986529778,0.97209434,1.45377088,0.102997492,0.0109537744,0.053891049
94197.636795,-0.46120782,0.684158784,-0.172098386,0.0917024937,0.022286589,0.034685665
94197.646822,-0.200438796,0.0322273416,-0.598932637,-0.0412536945,0.0137077493,0.0322768327
94197.656850,-0.0960715359,-0.541555306,-0.846709712,-0.049774212,0.0265732135,0.0495948393
94197.666877,0.168860599,-0.0442843453,-0.378358626,-0.0638817672,0.00803521624,0.0250681911
94197.676905,-0.082970866,0.506726142,0.371719737,0.0191252295,0.00683200056,0.033133575
94197.686932,0.0930711989,0.175158602,1.06585468,0.0474317025,0.0608520925,0.0452474963
94197.696960,0.355221375,0.158728039,0.691734366,0.128895136,0.104501565,0.0320960071
94197.706987,-0.0790523774,0.571971717,-2.3861656,-0.0106774067,-0.0708295063,-0.030675764
94197.717015,-0.983638434,-0.444320199,-3.38763806,-0.140962181,-0.0737302185,0.0262540963
94197.727042,0.539556491,-1.48015159,1.71037306,-0.144165424,-0.0269579229,0.0497975063
94197.737070,0.599232449,-0.131984498,3.15310928,-0.103103739,-0.0109488613,0.0210931573
94197.747097,-0.24637133,1.47592905,1.27814368,0.214964497,0.0316657096,0.010764885
94197.757125,-0.492742776,1.54394811,-0.74039161,0.215785551,-0.0176919859,-0.00100788452
94197.767152,-0.742205394,-0.031334651,-1.92691435,-0.0512733024,-0.0349439413,-0.0056553667
94197.777180,-0.0827648951,-1.47687154,-0.588445145,-0.215019358,-0.0295201496,0.0293148674
94197.787207,-0.298945348,-0.373353688,0.437833254,-0.0789781634,-0.0310155146,0.01499292
94197.797235,-0.388778544,1.51615847,0.265665254,0.143080192,-0.00652801362,-0.0250216078
94197.807262,0.33891168,0.924474657,0.647847293,0.145726579,0.00903789675,0.000582554601
94197.817290,0.231006967,-1.12116644,0.90787244,-0.0862552498,-0.00860474655,0.000858725272
94197.827317,-1.08074988,-1.15748966,-0.0417114265,-0.0584451977,-0.0389173806,0.0392865401
94197.837345,-0.677694416,-0.194287947,-1.12687631,-0.00107617881,0.0362471461,0.0169623282
94197.847372,0.502209122,0.443949952,0.476082613,0.0781699073,0.0693278655,0.0160501946
94197.857400,-0.0449976937,-0.0942771736,0.156509883,0.0565714043,0.0256970327,0.0184595559
94197.867427,-0.544208541,-0.621674442,-1.19130582,-0.0453163434,-0.011667914,0.0448797133
94197.877455,-0.418211925,-0.923919094,-0.802141672,-0.145321247,-0.0236699835,0.061084782
94197.887482,0.275370278,-0.0791928648,0.323266964,-0.0588675749,0.0429194316,0.0459327262
94197.897510,0.692746892,0.920039013,1.49419992,0.0667705189,0.0218479659,0.0308709529
94197.907537,-0.522293938,0.520717733,0.598682573,0.126581373,0.0260126188,0.0499767375
94197.917565,-0.400308238,-0.407406107,0.0584744563,-0.0104470432,0.0281724415,0.0332741898
94197.927592,0.0441312269,-0.670700558,-0.603391954,-0.0869953457,0.00491665466,0.0399419453
94197.937620,-0.013963673,-0.490607757,-0.925927626,-0.0733088303,-0.0090801206,0.0353852746
94197.947647,-0.213616111,0.133575953,0.390337928,0.0633206543,0.0325890302,0.04695112
94197.957675,-0.0510846855,0.276123306,0.744235537,0.0616127688,0.0409817144,0.0291625347
94197.967702,-0.0050408733,0.136175742,-0.646962216,-0.0428816836,-0.0210726031,0.0347834018
94197.977730,-0.0173764771,-0.365943083,-0.987593516,-0.0820019145,-0.0040936179,0.0544849348
94197.987757,0.17266686,-0.02939244,0.726694035,0.0251588885,0.0209789767,0.0617793326
94197.997785,-0.185477739,0.795955756,-0.151378254,0.047028764,-0.0384071164,0.0259355821
94198.007812,-0.301906974,0.440894035,-0.797324627,0.0108401354,-0.0124647322,0.0298570872
94198.017840,0.712797527,-0.582380324,1.59397021,-0.112917219,0.0304009754,0.0301745359
94198.027867,0.303954422,0.0107007704,1.55134453,0.0239519428,0.0216807208,0.0456094195
94198.037895,-0.747069273,0.834025959,-0.972786408,0.119768488,0.0156268233,0.0194952593
94198.047922,-0.0720550658,0.557656995,-0.945119233,0.0385969307,0.0367824405,0.0162861508
94198.057950,0.632070524,-0.981929311,0.153580259,-0.0944380809,0.035876435,0.0489428986
94198.067977,0.265881954,-1.07458487,-0.297888082,-0.108922479,-0.0232417465,0.0455345821
94198.078005,-0.353808134,0.351529479,-0.691327427,0.00376092065,-0.0084452231,0.036263318
94198.088032,0.307500497,0.785359105,0.685008272,0.0313928153,0.0314033895,0.016832364
94198.098060,0.568676787,0.402176146,0.771889268,0.0210765291,0.00466365437,0.0330840398
94198.108087,0.16349688,-0.298844062,-0.17313942,-0.0171752546,0.0134369058,0.0423702162
94198.118115,0.30092258,-0.0815810385,0.197436352,-0.020157994,0.00631667883,0.00793101568
94198.128142,0.0443505688,0.218738034,0.043272211,0.0842421826,0.0275862801,0.041297761
94198.138170,0.187299196,-0.410731562,-0.267180224,-0.033437581,0.0179155439,0.012333221
94198.148197,0.185889256,-0.449650381,-0.276329161,-0.118015577,-0.0379133665,0.0432392035
94198.158225,-0.14262549,-0.406925447,-0.0781879305,-0.115552952,-0.0250023634,0.0399573904
94198.168252,0.491055129,0.988605111,1.35111539,0.111604567,0.0760060071,0.0200643774
94198.178280,0.626066242,1.36482956,0.0830536018,0.12037995,0.00351876136,-0.00422285289
94198.188307,-0.62967587,0.111746307,-1.71078446,-0.00263066585,-0.0305707671,0.00877576996
94198.198335,0.0709791211,-1.21239314,-1.13765841,-0.100640048,-0.0216792703,0.0404455487
94198.208362,0.606667641,-1.04166789,0.609177079,-0.0756145913,-0.00913231844,0.0354505267
94198.218390,0.185862515,0.121980609,0.945699774,0.0185531814,-0.00206375658,0.0161007952
94198.228417,0.140141432,0.545655555,0.520467114,0.074298742,0.00288652698,0.0122943383
94198.238445,0.264159149,0.116547579,-0.0453880692,0.006517825,-0.0115155813,0.0215309795
94198.248472,0.0765879739,-0.453577126,-0.154892985,-0.0406981569,-0.00250850455,0.0439529319
94198.258500,-0.00638183958,-0.107679009,-0.444039597,-0.0671433408,-0.0351681814,0.0225983758
94198.268527,-0.220900277,0.64838904,-0.199431799,0.0259892594,-0.0133960398,0.0237675023
94198.278555,0.22719888,0.575713388,0.942474967,0.0527119514,0.000424434659,0.0172270455
94198.288582,0.0827789375,0.288840511,0.919547096,0.0395468798,0.042447251,0.0248399575
94198.298610,0.127727575,-0.145160087,-0.184838625,-0.0356027309,0.00298240105,0.0280908786
94198.308637,-0.482908123,-0.0463863728,-2.18910573,-0.0501273472,-0.0715118081,0.020531229
94198.318665,0.0229495419,0.229519047,-0.48607958,-0.0160010654,0.0252054136,0.0106216066
94198.328692,1.01717415,0.258898505,1.85838862,0.0283203263,0.00328946323,0.00771689717
94198.338720,-0.0923686628,0.27662057,0.568366929,0.0654565122,0.0317376151,0.00900613353
94198.348747,0.204709911,0.0629146449,0.4580355,0.0073319532,0.0277809564,0.0164805625
94198.358775,0.292633183,-0.240287865,-0.6506675,-0.0375569586,0.0168976828,0.0212862354
94198.368802,0.582411371,-0.159702006,-0.462979275,-0.0549061235,0.0312430661,0.02518963
94198.378830,0.511133383,0.0726469846,0.51567345,-0.00650476636,0.0290203921,0.0198851463
94198.388858,0.328390652,0.441454153,0.476826125,0.0484903071,0.075466451,0.0136083423
94198.398885,1.08720097,0.360097365,0.244005211,0.00237208214,0.0805594816,-0.00923305821
94198.408913,1.40219463,0.128729271,-0.322260306,-0.0155991951,0.0673565983,0.00436770566
94198.418940,1.04471507,-0.543205776,0.187766022,0.00286743003,0.0923932388,0.0342193444
94198.428968,1.00527591,-0.28608552,0.713123191,-0.0329560835,0.103689839,0.00613631144
94198.438995,1.21148128,0.43373978,-0.0781060975,0.0188490588,0.0799067437,0.0138775876
94198.449023,1.26211892,0.143414223,-0.26337674,-0.00967499353,0.0860554471,0.00829080887
94198.459050,1.49562607,0.167178107,0.346581789,-0.00472497586,0.0729180768,0.010299098
94198.469078,1.30284768,0.197936215,0.0501169624,0.0550973441,0.063904871,0.0195921988
94198.479105,1.00104507,0.0087933019,0.0559499063,0.0178988453,0.0750696405,0.00509048788
94198.489133,1.37605145,-0.0764186143,-0.0658182783,-0.0503792811,0.0438142538,-0.00289366931
94198.499160,1.38013214,-0.0748094894,-0.572531537,-0.0138476344,0.0227555714,0.00403427821
94198.509188,1.24984031,0.000440032006,0.148795363,0.0240009453,0.0167962171,0.0115089726
94198.519215,1.35690046,-0.12907399,0.916667157,-0.0253698017,0.0262517694,-0.00113465149
94198.529243,1.11065235,-0.115094199,0.958765008,0.014550072,0.01723921,0.00383182125
94198.539270,0.811007653,-0.0705257797,-0.350647612,0.0112514801,-0.0057199013,0.00456126103
94198.549298,0.80125359,-0.0256403529,-0.987492978,-0.0218697201,-0.0518618331,0.00470773479
94198.559325,0.77787476,-0.105608615,-0.546782763,-0.0146256566,-0.0550933101,0.012517188
94198.569353,0.795503283,-0.0490935768,0.609254235,0.00928819813,-0.0689755634,0.0193306182
94198.579380,0.383410674,0.111649806,0.550224539,0.0271340411,-0.0522240207,0.0109520482
94198.589408,0.541296393,0.320469959,-0.096584588,0.00728390301,-0.0740310431,0.00661722127
94198.599435,0.543248039,0.161806515,-0.804119694,-0.0163061108,-0.078932862,0.00883776531
94198.609463,0.534490878,0.160255614,-0.378685373,0.0212170303,-0.0875777483,0.00665743485
94198.619491,0.387153733,0.136376077,0.268508369,0.0282975759,-0.050792306,0.00937465787
94198.629518,0.585288461,-0.193420735,0.841828481,0.0047637539,-0.0473445759,0.0129270491
94198.639546,0.450502973,-0.264676237,0.190408061,-0.00824046153,-0.023083444,0.0085903576
94198.649572,0.686211864,-0.0740436836,0.00804132317,-0.0236061022,-0.012415888,0.00588511838
94198.659601,0.677270067,0.0275509336,0.0244161194,-0.0244463284,0.0037140802,0.00789473973
94198.669627,0.75501915,0.218730088,0.407337578,0.00801627226,0.0251892793,0.00845134001
94198.679656,0.83938619,0.32107472,0.4391344,0.0260328248,0.0412079252,0.00619457778
94198.689683,0.932670769,0.103204214,0.247847858,0.00577442376,0.0490914143,0.00523024727
94198.699711,0.997180943,-0.194050978,0.106376025,-0.0119105644,0.045763795,0.00640549999
94198.709738,1.05002932,-0.221251466,0.0764923436,-0.0269427758,0.0600612394,0.00915627856
94198.719766,1.17784658,0.0137333339,0.330795021,0.00580638163,0.0645412176,0.0106790748
94198.729793,1.13039407,0.221906672,0.0761591661,0.0137412695,0.0637545183,0.00574663397
94198.739821,1.23925593,0.0935997334,0.0673913378,-0.0163676303,0.0573464155,0.00593784893
94198.749848,1.26091262,-0.0549242055,0.14547411,-0.0207679711,0.0595461845,0.00651042838
94198.759876,1.25004095,0.173710248,0.174909463,-0.000269620513,0.0552550338,0.00305524351
94198.769904,1.23563102,0.302022886,0.146187227,-0.00359510975,0.053269115,-0.00417790167
94198.779931,1.32740417,0.254998119,0.177607616,0.0122658785,0.0504453636,-0.0068852713
94198.789959,1.40541242,0.154132263,0.0274281607,0.0235483617,0.0426721319,-0.00761045121
94198.799986,1.4023127,-0.129424393,0.0765186471,0.00590731558,0.0329486623,-0.00135095675
94198.810013,1.37725132,-0.463902888,0.222842596,-0.0151761325,0.0231783267,0.00462464405
94198.820041,1.25760671,-0.431110406,0.147564945,-0.0215698492,0.00229195249,0.0106886618
94198.830068,1.01923802,-0.200770386,-0.154687233,-0.0155207451,-0.0312742658,0.0161215116
94198.840096,0.820887388,-0.0113496603,-0.316108213,-0.0196116261,-0.054321795,0.0156248298
94198.850124,0.678547321,0.147026687,-0.158702898,-0.0147231288,-0.072508517,0.0149124351
94198.860151,0.569668794,0.276306663,-0.0316991511,-0.0122085718,-0.0802053169,0.00760578666
94198.870179,0.512831127,0.404646408,0.0876970437,-0.00398313226,-0.077663596,0.000291947499
94198.880206,0.472676373,0.464010013,0.102061085,0.0204236738,-0.0840000541,-0.00465620566
94198.890234,0.278770954,0.395424479,-0.0617342238,0.0451212961,-0.0918204293,-0.00678087562
94198.900260,0.133333724,0.0154765197,-0.120097565,0.0298219703,-0.0997241617,-0.00204071566
94198.910289,-0.0843631241,-0.531031683,-0.0267885827,-0.0149194032,-0.106586325,0.00749846105
94198.920317,-0.0736252378,-0.533447293,-0.0255938199,-0.0296980824,-0.111362974,0.0112913356
94198.930344,-0.261402749,-0.163932172,-0.0624163609,-0.00914300717,-0.107642534,0.0115283572
94198.940372,-0.441743972,0.112248393,-0.0636491176,-7.36118612e-05,-0.111789341,0.00956667237
94198.950399,-0.653675316,0.159971756,-0.061872171,-0.0020803038,-0.114426139,0.0110111704
94198.960427,-0.866688098,0.171396108,-0.106317462,0.000300029692,-0.116191815,0.00748328142
94198.970454,-0.998486167,0.250663816,-0.160209796,0.0120810548,-0.112182158,0.00499588879
94198.980482,-1.08910028,0.170676763,-0.0689103991,0.0176510576,-0.0997931317,-0.00159596723
94198.990509,-1.13073782,-0.00151634906,0.0794073542,0.00646711169,-0.0856834382,0.000825378336
94199.000537,-1.17045974,-0.144912515,0.166352063,-0.00651499927,-0.067271407,0.00350292049
94199.010564,-1.27660811,-0.138072677,0.051295943,0.00289235059,-0.0562557795,0.00481159821
94199.020592,-1.3785689,-0.0862195668,-0.159327168,0.0112376314,-0.0494396866,0.00547179602
94199.030620,-1.46288326,-0.128209446,-0.183264508,-0.00249762106,-0.0445421331,0.00550588429
94199.040647,-1.4816033,-0.210615049,-0.0716822019,-0.00633550221,-0.0374266983,0.0116769608
94199.050675,-1.4955893,-0.174909932,-0.0578775484,-0.00859918929,-0.0297626529,0.0141470425
94199.060701,-1.5098981,-0.0617047553,-0.00704167968,-0.00359724015,-0.0240118217,0.0187455241
94199.070730,-1.57099131,0.0448284919,-0.101562376,0.00981869996,-0.0191456948,0.0202491444
94199.080756,-1.63562029,0.110854829,-0.205372879,0.00814090837,-0.0218160462,0.0206757833
94199.090785,-1.68899064,0.0278018624,-0.234195069,-1.44896998e-05,-0.022561732,0.0191465963
94199.100812,-1.70228691,-0.0311402609,-0.186372995,-0.0120980509,-0.0267841735,0.0177417782
94199.110840,-1.70629147,-0.0126649077,-0.0620808453,-0.0101448886,-0.0235947717,0.0147297431
94199.120867,-1.68910433,0.110930734,0.0801286543,-0.0011604479,-0.0181968112,0.00901193567
94199.130895,-1.69424623,0.190851517,0.155998426,0.00757258972,-0.0124161535,0.00473569775
94199.140923,-1.71534995,0.0660745291,0.160256084,0.00750973942,0.00112149305,0.00325151835
94199.150950,-1.70583978,-0.167723728,-0.081059102,0.0172462564,0.0179982118,0.00783615023
94199.160978,-1.65078527,-0.355861396,-0.872921427,0.0283162192,0.001366504,0.0132285182
94199.171005,-1.76861363,-0.487750285,-1.40575872,0.0135079769,-0.0283421234,0.0123560673
94199.181033,-1.5836237,-0.80370793,-0.183331144,-0.0816220019,0.000706838963,0.0144570351
94199.191060,-0.888025923,-0.664335553,1.66879719,-0.112927725,0.0125155614,0.0301648911
94199.201088,-1.39996064,0.399349434,0.294164788,0.0345544059,0.00969287636,0.0331055534
94199.211115,-1.57203541,1.21130642,-1.05986497,0.0530047853,0.00463047414,-0.00463969424
94199.221142,-1.46989606,0.854924516,-0.633757282,-0.0157796044,-0.0263506111,-0.0121151877
94199.231170,-1.47720039,-0.18568035,-0.316597458,-0.0111121481,-0.0148649311,0.00375059456
94199.241197,-1.23734431,-0.0386479012,0.218869016,0.0460856285,-0.00345514925,-0.0164321724
94199.251226,-1.39522777,0.076214002,0.182082716,0.0171993848,0.00309010176,-0.017489447
94199.261253,-1.41209327,-0.597978473,0.388803558,-0.0265499588,0.00583582115,0.00199370714
94199.271281,-1.49412653,-0.472421125,-0.49880053,-0.0569597978,-0.00278456533,-0.0122872272
94199.281308,-0.942429495,0.514839269,-0.76698268,0.0350550812,0.0279094323,-0.0242008779
94199.291336,-1.02101561,0.323877612,-0.200890766,0.0614494037,-0.0238171455,0.00540335219
94199.301363,-1.84592776,-0.762565553,0.615527324,-0.0264415696,0.0197095599,0.00863296747
94199.311391,-1.38644226,-0.518979901,0.844471689,-0.0208721004,0.0155853869,0.00255270464
94199.321418,-1.17469387,0.0611013575,-0.805831174,0.0248093687,0.0348024897,-0.00146760304
94199.331446,-0.884054609,-0.246597943,-0.519589051,-0.0650094721,-0.00442107744,0.0109275479
94199.341474,-1.32063941,-0.510574476,-0.308753759,-0.102837813,-0.00508793327,0.00996880908
94199.351501,-1.26098881,0.531152654,-0.144912273,0.0262599912,-0.0157725357,-0.00368947793
94199.361529,-1.09277758,0.921950399,0.25368314,0.0699070644,0.0613339662,-0.00385352947
94199.371556,-0.400415133,0.155929558,1.04467979,0.00676778267,0.0544843159,0.00400812248
94199.381583,-1.1440422,-0.144275706,-1.25020868,-0.048238476,-0.0446798198,-0.00629831083
94199.391611,-1.45116038,0.126637166,-1.01040331,0.0459226433,0.0147646002,-0.00880381256
94199.401638,-0.519175806,0.169033836,0.131405837,0.0184223082,-0.0402576395,0.000676508285
94199.411667,-1.09227329,-0.306786436,0.0316986776,-0.0568277027,0.00729363528,-0.0168159332
94199.421694,0.102289401,-0.0803714801,1.67979322,0.0227866963,0.0865756764,-0.00100234874
94199.431722,0.0654960135,0.298139323,0.580504526,0.00745647615,0.0356387242,-0.0173083532
94199.441749,-1.4696339,0.483067691,-1.28974516,0.0843440618,0.0182991482,-0.0107846723
94199.451777,-0.762131526,0.0981396601,-0.869859117,-0.00717386529,0.0649835661,-0.0217832613
94199.461804,0.404173038,-0.288051212,0.475171928,-0.0881885637,0.0626626208,-0.0302912619
94199.471832,-0.380363182,0.0487853489,0.137422905,0.0635080215,0.0235133513,-0.00665410958
94199.481859,-0.567367006,0.504715058,-0.492037612,0.0770757671,0.0283027801,-0.0373952452
94199.491887,-0.161323249,0.147975321,-0.268208398,-0.049811871,-0.0198788636,-0.0252203371
94199.501915,-0.231836462,-0.843521104,0.271196001,-0.0958352957,0.0224661964,-0.0120467448
94199.511942,0.292774272,0.193998857,1.37735575,0.110086175,0.0549583591,-0.00763974503
94199.521970,-0.243213889,0.851972169,-0.231495747,0.0507336434,0.0280242141,-0.0506969343
94199.531997,-0.703822691,0.0262527561,-1.10108721,0.000474552092,0.00123458507,-0.00955731958
94199.542024,-0.0982464688,-0.786693082,-0.700516696,-0.0604774814,0.0101686909,-0.0171912711
94199.552052,-0.0605355276,-0.0826785058,0.092218905,-0.0330906,-0.000189939868,-0.0147813761
94199.562079,-0.201930423,0.21424991,0.527259843,0.176612037,0.0208437077,-0.0108199248
94199.572108,-0.458020057,-0.0144250355,-0.290410878,-0.0156314468,-0.046948123,-0.0168767523
94199.582135,-0.359394921,-1.00489861,-0.316434377,-0.0977004815,0.00433743395,0.00385542469
94199.592163,0.69705416,-0.629613053,0.9579496,-0.00085596322,0.0145424006,0.0294587884
94199.602190,-0.294115443,0.249788659,0.508282171,0.00652232468,0.0521816544,-0.000831206106
94199.612218,-0.656157342,0.610357708,-0.436411586,0.0628210183,0.00400427239,0.0118896488
94199.622245,-0.419990552,0.133497773,-1.82462477,-0.00227356394,-0.00939755352,-0.0107344368
94199.632273,-0.102783162,-0.203192042,-0.295086468,-0.0108643893,-0.0286878937,0.0165057063
94199.642301,-0.070135569,-0.645476101,1.2167566,-0.0741914336,0.00127000513,0.0153581493
94199.652328,-0.000877031622,0.196072613,1.4888568,0.0111165436,0.0343794904,0.00073473271
94199.662356,-0.604700784,0.891521359,-1.22885902,0.144820022,-0.0720241845,0.00691086914
94199.672383,-1.16479638,0.0325828816,-1.88382106,-0.0272630688,-0.0397456058,-0.0170048501
94199.682411,0.320419965,-0.737119488,1.71937762,-0.0944495622,0.0669078722,-0.00541956607
94199.692438,1.06548423,-0.326867211,1.87448577,0.138483289,0.15390562,0.0255996038
94199.702466,-0.698200102,0.2231745,-2.99849436,0.0247876149,-0.204020302,0.00284954881
94199.712494,-1.93921102,-0.70716318,-1.45113866,-0.111000841,0.0311384227,-0.00381261554
94199.722521,1.39958941,-0.565035988,4.38234128,0.0184775207,0.0899985402,0.0271093484
94199.732549,0.452761201,-0.188525237,0.570084839,0.05327092,0.0634699955,0.0615450863
94199.742576,-1.13173845,-0.0926995765,-2.23664782,-0.101116521,-0.0688371763,0.0216844894
94199.752604,-0.567465278,-0.0226594831,-1.20231471,-0.0466998864,0.0236954193,0.0369790245
94199.762631,-0.50968792,0.694620338,0.0417863564,0.0765067365,-0.0171095349,0.00528101459
94199.772659,-0.510029134,0.703912775,0.0416969245,0.10503425,0.0201424963,0.0215665114
94199.782687,0.437548142,-0.988753166,0.291848328,-0.126115871,-0.0317710333,0.0621930335
94199.792714,-0.720200117,-0.979485791,-0.105400347,-0.136915517,-0.0583690882,0.0359574344
94199.802742,-0.576239829,0.912311195,0.651810936,0.0900909852,0.078744021,0.0246059757
94199.812769,0.748061952,0.88209967,1.25306184,0.140612486,0.0938414826,0.038387568
94199.822797,-0.422606141,0.202071835,-2.62928228,-0.0790943105,-0.113681081,-0.0194315228
94199.832824,-1.09759938,-0.45839439,-2.22441436,-0.082131644,-0.0552563884,0.0374794316
94199.842852,0.574664264,-0.941124934,2.09699162,-0.0921539191,0.0110097171,0.0430853825
94199.852880,0.632708091,-0.134936726,2.80321623,0.0655424994,0.0770220279,0.0462944929
94199.862907,0.095399788,0.616698602,-0.217165024,0.131067994,0.0290366549,0.0339432855
94199.872935,-0.666141999,0.173607921,-2.47298814,0.0110728674,-0.0756964118,0.0157666777
94199.882962,-0.378348189,-1.1867251,-0.322065076,-0.208571864,0.0345659114,0.0562352736
94199.892990,1.31974884,-0.748443066,2.28848567,-0.0839641664,0.0835355862,0.0583636735
94199.903018,0.581903202,1.47767195,-0.436152643,0.112411204,-0.00252792868,0.0380972859
94199.913045,-1.08827362,1.37050687,-1.17593056,0.0588049691,0.0147930037,0.000615156479
94199.923073,0.667477864,0.0569904516,0.947741509,0.00533295684,0.0527031019,0.0126142951
94199.933100,1.19264397,-0.627099171,0.576185494,-0.0317065541,-0.00383181242,0.0317134198
94199.943128,-0.516013397,-0.553784709,-0.0817476688,-0.0055604374,0.0242717273,0.0385066133
94199.953155,0.29663745,0.0518613131,0.54967275,-0.0239674088,0.0338069096,0.0191065494
94199.963183,0.460088621,0.394384103,-0.358224185,0.0570936229,0.0146081808,0.0418478113
94199.973211,0.278090132,0.190369451,-0.524372778,-0.00410235692,0.0269149158,0.00674069323
94199.983238,0.0594661587,0.137642526,-0.508196135,0.0423098829,-0.0315529213,0.048391198
94199.993266,-0.198420953,-0.417630929,-0.79927693,0.0156026397,0.00461440277,0.0291615811
94200.003293,0.540758998,-0.0408359264,0.452246395,-0.048982748,0.0679395765,0.0172785551
94200.013321,0.424699985,0.0187651768,-0.988640979,-0.0379013319,-0.132079791,0.0335797642
94200.023349,-0.806936152,0.35214056,-3.0170769,-0.00993068441,-0.0545570396,-0.00616738178
94200.033376,0.828032876,0.211874359,2.76599154,0.0135165842,-0.0493633442,0.0300678548
94200.043404,0.687679087,-0.998145264,3.30170877,0.0139144611,0.0214647565,0.0500021477
94200.053431,-0.406924003,-0.0809756109,1.24631646,0.134266975,0.0303245604,0.0383375001
94200.063459,-0.147718283,0.481226776,-2.32424135,-0.0117445637,-0.0318762281,-0.0122559012
94200.073486,-0.0493516511,-0.813953868,-1.55094753,-0.238649872,0.00508951046,0.0448846158
94200.083514,0.754586677,-0.882813031,1.78710091,-0.126262617,0.0758776634,0.0369856816
94200.093542,0.554035025,1.58576056,0.666167378,0.178519922,0.0546203114,0.0347121407
94200.103569,-0.136488083,1.59933667,-1.60885494,0.171857494,0.0165709301,-0.00871442981
94200.113597,0.434059788,-0.282812234,0.123630527,-0.00960604492,0.00967946811,0.00928188138
94200.123624,0.67152977,-1.65255909,1.11158066,-0.0492679711,0.0377398662,0.0473770697
94200.133652,0.296372808,-0.874305826,-0.0310433175,-0.0523769457,-0.0139994959,0.0623376418
94200.143680,0.203418776,-0.130699308,-0.586789195,-0.128807795,0.0481751978,0.0499446217
94200.153707,1.09947125,0.567518866,1.34374632,0.0240134325,0.0457738235,0.0418696527
94200.163735,0.311944836,1.13083478,-0.267340383,0.0599008601,0.0530312031,0.00903234374
94200.173762,0.2630677,0.966733179,-0.703560302,0.0015086574,0.0160750493,0.0131469269
94200.183790,0.526151285,0.152440447,-0.317357337,0.0179329056,0.0311336282,0.0104992122
94200.193818,0.667561232,0.0143386337,0.0448387297,-0.0360935789,-0.00360571011,0.015874536
94200.203845,0.458616649,-0.0887279968,0.592508268,-0.0300958727,0.0396999537,0.00530258635
94200.213873,0.728486825,0.608552522,0.448169939,0.12357864,-0.0212560755,-0.010423647
94200.223900,-0.0720452751,0.12396254,-1.02269464,0.014331512,-0.0102747988,0.00703763565
94200.233928,0.302858516,-1.12825041,0.462631011,-0.100386282,-0.0530393042,0.0196836565
94200.243956,-0.0100763102,-0.682568179,0.100999593,0.0177126627,0.00285591767,0.0281261441
94200.253983,0.663902855,-0.00867418492,0.0533452767,-0.028015678,0.00366392056,0.017426626
94200.264011,0.222244107,-0.3322009,-0.303639777,-0.0178288195,-0.0436647118,0.0450223025
94200.274038,-0.411406994,-0.215626667,-1.25548341,0.00650421512,-0.0814666853,0.0271162738
94200.284066,0.0529466208,0.287644141,0.204096979,-0.048389395,-0.037073388,0.0232203354
94200.294094,0.688282094,-0.00714520809,2.24234877,-0.0984821219,-0.00444407319,0.0322130297
94200.304121,-0.0188749721,0.557905417,1.27996972,0.0608457502,0.0425908125,0.0486828175
94200.314149,-0.29013273,1.53857708,-1.55626025,0.0609429542,-0.0673596517,-0.011248959
94200.324176,-0.955847048,1.03303959,-2.48785195,0.022698364,-0.0485188544,-0.00260380633
94200.334204,0.603753945,-0.690501383,0.511789886,-0.0352080774,-0.0309438587,0.00820836168
94200.344232,0.362045376,-0.678099363,1.64707402,0.0365278933,-0.00333673065,0.0128968565
94200.354259,-0.168017194,-0.0802404193,1.36440917,0.0133509355,0.00387457641,-0.0136402117
94200.364287,-0.575213993,-0.0797808207,-0.118935536,-0.0132226182,0.0254006411,0.0208719589
94200.374314,-0.322916956,-0.447270208,-2.17414373,-0.120212716,-0.0760793791,0.0232083511
94200.384342,-0.330786082,0.408949147,-2.20745037,-0.0697471473,-0.0558026016,-0.00195958722
94200.394370,0.403625925,0.80255194,1.01572491,0.0578249272,-0.0237088476,0.0119375859
94200.404397,0.0668460398,0.0977041,2.73300697,0.0587226775,0.0063622354,0.00423625646
94200.414425,-0.853002468,0.356542412,0.777879448,0.0589836676,-0.0324746438,0.00997190665
94200.424453,-0.812771287,0.476739657,-2.38424837,-0.0024551914,-0.0486818396,-0.01693401
94200.434480,-0.120321011,0.148802693,-1.13668576,-0.0974195201,-0.0565951571,-0.00213056222
94200.444508,-0.0893802947,-0.466153955,0.871340991,-0.00837726257,0.000114193182,0.000138184279
94200.454535,-0.32483068,0.229668904,1.45248084,0.056769247,0.0107335474,-0.0233554232
94200.464563,-0.877863207,0.690762859,0.00425595941,0.0601916786,-0.0194078416,-0.0394523691
94200.474591,-0.368780881,0.282962066,-1.37631635,0.00358645553,-0.0270527129,-0.0348600138
94200.484618,-0.0985323731,-0.65965061,0.702614656,-0.117901092,0.0140909951,0.00764190707
94200.494646,-0.455742248,-0.619700585,1.08790343,-0.0961249594,0.021276471,0.0200293336
94200.504673,-0.336524698,1.50678494,-0.974795994,0.196259501,0.0587812371,-0.0486930038
94200.514701,-0.447788732,2.22241055,-2.08130821,0.085169467,-0.104227389,-0.103563181
94200.524729,-1.09047822,-0.915095298,0.0250982564,-0.226827306,-0.000499931751,-0.0247975278
94200.534756,0.919567396,-1.03253714,3.46143347,-0.109108751,0.0606496676,-0.0172568325
94200.544784,-0.173227768,1.76640618,0.099322015,0.245494353,0.0519344739,-0.0425531331
94200.554811,-0.895230521,2.07701658,-2.27305301,0.0195267264,-0.0259281017,-0.135836473
94200.564839,-0.605533362,0.146927346,-0.453130081,-0.110985478,0.0100195135,-0.113170585
94200.574867,0.588180602,-0.244435248,0.955643076,0.0702112045,0.0644923418,-0.0677226696
94200.584894,0.385068744,0.468966247,0.665208178,-0.0162331361,0.0611399568,-0.106733992
94200.594922,-0.540336887,1.00449264,-0.339815252,-0.0859632168,-0.0201809995,-0.140938825
94200.604950,-0.421768886,1.41399588,-1.32615678,0.0854644578,0.0218303658,-0.144964195
94200.614977,1.09227739,1.08971278,0.829076552,0.127626839,0.0793146982,-0.129230506
94200.625005,0.210147353,-0.254112319,1.72040229,0.052199452,0.0198670838,-0.10410758
94200.635032,-1.11791086,-0.465939435,-0.994440606,0.0580791783,0.0404019214,-0.106426394
94200.645060,0.867153464,0.08103191,-1.65569736,-0.0910647709,0.0309804555,-0.138118005
94200.655088,0.633425446,-0.15974937,-0.544299129,-0.0314616237,-0.017664579,-0.0802762795
94200.665115,-0.371912457,-0.153110005,0.611246286,0.056473824,-0.010358196,-0.0710774574
94200.675143,0.0770501115,0.283696189,1.87763926,0.0769577947,0.0195949085,-0.0706785161
94200.685171,-0.079986005,0.136917646,1.02914203,-0.0289145756,0.0156291954,-0.112828634
94200.695198,-0.165826332,0.475751742,-1.18879238,0.0574767727,-0.00305021578,-0.0806816134
94200.705226,0.398622929,-0.114416921,-1.89438863,0.0336324263,-0.0339330279,-0.0747161347
94200.715253,-0.350097443,-0.670998372,0.0661883917,0.00640852638,-0.0139401483,-0.0657892216
94200.725281,-0.333849415,-0.741207196,0.926479526,-0.0212049905,-0.0161305976,-0.0810648415
94200.735309,-0.0246962986,-0.00781077303,-0.160704301,0.0419545386,0.0271540254,-0.0830158729
94200.745336,0.775720432,-0.136114118,0.457348102,-0.0338480819,0.0302259817,-0.0717560339
94200.755364,0.361526467,-0.4960201,0.156670627,-0.0879147846,-0.0325577736,-0.0588018771
94200.765392,-0.618066754,0.0931348924,-0.380729446,0.0472230677,0.0106837058,-0.0485612254
94200.775419,-0.0606155341,0.448356663,-0.129569743,0.129888925,0.00749004283,-0.04825656
94200.785447,0.65158866,-0.237551773,-0.111865159,-0.0420538124,0.0245563786,-0.0865935672
94200.795474,1.08219366,-0.777005508,1.65665258,-0.0727281097,0.0354066312,-0.052300303
94200.805502,-0.0125686385,-0.677999921,1.66409939,0.0855105322,0.062265408,-0.0209264036
94200.815530,-0.273353006,0.373701162,-1.12087678,0.0323879298,0.0173887468,-0.0536156397
94200.825557,0.485659189,0.676424098,-0.658628688,0.143377575,0.113434587,-0.0628269825
94200.835585,0.669254445,0.249899097,-0.880625426,0.0758701589,-0.0719099746,-0.0611369412
94200.845613,-0.643233636,-0.747091578,-2.25959849,-0.116445762,-0.0327079736,-0.0353825714
94200.855640,1.0093211,-1.16279324,1.78793327,-0.13708472,0.0012896714,-0.00155829802
94200.865668,0.829704024,0.102173957,1.8518034,0.0759204876,0.0309098817,-0.0215099033
94200.875696,0.0397468013,1.32000593,0.137066347,0.170867252,0.0104014107,-0.0689426649
94200.885723,-0.188411162,0.319549008,-0.990207498,0.0179916795,-0.0100157133,-0.0704074043
94200.895751,0.712517833,-1.29409973,-0.485670999,-0.161818293,0.0166489209,-0.0242289889
94200.905778,1.27473495,-1.07607394,1.32686182,-0.158653659,0.103540678,-0.0378324154
94200.915806,0.717717082,1.18969328,0.358816416,0.10783581,-0.0127763462,-0.0355721887
94200.925834,-1.24534788,1.14516696,-1.35611411,0.133298564,0.03045022,-0.052171408
94200.935861,0.504908079,0.14471947,0.433415438,0.0544314485,0.0260101973,-0.0740202505
94200.945889,1.15363546,-0.934746997,-0.656513888,-0.0768517453,-0.0393163443,-0.0443182762
94200.955917,-0.25000859,-1.31455697,-0.432048715,-0.0997986097,-0.0396692113,-0.0266540635
94200.965944,0.360945525,0.0443569151,0.739215079,0.0337117862,0.0310765959,-0.0364278618
94200.975972,1.16125098,0.714319237,0.401356166,0.0413265627,-0.0077938384,-0.0401304576
94200.986000,0.177971761,-0.107219612,-0.466575254,-0.0638350148,-0.00789983222,-0.0234726507
94200.996027,1.02611697,-0.384399216,1.09420574,0.0397228066,0.0551936522,-0.0230271022
94201.006055,1.1515002,0.240591462,0.598491434,0.056550524,0.0570605255,-0.041968039
94201.016083,0.536877919,-0.203063794,0.030814296,0.0305756506,0.0713510483,-0.0142373403
94201.026110,1.00958289,-0.801817294,-0.63723168,-0.0206414659,0.0614302426,-0.0153691841
94201.036138,1.42674542,-0.592310583,0.005860472,-0.0627122197,0.0666052967,-0.0179487232
94201.046165,1.73506581,-0.0158601052,0.375624343,-0.0179146558,0.0862117528,-0.0176794778
94201.056193,1.42573245,0.0754754358,0.417878262,0.100441548,0.0767455518,0.036418644
94201.066221,1.10476519,-0.572831428,0.00127080612,-0.0914994005,0.0827533721,0.00268198758
94201.076248,1.61037005,-0.0748176636,0.440544851,-0.00658317208,0.0585052937,0.000228417329
94201.086276,1.5612895,0.115926789,-0.387694025,0.0839672338,0.0755971938,-0.00202994306
94201.096304,1.49729137,-0.308102487,0.413950859,0.0381635267,0.0628603592,-0.00421240438
94201.106331,1.25881082,-1.05578511,0.438496102,-0.0519466598,0.0548562303,0.0226897832
94201.116359,1.45057726,-1.10520958,0.491891008,-0.029507396,0.0794108405,0.0229286693
94201.126387,1.86384227,-0.273445253,0.131535016,0.057905807,0.0838479295,0.0384538334
94201.136414,1.87778735,-0.551038223,-0.366596876,0.000685393336,0.0623194694,0.0441093233
94201.146442,1.73925464,-1.02910169,0.0206208188,-0.07957456,0.0609181158,0.0552751582
94201.156470,1.86378046,-0.812995106,0.45296185,-0.0584618162,0.0419004827,0.0715787571
94201.166497,1.96278064,-0.292773072,0.339936359,-0.0640643138,0.052669239,0.0897814643
94201.176525,1.86143389,0.147311724,0.832722215,-0.0497772481,0.0440725579,0.0884091419
94201.186553,1.55444753,0.895716545,-0.146825998,-0.039398377,0.0134339516,0.0550317441
94201.196580,1.27649202,1.42319436,-0.618186788,-0.0218814343,-0.0329524532,0.0338494938
94201.206608,1.16798167,1.2644464,-0.189220786,0.036011162,-0.0268048134,0.0224032265
94201.216636,1.60809246,1.03431129,0.59164376,0.0193187341,-0.0127819388,0.00140180601
94201.226663,1.6594883,0.625064279,0.698156508,0.0615261074,0.0136733705,0.00673691671
94201.236691,1.73420277,0.227384391,0.0463310141,0.0473463748,0.00395522941,0.00533209903
94201.246719,1.67328054,-0.248861175,-0.296643634,-0.0431390528,-0.00108746614,0.0136539445
94201.256746,1.77967185,-0.469340074,0.279959153,-0.0545911763,-0.000958302878,0.0198985238
94201.266774,1.70802145,0.306363783,0.373646321,0.00492408062,0.000377272484,0.00669776764
94201.276802,1.65819914,0.872791451,0.172972942,0.0311327826,-0.00127628434,-0.00172634307
94201.286829,1.6656024,0.531235108,0.0577286064,0.0202212788,0.00142735685,-0.00293781493
94201.296857,1.77335258,0.156941338,-0.0407592404,0.0183855619,0.00511290528,-0.00400441118
94201.306885,1.89322516,-0.104241537,0.31670629,0.00820402969,0.0211946692,-0.00263820939
94201.316912,1.93482617,-0.293656376,0.770250269,0.00312511511,0.0323890008,0.00119621003
94201.326940,1.91404832,-0.314392673,0.531331622,0.0021277613,0.032033202,0.00649643293
94201.336968,1.95666332,-0.2427523,0.0913532281,-0.016763638,0.0255151156,0.0127964069
94201.346995,1.95253397,-0.179873582,0.0692547935,-0.0281092349,0.0163053728,0.015097378
94201.357023,1.7628309,0.0679037127,0.184793728,-0.00543801272,0.00550012919,0.00530813051
94201.367051,1.5248241,0.338381134,0.167607031,0.018509398,-0.010221842,-0.00390267815
94201.377078,1.4093103,0.171377787,0.0406254959,0.00516589573,-0.0264040076,-0.00479829941
94201.387106,1.34845778,-0.101075757,-0.0173275114,-0.0101741787,-0.042977921,-0.0026387421
94201.397134,1.24160776,-0.159944564,-0.0481914362,-0.000465624829,-0.0525549159,0.00349904526
94201.407162,1.15886174,-0.189926116,0.0866805601,-0.00695681357,-0.0587630116,0.00883841723
94201.417189,1.05937444,-0.180085179,0.205912504,-0.00628037071,-0.0665189356,0.0130976105
94201.427217,0.882235152,-0.0835109289,0.0632494156,-0.00482468698,-0.0784048915,0.0128262343
94201.437245,0.718378907,0.0104146652,-0.0822544493,-0.0181450184,-0.0944821269,0.00839899503
94201.447272,0.576485269,0.128719261,-0.119121414,-0.0205514517,-0.103513169,0.00207904795
94201.457300,0.458181691,0.304893893,-0.0462531616,-0.00816775318,-0.107098322,-0.00386938896
94201.467328,0.369451707,0.467238071,0.0348556803,0.00506149959,-0.105997104,-0.01038428
94201.477355,0.305599266,0.483406787,0.0912263869,0.0228500858,-0.102983999,-0.0170419167
94201.487383,0.183435653,0.304997409,0.0203759041,0.0299663179,-0.103546198,-0.0132668854
94201.497411,0.051189548,0.00805657142,-0.053033031,0.0101590565,-0.100986633,-0.00667928975
94201.507439,0.0029834432,-0.200196513,0.109013388,0.00134931929,-0.0936725244,0.00173763068
94201.517466,-0.106311629,-0.182111881,0.089920565,0.00630413071,-0.0851735801,0.00649882969
94201.527494,-0.161123781,-0.129321389,0.0753443426,0.00301299622,-0.0736668587,0.00449879583
94201.537522,-0.180619485,-0.130946141,0.138451664,-0.0134725843,-0.0596895993,0.00402512936
94201.547549,-0.173120654,-0.0396441,0.176983347,-0.0118733562,-0.0371837572,6.10139593e-05
94201.557577,-0.0989458493,0.150745114,0.156449093,0.0165580183,-0.0125311383,-0.00444638614
94201.567605,0.0644898321,0.143716914,0.172742056,-0.000345331276,0.0137294938,-0.00840703934
94201.577633,0.105856227,-0.0728871613,0.282229436,-0.0101657372,0.0223706521,-0.00673244312
94201.587660,0.100691757,-0.0306169586,0.0718471481,-0.00954894926,0.0325934633,-0.00268470474
94201.597688,0.137230586,0.123256127,0.000769286336,-0.00157491276,0.0232822529,-0.0011374082
94201.607716,0.0347036926,0.139644477,-0.0624596155,0.0110370198,0.0200715463,-0.00221332513
94201.617743,0.0681834259,0.096142769,0.0301444339,0.00833684095,0.00796002126,-0.00402001362
94201.627771,-0.0631142921,-0.0159181647,-0.0740454239,0.00367843854,0.000801444515,-0.00621818729
94201.637799,-0.0664825995,-0.0761682928,-0.138666072,-0.00207372284,-0.0062213114,-0.00660274714
94201.647827,-0.0522125935,-0.116384842,-0.0842418237,-0.00753559982,-0.010856543,-0.0024586029
94201.657854,-0.0788035903,-0.0719701744,0.0182149267,-0.00256827166,-0.00966877328,-0.00208149921
94201.667882,-0.0670828304,0.0230442059,0.0600497428,0.0026936017,-0.00722638867,0.000519343875
94201.677910,-0.0687800628,0.0233643138,0.0420014604,-0.000142664715,-0.00281193271,0.000983267315
94201.687937,-0.0274451589,0.0162606741,0.055326806,-0.0129679155,0.000439520921,-0.00475584507
94201.697965,-0.033878553,0.126048644,0.0180535986,0.00760020996,0.00108613644,-0.00668317523
94201.707993,-0.0745335117,0.147722661,-0.0745738317,0.0150472073,-0.00286200014,-0.0114209389
94201.718021,-0.121939771,0.00861083517,-0.0510333816,0.00762604205,-0.00613635662,-0.0106161309
94201.728048,-0.0805974149,-0.15782127,0.00513274224,-0.00287879649,-0.00606525015,-0.0096472723
94201.738076,-0.0656602502,-0.117623444,-0.034635789,-0.0111662868,0.0018017278,-0.00841689274
94201.748104,0.081783789,0.00990931402,0.0410083577,-0.00351182995,0.0124493127,-0.000726748966
94201.758132,0.153897716,0.0582431733,0.142782387,-0.00239543263,0.0125981828,0.00863612652
94201.768159,0.101940442,0.0669238166,0.149054306,-0.00172751182,0.0222244456,0.00504006002
94201.778187,0.211617134,0.229795215,0.108589025,0.00682842573,0.0189253211,0.000393110551
94201.788215,0.166301563,0.186725596,-0.101247319,0.000495428735,0.0189615402,-0.00179680694
94201.798243,0.24122609,0.0924203144,0.0268284412,-0.0077529137,0.0105851002,-0.00634708419
94201.808270,0.181087263,0.169495407,-0.0431627944,0.00267682392,0.0124503782,-0.00944726892
94201.818298,0.194672575,0.202844354,-0.0282703457,0.0101192946,0.000695450692,-0.0100968143
94201.828326,0.125775272,0.075424829,-0.0255575796,0.0155180542,-0.00409610873,-0.0101623291
94201.838354,0.0877909205,-0.0883785897,0.0321277167,0.0153574662,-0.0116858513,-0.00601472124
94201.848381,-0.00881951506,-0.300866654,-0.0664717738,0.00681244657,-0.0170284186,0.00112308305
94201.858409,-0.0209190451,-0.440009386,-0.0222637987,-0.0111942498,-0.0223773767,0.00649308063
94201.868437,-0.0821671484,-0.378372247,-0.0197719819,-0.0221078854,-0.0215115838,0.00802173488
94201.878465,-0.0923486429,-0.125129974,0.0415139692,-0.0111100946,-0.0196132821,0.00789230525
94201.888492,-0.127268492,0.133384193,-0.000926411666,-0.00182791305,-0.0173996624,0.00479345139
94201.898520,-0.134984839,0.202783491,0.0294511909,0.00283821142,-0.0137998688,-9.10523906e-05
94201.908548,-0.136227605,0.163046359,0.0101380032,-0.000105114138,-0.0111484251,-0.00246765722
94201.918576,-0.143030855,0.15664325,0.0213158153,0.000787843767,-0.00772306766,-0.00289189886
94201.928603,-0.097310357,0.126860965,0.0239151841,0.00288588209,-0.001900865,-0.0032833831
94201.938631,-0.0411816425,0.0565408127,0.122792907,0.00490402552,0.00809477712,-0.00153022423
94201.948659,0.0254759916,0.0122759016,0.129701956,0.00335379951,0.0124746121,-0.000217552073
94201.958687,0.0253209472,-0.0427788589,0.00610538667,-0.000314172308,0.0169774841,0.000619478747
94201.968714,0.0932868875,-0.0487099706,0.031670036,-0.00226520393,0.0149098074,0.00186397437
94201.978742,0.0701378479,-0.0199518544,-0.0208580236,-0.00271900668,0.0123217467,0.0013763497
94201.988770,0.103099403,0.0111744249,-0.0137999218,0.00116601254,0.0105781758,0.000208286792
94201.998798,0.0368266761,0.0133678433,-0.0578565056,0.00293248734,0.0025434182,-0.00126044616
94202.008826,0.0139142217,-0.0215696466,-0.0539530685,0.000983053519,-0.00228009909,-0.000219682939
94202.018853,0.00684764435,-0.052851911,-0.0220025174,-0.00299331238,-0.00887541683,-0.000944861919
94202.028881,-0.0380945633,-0.0410157993,-0.0199631206,-0.00384685555,-0.00903707115,-0.000978683829
94202.038909,-0.033160614,0.0277141339,0.0037778205,-0.00417975075,-0.010049605,6.55420497e-05
94202.048937,-0.031212987,0.0534406913,0.00563952272,-0.00154854748,-0.00248356467,-3.8588196e-05
94202.058964,0.01116485,0.0734262573,0.0530933478,0.00213194108,0.00026082282,-0.00183009613
94202.068992,0.0114655134,0.0644734871,0.055155541,0.0011159451,0.00490031554,-0.000180801153
94202.079020,0.0359233706,0.0382140422,0.0622808629,-0.000849733953,0.00648010266,-0.00099040173
94202.089048,0.0454273312,0.0317427273,0.0526157934,0.000375053779,0.00891875918,-0.00101010945
94202.099076,0.0472383992,0.0307148775,0.0479133148,0.00358975521,0.00368538149,-0.000178670287
94202.109103,0.0368748991,0.0211701967,-0.0074748104,0.00367950397,0.000686395967,0.00179073749
94202.119131,0.0211189655,-0.00167903337,-0.041282972,-4.62582769e-05,-0.00376294717,0.00152948102
94202.129159,0.000258767475,-0.0176380747,-0.0594797229,-0.000993544652,-0.00629880908,-0.00121890079
94202.139187,-0.0181504572,-0.0119808572,-0.0605961597,-0.00217971666,-0.00874678628,0.000272468887
94202.149214,-0.0154661135,0.0134701894,-0.0310368878,-0.000429220855,-0.00633902266,-0.000701182298
94202.159242,-0.00830893519,0.0201584167,0.0291630216,0.00102486513,-0.00303270878,-6.33557886e-05
94202.169270,0.00358820416,0.00350465744,0.0787006673,0.000207008378,0.0021881524,7.59281591e-05
94202.179298,0.0120567573,0.00466005629,0.0831512169,-0.000879561362,0.00348750874,-0.000251907632
94202.189326,0.0364944485,0.00483338073,0.051668868,-0.00133043453,0.00647477642,-0.000278805159
94202.199353,0.0348739346,0.0349572186,0.0194359929,-0.00107929851,0.00541190919,-0.000141119361
94202.209381,0.0283365687,0.0566231116,-0.0335801425,0.00168959021,0.00114579126,0.000590716712
94202.219409,0.0234079532,0.0428944825,-0.0548286822,0.000694100445,-0.00213069586,-5.723048e-05
94202.229437,0.0117796209,0.0215498528,-0.0585327975,-0.000459314565,-0.00494911918,-0.0013027906
94202.239465,-0.00202079483,-0.00665129166,-0.0426104212,-0.0006420074,-0.00628442853,-0.000419686325
94202.249492,-0.00831580332,-0.0124706409,0.00696697193,0.000439502349,-0.0041064953,-0.000461498052
94202.259520,-0.00705893513,0.00116536431,0.0414221992,0.000778522741,-0.00175572269,-0.00098454278
94202.269548,-4.13845151e-05,0.00752938748,0.0702999187,0.000243759997,0.00358471437,-0.000815165937
94202.279576,0.0174844084,-0.00476221281,0.0654817047,0.000115129331,0.00273223617,0.000533459
94202.289604,0.0192007838,0.00692206924,0.0239917565,-0.00196879422,0.00462760799,-0.00370762475
94202.299631,0.0352123728,0.0246559017,-0.00314058058,0.000959351359,0.00460603623,0.00158088025
94202.309659,0.0351566971,0.0423871768,-0.0130388743,-0.000460379824,-0.000346377846,-0.000405837558
94202.319687,0.0202193863,0.0266519252,-0.0287484846,0.000471193859,0.000203032275,0.000200297907
94202.329715,0.00958335292,0.0237822196,-0.0266225785,-0.000743740189,-0.0068263819,0.000562487394
94202.339743,-0.0112608438,0.0158256619,-0.0207270907,0.000991309228,-0.00519120065,0.000339314565
94202.349771,0.00215568714,0.0215113748,0.00400519952,0.000380380129,-0.00305108424,-9.0270862e-06
94202.359798,0.00253979108,0.0235402412,0.0246797388,0.00208107457,-0.00058100245,-0.000559768416
94202.369826,0.00717300384,-0.00843944459,0.0309639336,0.000218726279,-0.000155162886,-0.000788800195
94202.379854,0.0167001261,-0.00930709883,0.032738542,-0.00128116605,0.0038004301,-0.00139839832
94202.389882,0.0260731538,-0.000534735877,0.0386866368,-0.000133343632,0.00230932631,-0.000418088175
94202.399910,0.025496523,0.0195739177,-0.00548568241,-0.00156452642,0.0034385065,-0.000299843736
94202.409937,0.0312777367,0.0222263501,0.00855862504,0.00069117097,0.000622480114,0.00126742641
94202.419965,0.0139420596,0.0090385545,-0.0171767047,-0.000848136094,-0.000513890646,-0.000510766879
94202.429993,0.0111194764,0.039134002,-0.0168593093,0.000923664941,-0.00327132759,0.00085836485
94202.440021,-0.00129686447,0.0350908778,-0.00261100375,0.000508478194,-0.00340049132,-3.37946787e-05
94202.450049,-0.00853879842,0.0210874823,0.0056441989,0.00134790659,-0.00366520952,0.000310286172
94202.460077,0.00838785953,0.0146165921,0.0185305685,0.00081580696,-0.00116023992,-0.00181598194
94202.470104,0.0278744311,0.01648208,0.0379869641,0.00160570063,-0.0014574487,0.000711092018
94202.480132,0.019082199,0.00627484367,0.0261521494,0.000968672385,0.00196577853,0.000620277822
94202.490160,0.0281765558,-0.00502222459,0.0184855603,-0.000831358143,0.00319828954,-0.0013861477
94202.500188,0.0338474411,-0.00192826346,0.0238386118,-0.000272893297,0.00150878005,3.33173573e-05
94202.510216,0.0176671445,0.0171680347,-0.00146767894,0.000251216864,0.000488789398,3.35837156e-05
94202.520243,0.00994436825,0.0155906567,0.00557171818,0.000682116303,-0.00238422887,-0.000608770885
94202.530271,0.00567458198,0.028883059,-0.00817097597,-0.000284344898,-0.00296559674,0.000456227213
94202.540299,-0.002247224,0.0314245099,-0.0196761203,0.00019703077,-0.00142655347,-4.06575948e-05
94202.550327,0.000561549814,0.0198755675,0.000986728479,0.000368005762,-0.00125318172,-0.000668631643
94202.560355,0.00745459726,0.0133849588,0.00996615375,0.000461216367,0.00115112005,0.000367338061
94202.570383,0.0174807551,0.0124196711,0.0289537628,-0.000426148946,0.000746852248,0.00017851986
94202.580410,0.0102195319,0.0105318664,0.0310247239,-0.00118408452,0.00178228924,-7.58112967e-05
94202.590438,0.0161852354,-0.00345355507,0.0217127056,5.72148043e-05,0.00406754785,-0.0016561316
94202.600466,0.0275673379,-0.00644902882,0.0104589057,-0.000235999244,0.00148880889,-0.000801522993
94202.610494,-1.53002258e-05,0.0190107674,0.0085095252,0.000517675354,-0.000170340417,-0.000512569919
94202.620522,0.0163190179,0.0213114821,-0.00690022538,0.000647371335,-0.00171603903,0.000870942362
94202.630550,0.00398100287,0.0295657623,-0.0188460992,-0.00051403323,-0.00238395972,-0.000145852342
94202.640577,0.00551464218,0.0223697315,-0.000120940502,-5.90209071e-06,-0.00249474752,0.000121528506
94202.650604,0.0106880262,0.0229825434,0.0169470987,0.000110744316,2.83314101e-05,-0.00191791985
94202.660633,0.00797993631,0.0308340515,0.0116922469,8.11832057e-05,0.00126244023,-0.000946132243
94202.670661,0.00919742234,0.0299643331,0.0251456027,-0.000688470268,0.00105524621,-0.00130166464
94202.680689,0.0209305302,0.0205644265,0.0323024887,1.62021521e-05,0.00215832772,0.0014981164
94202.690717,0.0154043142,0.0159031202,0.0208990512,0.000386647813,0.00179746933,-0.000396989062
94202.700744,0.0192215344,0.0269786684,0.0083066961,-0.000508440609,0.00100864097,-0.000234002955
94202.710772,0.00961973941,0.000735731583,-0.0226712105,8.27811224e-05,-0.000416949047,-0.000234002955
94202.720800,0.0148413465,0.0103114605,-0.0256651316,0.000296633042,-0.000255028955,-0.000623623617
94202.730828,0.0118830812,0.00673249235,-0.0214548204,-0.000617630206,-0.00367319608,0.000162541158
94202.740856,-0.00738137201,0.00523392892,0.00867611394,-0.00636260137,-0.00372779067,-0.00251872908
94202.750884,0.0621548133,0.0428508397,0.179525433,0.0059939337,0.0076308574,0.00179505883
94202.760912,0.0280193925,0.0384297399,0.0982359734,0.00124498462,-0.000214282544,-0.00179408282
94202.770939,-0.0311915789,0.0306222216,-0.156309866,0.00332544586,0.00304782344,-0.000827356018
94202.780967,0.0441131068,-0.0277560801,-0.109002171,-0.0108407067,-0.00498320512,2.27254257e-05
94202.790994,-0.0426369559,-0.0252072085,-0.117774676,-0.000247184487,-0.00283376757,-0.000741601698
94202.801023,0.0208038351,0.0763507071,0.0467074462,0.000847108363,-0.00499385759,0.000189972334
94202.811051,-0.0109685829,0.0227501959,0.0755986096,0.00147268484,0.00678423862,-0.00147104148
94202.821079,0.0436961965,0.00694407557,0.136888652,0.0025909462,0.000200371603,-0.00128914766
94202.831106,-0.0247692908,0.00096152143,-0.0924970264,-0.00611253054,0.00143048563,-0.000808181018
94202.841134,0.0594551989,-0.0273610118,0.107834992,0.000414344765,0.00270906928,0.00118679296
94202.851162,0.0380958192,0.0253650637,0.146114161,0.000381055221,0.00640367274,-0.00126331557
94202.861190,0.0464274481,0.0628233088,0.11535019,0.00896948371,0.00646332767,-0.000291794315
94202.871218,0.0254933081,0.00313879697,-0.105697284,-0.00392687409,-0.00114239415,-0.00174801029
94202.881246,-0.0083715521,-0.00276666421,-0.210846342,-0.00381768443,-0.00771960267,-0.00051683072
94202.891274,-0.00819568407,0.00482243007,-0.147432147,-0.00292712352,-0.0112653358,0.00164059572
94202.901301,-0.0119550366,0.0446564552,0.0669272274,0.00560777523,-0.00461116131,-0.00107103471
94202.911329,0.00131273351,0.0459866535,0.143266371,0.00464877095,0.001662447,0.000101555362
94202.921357,-0.0112514914,-0.00882398236,0.0594377484,-0.00444885362,0.00200333166,-0.0020849004
94202.931384,0.0153880937,-0.0238689913,0.00555476705,-0.00308052166,0.00295354751,-0.000772494599
94202.941413,0.0306891962,0.0171021344,0.0342588835,-0.00251300186,0.00253223534,-0.00049472671
94202.951441,0.014892346,0.04696407,0.0810527834,0.0047518353,0.0055277592,-0.000238264687
94202.961469,0.0426075245,0.0547301648,0.0404372799,0.00272783269,0.0061179155,0.000663481876
94202.971496,0.0168028558,0.0150606187,-0.069869015,-0.00386562147,-0.000857702345,0.00111249065
94202.981523,-0.00346237194,-0.0135623634,-0.11890631,-0.00352473692,-0.0059581881,-9.41872224e-05
94202.991552,0.0127995385,0.013031798,0.00580201981,-0.000238396061,-0.00582902483,-0.000946132243
94203.001580,-0.0218975348,0.0321705562,0.04176356,0.00387405726,-0.00223162701,0.00160384387
94203.011608,0.00869575643,0.0368599835,0.0600257774,-0.00117236662,-0.0003234722,0.000189439617
94203.021636,-0.00525889997,-0.00872639004,0.0318909853,-0.00330529241,0.00206564948,-0.00228836551
94203.031664,0.0171389559,-0.000183972511,0.0484651035,-0.00194095489,0.00348804402,0.000155084059
94203.041691,0.0295328658,0.0203739409,0.0319693112,0.00237336597,0.00380842224,6.37380779e-05
94203.051719,0.0178644207,0.0010634794,0.0310229703,0.001395986,0.00288803386,-0.00153895259
94203.061747,0.0357404152,0.015417967,-0.0120972095,-0.00131298154,0.000914365049,0.000102619864
94203.071775,0.00323076902,0.0244239789,-0.0635602702,-0.0010485297,-0.00337385689,0.000460814908
94203.081803,-0.000845394374,0.0295914219,-0.0464565752,0.000691047104,-0.00489345636,6.95970282e-05
94203.091831,-0.0133292476,0.0363737115,-0.000326692207,0.00111502228,-0.00357492525,-0.000813507251
94203.101859,-0.0104191323,0.02777481,0.0505717204,0.00178667163,-0.00148381142,0.00043125473
94203.111886,0.0167106475,0.0193026128,0.0336673473,-0.00140246371,0.000748982765,0.000884523839
94203.121913,0.0114207244,0.00255013319,0.0132955904,-0.00240860618,0.00223396136,-0.000882749222
94203.131942,0.0283589267,0.00219813229,0.0406506303,0.000396767797,0.00419085216,-0.000511504486
94203.141970,0.0310147019,0.0267848857,0.0135293992,0.00083512422,0.00352239864,0.000377192385
94203.151998,0.0280719264,0.00861619633,-0.0110374713,-0.00190233912,0.000211556903,-0.000155706666
94203.162026,0.0128199968,0.0186463362,-0.0162730339,0.000369869921,3.15271271e-05,-0.000418027639
94203.172054,0.00730503272,0.0212479518,-0.0270288212,0.00167268822,-0.00276692235,0.000199559368
94203.182082,-0.000954773033,0.0320606524,-0.00408925961,0.00140077952,-0.00385216042,-0.000207371786
94203.192109,0.0131479866,0.0252954463,0.0188409496,0.000822607361,-0.0034015535,0.00082833156
94203.202137,0.0016704609,0.0121762863,0.0282885769,-0.000222150769,-0.000166611983,0.000840315819
94203.212165,0.0135713996,0.00758941514,0.0299269918,0.00029210565,0.000432332973,-0.00105665416
94203.222193,0.0216165397,0.0189478947,0.0225748754,0.000176524444,0.00212557078,0.000493572317
94203.232221,0.040534956,0.00772406067,0.0404898868,0.000122462216,0.0035461008,0.000372930653
94203.242248,0.0294841313,0.0129553946,0.0220546509,-0.000255972912,0.00228376244,-0.000167690925
94203.252277,0.0144017861,0.0108836344,0.0102046387,0.0011720141,0.0025090659,-0.000562371463
94203.262305,0.0169354692,0.010845234,-0.00685521719,-0.00206798776,-2.36003008e-05,-0.000265428573
94203.272332,-0.00321636129,0.00823814767,-0.0117716308,-0.000238662361,-0.00293097296,-0.000454246774
94203.282360,-0.00376325458,0.0148800471,-0.0108358113,0.000606891283,-0.00310114888,-0.000560506955
94203.292388,0.0066354629,0.0284439232,0.00714466659,0.000158148635,-0.00159886003,-0.00241699606
94203.302416,0.0162792704,0.0194753892,0.0415683297,0.00239147554,0.000126069407,0.000495436825
94203.312444,0.009885843,0.0178089812,0.0244979524,-0.000367026726,0.00113913579,-6.03660941e-06
94203.322472,0.0168042441,0.00583211857,0.0258166338,-0.00102296333,0.00339137134,0.000554825403
94203.332500,0.0330636703,0.0036547654,0.0248813988,-0.00132869424,0.00291732861,-0.000793266818
94203.342528,0.00901804719,0.0244000181,0.0202157451,-5.14421348e-05,0.00256259553,0.00105949374
94203.352556,0.0258541042,0.0135993322,-0.00163894385,-0.000175811766,-0.000251300521,-0.000261167772
94203.362583,0.0014953966,0.0124987688,-0.0149368168,0.000227390838,-0.00190166128,-0.000349584743
94203.372611,0.00578754083,0.00710154485,5.38315434e-05,6.73347883e-05,-0.00332485443,-0.000177011602
94203.382638,-0.00396725272,0.0198862579,0.00113110539,-0.00143628586,-0.00198688242,-0.000381275788
94203.392667,0.0132662792,0.0164182941,0.0193898157,0.000690780863,-0.000301367957,-0.00121830754
94203.402695,0.0132939709,0.0184007914,0.0314970176,0.000305421467,0.00168162176,-0.000839872062
94203.412723,0.0183162561,0.0212939647,0.0233937906,-0.000592330188,0.00132316025,8.18476453e-05
94203.422751,0.0224324592,0.00209356223,0.00795773654,0.000479858418,0.00218123081,0.000148426965
94203.432779,0.0102917935,0.0181842625,0.0175000564,6.49380296e-05,0.00328031741,-0.00011069864
94203.442807,0.0148203037,0.0208699534,0.004004615,-0.000222150769,0.00156657327,0.00224140495
94203.452834,0.00694007187,0.0136763384,-0.0181359051,-0.00113028865,-0.00298929611,0.000178254433
94203.462862,-0.0154943897,0.0214233495,-0.0194651079,0.000708623955,-0.0010640974,-6.3027963e-05
94203.472890,0.00142130845,0.0158035095,0.000320373525,-0.00290555176,-0.00623462466,0.000103685297
94203.482918,0.000679696301,0.0155081661,0.0224854436,0.000911290574,0.00579567323,-0.00211339608
94203.492946,0.0858519883,0.0414309812,0.19960902,0.00324022472,-0.000159687833,0.000983327851
