t,ax,ay,az,gx,gy,gz
91093.288001,-0.00169662388,0.00922499753,0.0585316839,-0.00112617668,-0.000611977652,0.00104605407
91093.298026,0.00101657261,0.000509703088,0.0387818583,0.000132433212,-0.000188535079,0.000124334358
91093.308052,0.00242056679,0.0118790922,0.0580757569,0.00162726548,-0.00118482357,-0.000213354826
91093.318078,-0.0129810998,0.0109023562,0.0631681116,-0.00114641676,-0.000900930609,1.54105946e-05
91093.328103,0.00638123118,0.0175739429,0.060628364,0.00112312916,-0.00074380415,-0.000908706337
91093.338129,-0.00689639703,0.00638780134,0.0616734891,9.3284747e-05,0.000105744228,0.000425005332
91093.348155,0.00330459108,0.0143750007,0.0570306317,0.000963605824,-0.000880956999,0.000980007462
91093.358181,-0.00567231344,0.00152501761,0.0550841738,4.66794154e-05,0.00156196067,-0.00130551681
91093.368206,0.00670331872,0.0122445645,0.039226095,0.000566262112,-0.000106509659,0.00218721852
91093.378232,0.000547810033,0.0155186908,0.0591290653,-6.54396572e-05,-0.00120825937,0.000804238953
91093.388258,-0.00648766554,-0.0115606739,0.0574830517,0.000292755489,3.91652575e-05,0.000597577542
91093.398284,0.0123919074,0.000346986807,0.0969914707,0.00819675066,-0.000281213084,0.0276797935
91093.408309,-0.0607979666,0.0782313137,0.00526829579,-0.00386976521,0.00135050574,-0.0109546827
91093.418335,0.0642130312,-0.0646710635,0.0550882655,0.00430054637,-0.00105352968,0.00710820779
91093.428361,-0.0498263492,0.0467690577,0.0860655876,-0.000934961776,-4.07296466e-05,-0.00417746976
91093.438386,0.0287790403,-0.0226291804,0.0477659598,-0.00463355985,-0.000871369499,0.0045832647
91093.448412,-0.0016377333,0.027097485,0.0495586884,-0.004039675,0.00176888832,-0.00232524145
91093.458438,-0.021707136,-0.00243066121,0.0696130499,0.00339400675,0.00126874668,0.00346047571
91093.468464,0.0125868501,0.012392887,0.069762103,-0.000985561754,0.0012540993,-0.00189700536
91093.478489,-0.00819470349,-0.00122369658,0.0510574025,-0.00445539458,-0.000242863549,0.00302291848
91093.488515,-0.000838984133,0.0089781101,0.0420773928,0.00209837873,-0.000193595071,0.000798646361
91093.498541,-0.00072806083,-0.00407134109,0.0714087012,0.00141820731,-0.00103355607,0.000515818596
91093.508567,0.00908203969,0.0101671007,0.0425268901,0.000172380634,0.000565405819,0.000402101316
91093.518592,0.00900777915,0.00201638132,0.0901069719,-0.000136279734,-0.00092223601,-3.49227339e-05
91093.528618,-0.0140640625,0.00838664701,0.0553951395,0.00139237475,0.000861016684,-0.000283129513
91093.538644,0.0199544494,0.00714651075,0.0604758038,0.000693294918,0.000487641548,-0.00213668961
91093.548669,-0.0204955271,-0.00992101697,0.0531441457,-0.000668645662,-0.000353118405,0.00167828845
91093.558695,0.0242037134,-0.0020922961,0.07409984,-0.00075999205,-0.000749663101,0.00123327412
91093.568721,-0.0147287814,0.0223985135,0.0636281303,0.00181741512,0.00121388561,-4.3711625e-05
91093.578747,0.00647002941,0.00531586126,0.0477589455,0.000367323984,-0.00022502034,-0.000861834735
91093.588772,0.0116492016,0.0184423963,0.0709551122,0.000238427034,0.000916144112,-8.76532868e-05
91093.598798,-0.00186129237,0.0101568716,0.0673673168,0.00148132432,0.000540904759,0.000277466141
91093.608824,0.00634837351,0.0123885761,0.046568859,0.0021236788,-0.00122077635,-0.000670352951
91093.618850,0.0115182596,0.0022627573,0.0497077415,0.00126028189,-3.24738212e-05,0.000451902859
91093.628875,-0.00220920162,0.00286349967,0.0618278029,0.000437897746,-0.0022357069,-0.00162562914
91093.638901,0.0100597142,0.00974558734,0.0709562812,0.000516194734,-0.000244727824,-0.00109938812
91093.648927,0.00416960242,0.015656638,0.0625713147,7.30447209e-05,-0.00228817109,-0.000568887219
91093.658953,5.2764517e-05,0.0138565298,0.0697545042,-0.00145960448,-4.47243219e-05,0.0011720215
91093.668978,0.0127159586,0.00590257511,0.0675111092,-0.000158650291,-0.00125593005,-0.000355035067
91093.679004,-0.0132297123,0.00123480249,0.0435708462,-0.000410851644,-5.30958641e-06,-0.000628807582
91093.689030,0.00526968517,-0.00187258894,0.0589811813,0.00048263889,3.83662991e-05,-0.00101070479
91093.699055,-0.00946303722,-0.00657667498,0.0588356353,-0.00180341862,-0.000274555176,0.0010322053
91093.709081,0.0130208313,-0.000569543516,0.0456757095,-0.00187399238,-0.000245526666,0.000719816424
91093.719107,0.016397902,0.00907353329,0.058091539,0.000659206475,-7.9611782e-05,-7.48708844e-05
91093.729133,-0.00765456417,0.00509995349,0.0607902765,-0.00120340835,-0.00158323243,-0.000969958492
91093.739158,0.000581365243,0.00408142409,0.0444873765,-0.00143750024,-0.00060745026,0.00111689419
91093.749184,0.00832550967,-0.0087630791,0.0581026449,-0.000332022086,0.00018217694,-0.000173940323
91093.759210,-0.00743929686,0.00476297662,0.0715665221,0.00173885201,0.000214933825,0.00119146286
91093.769236,0.0111692989,0.0046020139,0.0633370384,-0.000859327964,-0.000720368349,0.00107960962
91093.779261,0.0019580296,0.00987045582,0.0435831211,0.000618460122,-0.000594933401,0.000575207174
91093.789287,0.001237144,-0.00227203659,0.0561444965,0.000964671024,-0.00080985052,-0.00218729023
91093.799313,-0.00769503888,0.0109621235,0.0667740271,-0.00102630816,-0.000473493361,0.00159573043
91093.809339,-0.00421966466,0.0155235862,0.0681254417,-0.00154376042,-6.97580399e-05,-0.0015598489
91093.819364,0.00996466774,0.00814085555,0.0396978041,-0.000823907962,-0.000338204671,0.000278797001
91093.829390,0.0253484174,0.0169612909,0.072618077,0.00085361721,0.000593102712,-0.000518286601
91093.839416,-0.0112469912,0.0159880619,0.057958268,-0.00239943387,-0.000247124583,0.0019744318
91093.849441,0.00167460955,0.0049156099,0.0676847122,0.00152073905,0.000179247465,-0.00100431405
91093.859467,0.00357851722,0.00997676574,0.0557061051,2.29772995e-05,-0.000719303032,0.00111822551
91093.869493,-0.00277879423,0.00939538566,0.0586976882,0.00097399205,-0.000513440697,0.00137548707
91093.879519,0.0114528354,0.0107547644,0.0609410832,-0.00020685351,0.000222390692,0.000952843577
91093.889544,0.00427697521,0.0125773767,0.0745563516,0.000389960886,0.000168861123,-0.000199772418
91093.899570,0.0143214393,0.00180098501,0.055702598,-0.00136905699,-0.000353384763,-0.000875416212
91093.909596,-0.0155374549,0.0182241504,0.0477834954,-0.00188943872,-0.00127483846,-0.0010977909
91093.919622,0.0148799203,0.00954231985,0.0491302339,0.00101953209,0.00106608006,0.00101409573
91093.929647,-0.00783093565,0.0139883395,0.0793599524,-0.0007650521,-0.000473759603,0.000253231265
91093.939673,0.0170107264,0.00547324378,0.0274345349,0.000691430701,-0.000317165744,0.000740855932
91093.949699,-0.00925051328,0.0163427936,0.0627525165,-0.00157811516,0.000591504795,0.000150965527
91093.959725,-0.0092162023,0.00288476166,0.0543722262,-0.000428961124,-0.0013004049,0.00031741336
91093.969750,-0.00241380712,0.0046394233,0.069188687,-0.00184176816,-0.000325155212,-0.00162909087
91093.979776,-0.0103424162,-0.00453596293,0.0446516272,0.00047171989,3.96978576e-05,0.000156025402
91093.989802,0.0110873082,0.00940071942,0.0600625468,0.00171222037,0.00105462852,-0.000677810051
91093.999828,-0.00962041403,0.00194580031,0.0608095657,-0.0017102079,0.000507082616,0.000205294229
91094.009853,0.0186299798,0.00830306038,0.0632084436,-0.000149595551,0.000782719813,0.000493980944
91094.019879,-0.00912922156,0.0109743985,0.0641074383,0.00119002676,0.00111696299,-3.90857458e-05
91094.029905,0.00720930804,-0.00109181382,0.0503378561,-0.000454475259,-0.00154007273,-0.00237387884
91094.039930,-0.00707646517,0.00571662408,0.0662035337,-0.00184224849,-0.000111819478,0.00221341616
91094.049956,-0.00828768243,0.000379646967,0.0509469279,0.000473370077,6.87427819e-05,0.000253329985
91094.059982,0.0147988053,0.000805471164,0.0682967066,0.00183104957,-0.000777343404,0.00158357853
91094.070008,-0.00777724298,0.0113810796,0.0558709403,0.000642480794,-0.000667887507,0.00154416356
91094.080033,0.0122974227,0.00513933565,0.0699433048,-0.00250723981,0.00182989123,-0.00126946624
91094.090059,-0.0027880758,-0.00181925132,0.0546849454,-0.000603878638,0.000356630539,0.000366247259
91094.100085,0.00499261837,0.00693959,0.0603758505,-0.000134629619,-0.00113234273,0.00102031976
91094.110111,0.00525688392,-0.00327726811,0.0639694911,-0.00048403634,0.000414687442,-0.00056426134
91094.120136,0.00198522357,-0.00249276666,0.0666606299,0.00133117428,-0.000724346493,0.000546011142
91094.130162,0.00650797539,0.000966068553,0.062310618,0.00207392988,0.00194813567,0.000281026587
91094.140188,0.00250696872,0.00767564919,0.0528852025,-0.000858210493,0.00085757114,1.57756731e-05
91094.150214,-0.00714411444,0.0126720692,0.0603729279,0.000439814234,-0.000644185347,-0.00196721405
91094.160239,-0.00321349928,0.00976852982,0.0573743306,0.00203744438,0.000890860625,1.60420313e-05
91094.170265,-0.00068358465,0.0184180655,0.0708341162,-0.000302408764,-0.000682801241,-0.00192779955
91094.180291,-0.0132300331,0.0105839379,0.0618593671,-0.00047817739,0.000129995518,0.00080167409
91094.190317,0.00538367379,0.000248348738,0.0633563276,0.000325298286,-0.00173554872,0.000329496339
91094.200342,-0.000534804421,0.00212203366,0.0630517917,0.00175355142,-0.000316350255,0.000932169147
91094.210368,-0.00277265333,0.00385784447,0.0488303741,-0.000554876402,0.000485527504,0.000465316698
91094.220394,0.0133915974,0.00339709509,0.0555652354,0.0023999007,-0.000485727331,0.00020219665
91094.230420,-0.00767770301,0.00870206963,0.0467319406,-3.42284475e-05,-0.00130278524,0.000624307431
91094.240445,0.00967652699,0.00272547944,0.0588520019,-0.00086593366,-0.00187909324,-0.000462528318
91094.250471,-0.0185198226,0.0171807788,0.0661877517,-0.00148352073,-5.93552832e-05,0.00132791512
91094.260497,0.00591719843,0.0175485892,0.051229252,0.000613718643,-0.000863896217,-0.00202873349
91094.270522,-0.000854939754,0.00383789766,0.0717260966,3.3415854e-05,-0.00012167322,6.74407929e-05
91094.280548,0.00452987568,0.00707841395,0.0691857644,-0.00153651764,-0.000116080511,-0.000734703615
91094.290574,-0.00133255693,0.00743241502,0.0434539418,7.97548564e-05,0.000871952216,-0.00141247734
91094.300600,0.00730583863,0.00567680353,0.0649994187,-0.000350611983,-0.000583997928,0.00108290417
91094.310625,0.00183036865,0.00268434371,0.053926236,-0.000722389261,0.000431199034,7.54306093e-05
91094.320651,-0.00717215665,0.00100654669,0.0564718288,0.00040652469,-0.000572280027,0.000201131217
91094.330677,0.0159434145,-0.0031410745,0.0415051458,0.00109734875,0.000100434409,0.000139612705
91094.340703,0.000991497539,0.00302102832,0.0792120684,-9.16308636e-05,-0.000614443445,-0.000687274151
91094.350728,0.0150023708,0.00870053526,0.0608072277,-0.000992045621,-0.000966513297,-0.000334671699
91094.360754,-0.00472663465,0.0113085258,0.056024085,-0.000288172159,-0.000667173997,0.00239267154
91094.370780,0.00517903861,0.00650938189,0.0477946014,0.000447925588,-0.000465040095,0.00138067035
91094.380806,0.00143907805,0.00812777688,0.0714390963,-0.00185890449,0.00076853612,0.00136948517
91094.390831,-0.00592038362,-0.00325483708,0.0490033926,0.000660712132,-0.000351855764,-3.9068982e-06
91094.400857,0.00594419375,0.00648505117,0.0701017102,0.000576556253,-0.000321495696,-0.000306975096
91094.410883,-0.00200333347,0.00365801105,0.0648632251,-0.000979528762,-0.000148656545,0.000122060068
91094.420909,0.00415903993,0.00647460284,0.0605254881,-0.00024636052,9.07615758e-05,-0.000186866149
91094.430934,0.00476547225,0.00557246637,0.0593283873,0.00113715162,0.000420727243,-0.000515233725
91094.440960,0.0113716268,0.00486212614,0.0549865587,0.00121598132,-0.000366769498,-0.00046436768
91094.450986,0.00149617282,0.00232091723,0.0584282236,-0.00190737401,0.000351485098,0.000655491836
91094.461012,-0.007003473,0.00110145844,0.0475058475,0.00113129267,-0.000661315047,0.000915682875
91094.471037,0.00963160328,0.00538907263,0.0557300705,-0.000161671996,-0.000130014494,0.000171595253
91094.481063,-0.00144927522,-7.1750062e-05,0.0561836595,-0.000191765721,0.00120715878,0.000224325806
91094.491089,0.0109685464,0.00451097462,0.0597784691,-0.000160606724,-0.000287673553,9.14344564e-05
91094.501115,0.00335130716,0.0151477386,0.0548392592,0.000677223725,-0.000585681293,0.000253886916
91094.511140,0.00712891231,0.00966667688,0.0497480735,-0.000250088953,-0.00093908282,0.000247761607
91094.521166,-0.00134770997,0.0190428464,0.0584305617,-0.000298025843,7.10542081e-05,0.000287975185
91094.531192,0.0116850561,-0.00499729683,0.045408583,0.00117363688,-0.000737481518,-0.000632146373
91094.541218,-0.0110885024,0.0175227972,0.0530354246,0.000178147369,-0.000182745047,0.000437112525
91094.551243,-0.0076583647,0.00565159602,0.0672545041,-0.00151216099,0.000541368441,0.000399561599
91094.561269,0.019117309,-0.00242751941,0.0771399383,0.000248721131,0.00142473902,0.00178626971
91094.571295,-0.00396090755,-0.00390665205,0.0452659597,0.000386406551,-0.000377954682,-6.11646101e-05
91094.581321,0.0179311702,-0.00568411005,0.0509510196,0.00124208024,0.00029715657,-9.36556607e-05
91094.591346,0.00388319354,0.00861497587,0.0710065501,-0.00172308343,-0.00106078922,-0.00133096054
91094.601372,-0.0029599161,0.00772854843,0.0591939472,0.000911848212,-0.000707387808,-0.00168303028
91094.611398,0.00113184102,0.00224704827,0.0654752195,0.000202914758,-0.000836817315,-0.000944002531
91094.621424,0.000795607357,0.0106948509,0.0425859268,-0.00211137231,0.000272122852,0.000895176083
91094.631449,0.00839150813,0.0168006935,0.0539601382,0.000137134688,0.00138772104,0.00044510141
91094.641475,-0.000221983604,0.00683298783,0.0461754757,0.000682550075,0.00109051226,0.000417937525
91094.651501,0.011768226,-0.00336947643,0.0563525863,-0.00149538298,-7.35553913e-05,-0.000849992968
91094.661527,0.000130352948,0.00496690169,0.0587497106,2.47492862e-05,-7.24901911e-05,-0.000541599467
91094.671552,-0.000221886564,0.000353781874,0.0539595537,0.000407179235,0.000667069689,0.000233380124
91094.681578,-0.00357793384,0.00602678601,0.0484241314,-0.000774997985,0.00145323481,0.000311943702
91094.691604,0.00684621149,0.00163753807,0.0542629206,-0.000784319069,0.000792770879,0.00169572234
91094.701630,-0.00474032754,0.00771422764,0.0602519319,0.000671098474,8.17069085e-05,-1.16303563e-05
91094.711655,0.00496369253,0.00400039475,0.0689297438,-0.000440771284,0.00108199019,-0.00055890996
91094.721681,0.00281008213,0.0107383978,0.0586041647,-0.000268198433,0.000506214739,5.76116145e-05
91094.731707,-0.00860774241,0.0169609986,0.0557651418,0.000741672295,0.00044682622,0.00106428657
91094.741733,0.0213733397,0.00169869368,0.0604039076,0.000108905166,0.00131075573,0.00021500513
91094.751758,-0.0123794042,0.00735584266,0.0681774642,0.0014354256,0.000647628563,0.00141928624
91094.761784,0.00864719193,0.00316657427,0.0568050063,-0.00064663362,-6.50333241e-05,0.00106615108
91094.771810,-0.00480675411,0.0080701284,0.0503729274,-0.000470864994,0.000698761258,-0.000113896094
91094.781836,0.00449359194,0.0116880997,0.0496235703,0.000923033513,0.000448424136,0.00127654057
91094.791861,-0.00306611186,0.0140842741,0.078652681,0.000963513565,-0.000930560753,0.000713282265
91094.801887,-0.00307627135,-0.00170775377,0.0392938995,-0.00116355321,-0.000600595027,0.000713282265
91094.811913,0.00878503178,0.00532207181,0.0569511368,-0.000268997392,-0.00163203734,-0.000830286182
91094.821939,-0.01084384,-0.000197422268,0.0497673627,0.000910783012,0.00101700902,0.00125390384
91094.831964,-0.00427846962,0.00685264237,0.0588940875,-0.00065169367,0.000230044941,-0.000433474779
91094.841990,0.00684807808,0.00639320817,0.0371972195,-0.000202418363,-0.000806457363,-7.04862177e-05
91094.852016,0.00593949588,0.0152644969,0.0686181937,0.00144448038,-0.00218757265,-0.000625222921
91094.862042,0.00282596012,0.00656432695,0.0605395166,0.000266031653,0.000400220917,-0.00109313987
91094.872067,0.00279340842,0.00494045208,0.0635305151,0.00136485184,0.000405813567,-0.00116397999
91094.882093,-0.00498677429,0.00553067305,0.0466126981,0.000622362597,0.000658014906,-0.000255575404
91094.892119,-0.0117945569,0.0104538087,0.0578361029,-0.00168420118,0.00117014081,0.00109464675
91094.902145,0.00482688358,-0.00231923673,0.0442231726,0.00186525984,-0.0010581261,-0.000894201919
91094.912170,-0.00329034907,0.0124102765,0.0490068998,0.00146285631,-0.000555587583,-0.000248651952
91094.922196,0.00810294725,0.0011286387,0.0427162752,-0.00036007748,0.000461207295,-0.000147185288
91094.932222,0.00742050311,0.0044571986,0.0793757345,0.00135553093,0.000570929551,0.000591842458
91094.942248,-0.00709627726,0.0152731917,0.0416641358,9.2127244e-05,-0.000533216982,-0.00173762534
91094.952273,0.00473289429,0.0132772686,0.0721837772,0.00130732753,0.000557613734,0.000124457292
91094.962299,-0.00479577948,0.00720649731,0.0567670124,-6.71297748e-05,-0.00135187269,0.00013510976
91094.972325,0.00836096001,0.00814436268,0.0702320586,0.00145220361,-0.000254384009,-0.000921632163
91094.982351,0.00225648967,-0.00186374805,0.0699316144,-0.000415204937,0.000534177932,0.00144325476
91094.992376,0.0128835246,0.0108303138,0.0690349578,0.000170690502,-0.000667972956,-0.000139994547
91095.002402,0.00943405429,0.0134868197,0.0543728107,-0.000759285351,-0.000951599563,-0.000501119532
91095.012428,-0.00105815358,0.0184102476,0.0575163694,0.00181093137,0.000757350819,0.000138572417
91095.022454,0.0168739551,-0.00665668141,0.062150459,0.00213397294,0.000472925196,-0.000383674167
91095.032479,0.0173854334,-0.00111965168,0.0588584317,-1.12034031e-05,-5.81090571e-05,0.000212607905
91095.042505,0.0075761606,0.00571808539,0.057065703,-0.00148153468,-0.00187917869,-0.000607912429
91095.052531,0.0023170265,0.0152286949,0.0750263072,-0.00040188912,0.000756285561,0.000883191824
91095.062557,0.0210165393,-0.00103080435,0.0732277333,-6.04718807e-05,-0.000406450592,-3.90606001e-05
91095.072582,0.00368744492,0.00866422184,0.0735287621,5.1913521e-05,9.26258508e-05,0.000290372409
91095.082608,0.00504837171,0.0119887632,0.051978609,0.00163249951,-0.000465040095,-0.000492064282
91095.092634,1.92252903e-05,0.00710230629,0.0617021307,0.000768037571,-0.000200588256,8.1313774e-05
91095.102660,0.00561929662,-0.000718158207,0.0832522837,-0.00147540937,-0.0015468162,0.000373463146
91095.112685,-0.00108656683,0.00965104092,0.0605137977,-3.03781562e-05,0.000456679962,0.00165311154
91095.122711,0.00171124377,0.0103695645,0.0573731616,-0.000160606724,-7.0093316e-05,-0.000518962741
91095.132737,0.0126717736,0.0137600837,0.0645499213,0.00133688864,-0.00152790779,0.00137081649
91095.142763,-0.00411005768,0.0113659551,0.0489876105,0.000256976928,-0.000249057775,-4.97233123e-06
91095.152788,0.00287482821,0.00845021376,0.0515267736,0.00119627384,-0.000262107234,-0.000479813665
91095.162814,0.00523641994,0.000106163788,0.0542179124,5.85714297e-05,0.00158905599,-0.000691268593
91095.172840,0.0075050099,-0.0047485097,0.052725628,-0.000268731063,-0.000752395252,-7.60788098e-05
91095.182866,-0.00381630803,0.00528232432,0.0643967766,-0.000614143093,-0.000828028889,-0.000124015845
91095.192891,0.00672523601,-0.000387684143,0.0338695364,0.0015611269,-0.00115826097,0.000901301391
91095.202917,0.00161655465,-0.00198079855,0.0582575432,-0.000303085835,1.8057297e-05,-5.45075163e-05
91095.212943,0.00676358613,0.00376212901,0.0509212089,-0.000186972029,-0.000489541213,0.000566009432
91095.222969,0.00693169211,0.00255056127,0.0591524462,0.000157907343,7.40471296e-06,-0.000292859972
91095.232994,0.000951106163,0.00708075204,0.0642377866,-0.000894041266,-0.000547598116,-0.000468628481
91095.243020,0.0233843005,0.0118109954,0.0483797078,0.00117004907,0.00132817356,0.000254134648
91095.253046,-0.00448729692,0.00554068299,0.0534662172,0.000442473451,-0.000623124535,0.00135721639
91095.263072,0.00410878703,0.0163168555,0.0658861384,0.000542075664,5.51824924e-05,-0.000200732611
91095.273097,0.00117980834,-0.00159092245,0.0498719921,-7.684296e-05,0.000107646803,0.000248009339
91095.283123,0.00382528363,0.00302051686,0.0567570755,0.000159379444,0.00100300158,0.00164909847
91095.293149,0.00485209794,0.00623867519,0.0639350043,0.00029972801,-5.05449716e-05,-5.8254227e-05
91095.303175,0.00771380751,0.01399002,0.0711193628,-0.000341827457,0.00051005045,0.00173085788
91095.313201,0.0229240169,-0.00603964549,0.0428361022,-0.000288031617,4.55951085e-05,0.000708470121
91095.323226,0.0116237018,0.0103766518,0.0681277798,-0.000366062246,0.00116785127,0.00120115513
91095.333252,0.0109333541,0.0175786921,0.053312488,0.000213441614,-0.000826323871,-0.000243609771
91095.343278,9.02355667e-06,0.00507606116,0.0649894818,-0.00121720857,0.00022376061,0.00017850101
91095.353304,0.00503337964,0.0029540275,0.0603524696,-0.000132503017,-0.00048863492,-0.000560259447
91095.363329,-0.00257541258,0.0154901223,0.07082944,2.3558212e-05,-0.000681447797,-0.00201727543
91095.373355,-0.00136508922,0.00620046208,0.0603553922,-0.000755949062,0.000255452236,0.00105894171
91095.383381,0.000340271655,0.00350837345,0.0678372724,0.000680293771,0.00031936809,4.10815701e-05
91095.393407,-0.0139558825,0.00460858977,0.0492787024,-0.00100681884,0.00145147787,-0.00141912885
91095.403432,0.00392425278,0.0171591515,0.0654413172,0.000349795446,-0.00114590302,0.000478106551
91095.413458,-0.00408123344,-0.00120791449,0.0639420186,0.000387346023,-0.000846563838,-0.000367180444
91095.423484,0.00283542321,0.00627856881,0.0551133999,-5.97987091e-05,0.000597402104,0.000303403474
91095.433510,0.0101890853,0.0096893271,0.05721008,-0.000858480693,-0.000827389071,0.000222976319
91095.443535,0.0171563077,0.015060791,0.0588572626,8.8805682e-05,-0.000301414751,-0.000165845267
91095.453561,0.000748409498,0.0106589028,0.0642477235,0.000113573042,0.00013401208,0.000527375378
91095.463587,0.00170358676,0.0133536948,0.0546709169,-0.000269922137,0.0026499005,-0.00050220266
91095.473613,0.0267041131,0.0103983522,0.0533218403,-0.000177244117,-0.000235900981,-0.000849478878
91095.483638,-0.00695887466,0.00245272691,0.0551186606,-0.000182304124,-0.00131661166,-0.000532030128
91095.493664,0.0067510269,0.000857274416,0.0605021072,-0.000212664163,0.000389142951,-0.000397274271
91095.503690,0.00225257726,0.0149629567,0.0548135402,0.000549798831,0.000580890512,0.000392885879
91095.513716,0.0112016085,0.0128245564,0.0581084901,-0.000833446975,-0.000411935966,0.00157692702
91095.523741,-0.00358449258,0.00236417185,0.0627560236,-0.00217248453,5.89109259e-05,0.00069089327
91095.533767,-0.000235113655,0.00706803869,0.0563268674,-0.000768199563,-0.000522190821,-2.31005251e-05
91095.543793,0.00650044396,-0.00667399787,0.0572322918,-0.00112186733,0.000168100582,-0.00143377669
91095.553819,-0.00829638176,0.0166135734,0.0660644175,-0.000551684585,-0.00124364113,0.000926849432
91095.563845,-0.00112663169,0.0136322195,0.0669616586,0.000110909925,9.56625445e-05,-0.000889159739
91095.573870,0.00175711047,0.00835793237,0.060828855,6.16414181e-05,0.000672503258,-8.43526796e-05
91095.583896,0.0164862846,0.00849580647,0.0618769027,0.00020918058,-2.87441071e-06,0.000754542649
91095.593922,0.000191409228,0.0164453042,0.0536550178,-0.00135302974,0.000357451325,-5.77215105e-05
91095.603948,-0.00599051483,0.0106806032,0.0577004938,0.000408118707,0.00038434926,0.00025679823
91095.613973,0.00419527914,-0.00927891967,0.0548515341,0.000363910221,-0.000491031795,-0.00121566374
91095.623999,0.00800928447,-0.0129179338,0.0518617047,-0.000253410544,-0.00131288334,0.000126303174
91095.634025,0.0101854709,0.0104486941,0.0553109683,-0.000725056394,-0.00241809525,0.000641091727
91095.644051,-0.00843874709,-0.00839614549,0.0493248797,-0.000515199266,0.00111645227,-2.44313851e-05
91095.654076,0.0043511467,0.00191379773,0.069976038,0.000590545242,0.000891681411,0.000652011484
91095.664102,-0.00134365485,0.00643427083,0.0627916795,-0.000523188733,-0.000181838754,-0.0001477357
91095.674128,0.000321864924,0.00938581411,0.0440893171,0.00144941465,0.00100193627,-0.00120075047
91095.684154,0.00546283997,0.00767418789,0.0598053571,-0.000946098706,-0.00141328457,-0.000742685981
91095.694179,-0.00557692335,-0.0116549281,0.0687853669,-6.80545054e-05,0.000953733106,-0.00109262578
91095.704205,0.0133956149,0.00873852919,0.0523223079,-0.00136980764,0.000348396599,-7.52983615e-05
91095.714231,0.0114163872,0.0131002315,0.0545750553,0.000278422725,0.000542274676,0.00011351984
91095.724257,0.0122634154,-0.00351648369,0.0524807133,-0.000825191208,0.00149728428,0.00135242241
91095.734283,-0.00281735441,-0.000274579158,0.0526338581,-0.000166591461,0.000735087553,8.34260136e-05
91095.744308,0.00552705404,0.00492203964,0.0604173516,-0.000214262051,-0.000118189259,0.000290886499
91095.754334,0.00065296575,0.0148279321,0.0674485654,0.000579093583,-0.000252945232,0.000538027845
91095.764360,-0.00260810242,-0.00126271341,0.0580167202,0.000193201588,-0.000625255168,0.00139423413
91095.774386,-0.00215579436,0.00686623251,0.0437982252,-0.000797228015,-0.000120852375,-3.34866345e-05
91095.784411,0.00561852373,-0.00241371008,0.0414040235,0.00133995875,0.00151139905,-0.000191944651
91095.794437,0.00642913001,0.00914798677,0.0491828408,0.000273895392,0.0012062008,7.19744712e-05
91095.804463,0.00162059721,0.0022490941,0.0635492198,4.45971964e-05,0.00016836694,0.00128451176
91095.814489,-0.00021102496,0.00455510602,0.041698038,0.000207848963,-0.000127510284,-0.000876377337
91095.824514,-0.0120235114,0.0139562638,0.0533715247,4.08687629e-05,-0.00101673976,0.000259194523
91095.834540,0.0132548353,3.31716172e-05,0.0684855072,0.000229953206,-0.000508342288,0.000129498541
91095.844566,0.0106843557,0.00523263996,0.0635498044,-0.000750356354,0.00112417538,-0.00141300354
91095.854592,-0.00506059758,0.000219341839,0.049039633,-0.000407341227,0.00128902507,0.000144679099
91095.864617,0.00898832895,0.000527092614,0.0532289014,0.00150933582,-0.000428713858,-0.000456662849
91095.874643,-0.00894812481,-0.00389094302,0.0547211857,0.000542342023,0.000638414815,9.75411385e-05
91095.884669,0.0174116833,-0.00489076772,0.0636965194,0.000831028679,-0.000284104142,0.000642689876
91095.894695,0.00548119647,0.00106653325,0.0680377634,0.000334349112,-0.000639103586,-0.00110567547
91095.904720,0.00389039275,0.00139101597,0.0545686255,0.000158846786,0.000583553687,-0.000567716546
91095.914746,-0.00777401441,0.0249025322,0.0639946255,0.000666711596,-4.25555045e-05,-0.00020552706
91095.924772,0.000412788902,-0.00172587394,0.0605523761,0.00142757676,-0.000405011699,0.000342285261
91095.934798,-0.0126132426,0.0185671917,0.0648860214,0.00114901015,0.000448531413,-0.000232690945
91095.944824,0.00824659465,-0.00586721153,0.0536567714,0.00016816787,0.00138702942,0.00129889278
91095.954849,0.00856562715,-0.00460113712,0.054849196,-0.000111464033,0.00104001956,0.000287956558
91095.964875,-0.01475976,-0.00238265735,0.0714607236,-0.000446489692,0.000626164256,-0.00040766038
91095.974901,0.00344977056,0.00724076491,0.0756570063,-0.000318125356,-0.000330975861,3.62880528e-05
91095.984927,-0.0175808989,0.0191133543,0.0542652587,-0.000536770851,-0.000764804659,0.000991830602
91095.994952,0.0103090744,0.01698606,0.043044192,-0.000819332257,0.00116172596,0.000404870138
91096.004978,-0.0045334045,0.00284428352,0.0554687892,-0.000287232688,0.000170497457,0.000227769837
91096.015004,0.00415858327,-0.00255311855,0.053674307,-0.000519726658,0.000830961391,0.0024365955
91096.025030,0.00346794211,0.00181757082,0.0704313806,-0.000360203296,0.000975837349,-0.000301133841
91096.035055,0.00134820202,0.00210289056,0.0598082798,0.000518906163,-0.000664936262,-7.7161938e-05
91096.045081,-0.00132639433,0.00990574633,0.0666904405,-0.000600154104,-0.000643364619,-0.00102471467
91096.055107,-0.00443774841,0.00347980494,0.0506786324,-0.000193489395,0.000322297565,1.65812671e-05
91096.065133,0.00749613933,-0.00358326531,0.0590600917,-7.57776725e-05,-0.000333905336,-2.32737511e-06
91096.075159,-0.00088970054,0.00383877445,0.0569686724,0.000415575516,-0.000123515609,0.000207795762
91096.085184,0.00360776957,0.00342011064,0.0517296027,0.00055086409,-0.000897430116,-0.000117642805
91096.095210,0.000936566181,0.00690495708,0.0593581979,-0.000460338139,0.000392338727,-0.000438819639
91096.105236,-0.00158522451,0.00810907218,0.0669897157,0.000929831993,0.00140407356,0.000734036788
91096.115262,-0.00518386549,0.00141834237,0.0580178892,-0.000772460597,-0.000459340168,0.000563594513
91096.125287,0.00413769688,-0.00172799284,0.0491892706,0.00132477877,-0.000117123942,-0.00161593687
91096.135313,0.00165758078,0.0163100604,0.0524766217,-0.000260867382,6.76993513e-05,0.000148673542
91096.145339,-0.00815615359,0.00757913002,0.0732791712,-0.000445158134,0.000439210387,-0.00039301347
91096.155365,0.0111261515,-0.0038476884,0.0584685556,0.00113356381,-0.00069529633,-0.000274769031
91096.165390,-0.00450902697,-0.00039294484,0.0632563744,0.000128486776,0.000962787832,0.000451475382
91096.175416,0.00293237964,0.00843589298,0.0542781182,-0.00110455672,-0.0015062287,3.5488978e-05
91096.185442,0.00655264336,0.00436937419,0.0631079058,0.000468572427,0.00092736783,0.00180515973
91096.195468,0.000459169344,0.00198189453,0.0559253008,0.00127604289,-0.000533642364,0.000304202549
91096.205494,0.01015054,0.0142009593,0.0671416914,-0.000739437412,0.000932694122,-0.00205029827
91096.215519,-0.0136656137,0.00611468349,0.0481383002,-0.000553548802,-0.000145353493,0.000202735886
91096.225545,0.0120291694,0.00936477133,0.0571188945,0.00129015767,0.000670639041,-0.000508594327
91096.235571,0.00287957745,-0.00283354293,0.0381108272,-0.000552217185,-0.00020181248,0.00161580928
91096.245597,0.0142545778,0.0141710026,0.054873746,-0.00065407384,0.000237530679,8.52961093e-05
91096.255622,0.00227844121,0.0135994132,0.0619049598,-5.56615414e-05,-0.000767013757,0.000608341768
91096.265648,0.00653762161,0.00164184892,0.0455932919,1.41132914e-05,3.35325021e-05,-0.00118263438
91096.275674,0.00797403849,0.00249108616,0.0505342555,-0.00121546816,-0.00114731316,0.000375580974
91096.285700,-0.00544683298,0.00782952458,0.0572714548,-0.000517453649,0.00100611895,0.000608607195
91096.295726,-0.00866892085,0.0169651633,0.0539788429,-0.000411193527,-0.000186710851,0.00078517478
91096.305751,0.00283044564,0.0194945357,0.0557750787,0.000327301008,0.00181012729,0.000495689921
91096.315777,0.0120402856,0.0111211135,0.0529319642,-0.00075580657,-0.000507888151,0.000455476344
91096.325803,-0.00243616736,0.0104179336,0.0589238981,-4.76720452e-05,0.000304376008,0.000213128515
91096.335829,0.00961674364,0.00931004546,0.0666992083,0.00170309003,-0.00158327247,-0.000212444924
