t,ax,ay,az,gx,gy,gz
89690.485974,-0.213695358,0.224640694,-0.340452437,0.621696293,0.348231256,-0.00325372443
89690.496001,-0.298190006,-0.187198926,-0.286600435,0.540770292,0.256555945,-0.00731025077
89690.506029,0.432777815,-0.218898772,0.343730435,-0.111888207,-0.0252648238,0.037740849
89690.516057,0.182443456,-0.459071144,0.628060587,-0.163660854,-0.100106306,-0.0145388693
89690.526085,-0.205512234,0.147418138,-0.163185652,0.0183619373,0.011939005,-0.00195649918
89690.536112,0.117127884,0.327857049,-0.219018598,0.101785459,0.0444751121,0.0056404341
89690.546140,0.0925602103,-0.0251588998,0.0531891539,-0.00857913308,-0.00714467466,-0.00540875457
89690.556168,0.0935320875,-0.0282768857,0.0531751253,-0.0236062855,-0.00637315679,0.00112983864
89690.566196,-0.0504111771,0.0584194375,0.0483931518,0.00564720761,-0.000509675825,0.00423029065
89690.576223,0.0128966718,-0.0372167827,0.0504787259,-0.00678922189,0.00256201415,-0.00198526122
89690.586251,0.00665569503,0.00510919624,0.0603548077,0.01130962,0.00137584226,0.00155088445
89690.596279,0.0248721736,-0.00715703215,0.0712748457,-0.0153504852,-0.00176535617,-0.0158275738
89690.606307,0.0207255022,-0.00274016555,0.0866898569,0.00425410783,-0.00335659483,-0.0179892611
89690.616334,-0.000473133937,-0.0185554099,0.0617027152,-0.00884651393,-0.00342184235,0.00694325287
89690.626362,0.0189736536,0.00242245964,0.0724707774,0.0149983652,0.00853468571,-0.00183932018
89690.636390,0.0189293761,0.002628942,0.072472531,-0.0057473937,-0.00376938493,0.0042009959
89690.646418,0.00335683615,0.0014421799,0.0383551574,0.00468074623,0.00147704245,-0.000816132873
89690.656445,0.0254144272,0.00684447733,0.079360537,-0.00119711645,-0.001480398,-0.00374827348
89690.666473,0.0178496545,-0.00441673873,0.059161214,0.00178136281,0.000353721087,0.000473368913
89690.676501,0.00146130472,0.0155783851,0.0386643694,0.00249695429,0.000522565446,0.00194343412
89690.686529,0.00120648971,-0.0148198584,0.0913408976,-0.00547148986,-0.00251823175,0.00121292891
89690.696556,0.0167099465,0.0143164572,0.0840010562,-0.0497215092,-0.0164867789,0.00418528309
89690.706584,0.144114456,-0.0890589242,0.176918409,-0.141657814,-0.0655989349,0.00189283397
89690.716612,0.0821058901,-0.104646589,0.00600479337,-0.0863157362,-0.0371989794,-0.00875901058
89690.726640,-0.223531144,0.169852088,-0.00314180516,0.0122212209,0.0055889627,0.00372775225
89690.736667,0.0494660782,0.0473321532,0.223836228,-0.12875028,-0.0259210262,0.0219823904
89690.746695,0.0949905792,-0.378385569,0.16134207,-0.32523033,-0.153750628,0.016546078
89690.756723,0.124045518,-0.0538451518,-0.28250469,-0.164404944,-0.12810412,-0.0197954178
89690.766751,-0.324462183,0.231487035,0.296173734,0.0381316468,-0.00930609647,-0.0384351462
89690.776778,-0.320503472,-0.00705616559,-0.130162503,0.15107125,0.0802818388,-0.0537224934
89690.786806,-0.837356395,-0.360761175,-0.00987958898,0.225650415,0.0905648395,-0.179475889
89690.796834,-1.28116648,-1.00112445,0.210161338,0.165480286,0.0531402379,-0.393738121
89690.806862,-1.60394677,-1.30124539,-0.124604869,-0.0154444948,-0.0142148351,-0.653501511
89690.816889,-1.33463021,-1.25866297,0.095061964,-0.129478648,-0.0850045905,-0.899487019
89690.826917,-0.732646824,-0.919379283,0.0739116239,-0.176682383,-0.106615342,-1.06398308
89690.836945,1.71458405,1.41453377,1.47258074,-0.867655754,-0.440544844,-0.403269053
89690.846973,3.9519902,2.84346051,-2.51709213,-0.432779431,0.0544350669,0.222455844
89690.857000,0.824835424,3.13042101,2.2674288,-0.224900246,0.0687032118,0.636626124
89690.867028,-0.977639968,2.6165041,-0.553680177,-0.87029469,-0.0505573936,0.467786759
89690.877056,-0.14256719,1.1647691,-0.562826775,-1.42687321,-0.21380198,0.0147684189
89690.887084,0.107036954,1.36353189,-0.879964387,-1.52675486,-0.265612185,-0.397237003
89690.897111,-0.0109898518,1.4601839,-0.115948685,-1.24352074,-0.078800492,-0.679134667
89690.907139,-0.58861515,1.26912036,0.699165921,-1.03151,0.19787851,-0.947827399
89690.917167,-0.919363354,0.642746334,0.287190217,-0.789507449,0.256223053,-1.12701976
89690.927195,-0.578194038,-0.370375208,-0.322699922,-0.770563841,0.285684258,-1.15137839
89690.937222,-0.179088301,-1.58758162,-1.38171798,-0.961942315,0.340837002,-1.02627027
89690.947250,0.209781637,-1.92588097,-0.12124796,-0.916163683,0.525211394,-0.721755922
89690.957278,0.0829682426,-1.9225337,0.112583008,-0.884680569,0.801417947,-0.340722591
89690.967306,-0.380361107,-2.02866257,-1.14296592,-0.74651897,0.85687989,0.0314789563
89690.977333,-1.25914578,-1.47015292,-1.3731407,-0.884380698,0.982804775,0.200593948
89690.987361,-1.97562144,-0.338302273,-0.746619162,-0.758920252,1.15569746,0.232901022
89690.997389,-2.07108161,0.641141456,-1.03523561,-0.475538343,1.34505534,0.15087992
89691.007417,-1.90440388,1.58926855,-0.49690615,-0.164633706,1.54090178,-0.065612711
89691.017444,-1.52222199,2.29145046,-0.814163004,0.333723873,1.62057483,-0.360942096
89691.027472,-1.67865217,2.84731572,-1.72398769,0.815312326,1.57328427,-0.783190012
89691.037500,-2.3829179,2.93606105,-2.463222,1.34267092,1.43169785,-1.28762889
89691.047528,-2.49324831,2.26801011,-3.48037602,1.95557165,1.26187503,-1.75173688
89691.057555,-2.39897808,1.08014173,-4.35826126,2.67063212,1.10016751,-2.12250423
89691.067583,-1.90060361,-0.0291563172,-5.33967702,3.63281274,0.869187951,-2.34664965
89691.077611,-0.658819006,-0.375050105,-5.86088058,4.59936142,0.513056219,-2.42681217
89691.087639,0.273125013,-0.057975694,-4.87750608,5.12408018,0.0753249004,-2.45211768
89691.097666,0.247314719,0.321037798,-3.03502937,4.9548521,-0.412865818,-2.37495804
89691.107694,0.281976721,0.175807306,-0.938268108,4.17658234,-0.831294477,-2.11567879
89691.117722,0.674342154,-0.495285271,0.621885698,3.0074296,-1.1740694,-1.58528399
89691.127750,1.17598132,-1.74451113,1.97819626,1.53609002,-1.50999284,-0.803758383
89691.137777,2.02422882,-3.4634281,3.19229207,-0.13966231,-1.89071035,0.177818328
89691.147805,3.25457726,-5.09022938,3.92436482,-1.81886852,-2.33374333,1.26270306
89691.157833,4.51966471,-6.05678192,4.31459923,-3.32208753,-2.7814939,2.31004024
89691.167861,5.54129382,-6.03951748,4.12256275,-4.36514139,-3.156775,3.15540695
89691.177888,5.443968,-4.9999301,3.87530648,-4.90753841,-3.36870456,3.67305613
89691.187916,4.87364795,-3.43857423,3.81268022,-4.96141243,-3.36306548,3.91391611
89691.197944,4.30629785,-1.63440226,3.38023164,-4.52362633,-3.16129589,3.87447405
89691.207972,2.97683174,0.406227224,3.22460444,-3.75828147,-2.74597383,3.43874741
89691.217999,1.13599257,2.39888163,2.36048001,-2.41784668,-2.14705062,2.57762742
89691.228027,-0.171025114,4.51677746,1.05584469,-0.56039995,-1.36820936,1.3059566
89691.238055,-1.15473761,6.430541,0.209264682,1.65872979,-0.436068088,-0.278128833
89691.248083,-1.87690052,8.52733207,-0.340908948,3.95386243,0.490946591,-1.97478557
89691.258111,-2.02316353,10.7708224,0.530975008,5.60258102,1.26345527,-3.49941754
89691.268138,-1.87917212,11.1374275,2.50786136,6.22929144,1.76670969,-4.60928917
89691.278166,-1.38704531,8.9331551,4.12230146,6.04019165,1.95108533,-5.14646244
89691.288194,-0.208060165,5.7148939,4.80070984,5.27702332,1.96179652,-5.0154109
89691.298222,1.17745505,2.24316281,5.33208233,3.8940866,1.89209712,-4.25283718
89691.308249,2.39238643,-1.62983554,5.8221636,1.91643941,1.71550262,-2.8990624
89691.318277,3.47160877,-5.75972088,5.91875409,-0.516475379,1.37492299,-1.08654308
89691.328305,4.59219072,-9.54296808,5.35888149,-3.13659716,0.830466032,0.92507267
89691.338333,5.50391306,-11.5314806,3.86021471,-5.40649891,0.133506432,2.82641411
89691.348360,5.45660829,-10.2770475,1.39096161,-6.90261126,-0.599179029,4.29190207
89691.358388,3.94453725,-6.95819124,-0.966276643,-7.49962807,-1.26758718,5.09617138
89691.368416,1.93072943,-4.02301954,-3.2617812,-7.21591902,-1.82431054,5.22116089
89691.378444,0.69577964,-2.5217835,-5.65949583,-5.75848341,-2.28943658,4.71628428
89691.388471,0.743535005,-0.855340672,-7.97849642,-3.18303323,-2.48639131,3.67241263
89691.398499,0.644862961,2.24387607,-8.40659499,-0.02803462,-2.30880618,2.13729692
89691.408527,-0.643940293,6.5221385,-7.41405051,3.30514455,-1.78053117,0.144973412
89691.418554,-2.75429608,12.1953992,-5.12591094,6.02359819,-1.09807372,-2.13746262
89691.428581,-4.56238916,16.7422664,-0.944777343,7.46224689,-0.34135887,-4.33024883
89691.438609,-4.86459575,17.3451902,2.76173792,7.88713789,0.178444341,-5.93144512
89691.448637,-3.78864468,14.4255513,5.15718169,7.40161753,0.389782429,-6.65928078
89691.458665,-1.49929602,9.53355319,7.92453511,5.75631952,0.440786749,-6.34405613
89691.468692,1.41502593,2.77571501,10.0658504,3.31628275,0.46748203,-4.99217701
89691.478720,4.11626774,-4.14074196,11.1406412,0.342608452,0.472225904,-2.79173446
89691.488748,6.14275164,-10.6877373,11.5913216,-2.96250105,0.38668704,-0.128380373
89691.498776,7.77611214,-15.5831361,10.2948357,-5.90378857,0.165305361,2.62755656
89691.508803,8.01466663,-14.7626205,6.85671123,-7.81118059,-0.0953248814,4.90633821
89691.518831,5.38450167,-10.1714934,2.16979669,-8.3537426,-0.31575045,6.18318605
89691.528859,2.84356455,-6.17954204,-1.89097332,-7.91446638,-0.577209771,6.47067881
89691.538887,1.95794433,-4.02027901,-5.50116581,-6.229249,-0.944932938,5.94163227
89691.548914,1.92822841,-1.5102957,-8.6291441,-3.4898386,-1.21776628,4.75606585
89691.558942,1.40394165,3.09435718,-9.49004606,-0.268477827,-1.18710911,3.08190823
89691.568970,-0.744464541,9.18880569,-8.13696614,2.768116,-0.883346558,0.9260903
89691.578998,-3.54781874,15.140293,-5.27476002,5.07950306,-0.39932099,-1.49763775
89691.589025,-5.58328295,18.3161384,-1.42161393,6.17082167,0.0366254263,-3.75402951
89691.599053,-5.42652294,16.8772664,1.82285372,6.32013988,0.269918352,-5.26562405
89691.609081,-3.29120895,12.8402917,4.28715885,5.4419136,0.312770218,-5.75544357
89691.619109,-0.747299838,6.8627207,6.78620795,3.66439128,0.281193644,-5.21020985
89691.629137,1.66640498,0.148555508,8.49330764,1.14684653,0.265896708,-3.68221426
89691.639164,3.88761972,-6.79983199,9.78409681,-1.81180847,0.25277105,-1.43692803
89691.649192,5.6948939,-13.2477198,8.9104663,-4.45141029,0.192286119,1.09184062
89691.659220,6.31371904,-15.0025551,6.16189064,-6.38482237,0.0540427677,3.3981874
89691.669248,4.76143348,-11.9456085,2.25193429,-7.14311552,-0.102436855,4.86304045
89691.679275,2.56083336,-8.46856307,-2.33203717,-6.64016533,-0.287679672,5.36019373
89691.689303,1.93837045,-6.22155747,-6.20147681,-5.01614666,-0.559303999,5.08096027
89691.699331,1.84539377,-3.41714653,-8.75578544,-2.49322867,-0.812602341,4.18795204
89691.709359,1.31011302,1.4565831,-9.65786463,0.514462769,-0.848206401,2.7925036
89691.719386,-0.495533583,7.78700178,-8.38733674,3.42822289,-0.615396559,0.871483505
89691.729414,-3.19823578,14.2772476,-5.84207885,5.6068635,-0.223677009,-1.36838281
89691.739442,-5.4980807,18.0525623,-2.04310391,6.61971807,0.162473097,-3.53269672
89691.749470,-6.11253888,17.203349,1.23258832,6.68194818,0.344537973,-5.07487535
89691.759497,-4.5087096,13.7631606,3.31781873,5.9442215,0.318945795,-5.68830395
89691.769525,-1.66185769,8.65011382,5.60976062,4.26280165,0.173399776,-5.34020758
89691.779553,1.20921256,2.31603033,7.48280373,1.83108962,-0.0268358383,-4.04016256
89691.789581,3.72533891,-4.45602372,9.19524244,-1.29746771,-0.232257709,-1.95773208
89691.799608,5.9263254,-11.7301397,9.44397112,-4.30730343,-0.432742327,0.547597289
89691.809636,6.93457831,-15.1714924,7.19737351,-6.55551481,-0.644845307,2.98773456
89691.819664,5.84465016,-13.4703046,3.82746745,-7.61547661,-0.785383761,4.69322109
89691.829692,3.8243122,-10.6449128,-0.474333668,-7.39067602,-0.867144644,5.48763227
89691.839719,2.85844648,-8.54931185,-3.72228391,-6.22308111,-1.03274477,5.60373306
89691.849747,2.71527135,-6.07663871,-6.20882892,-4.22707129,-1.25547719,5.11804867
89691.859775,2.40162772,-1.584614,-7.68466661,-1.5297792,-1.31570387,4.07673693
89691.869803,0.945299102,4.85914421,-7.46735599,1.35470653,-1.11441946,2.41700888
89691.879830,-1.67253179,11.6837018,-5.75355417,3.98456931,-0.694597423,0.205354989
89691.889858,-4.48665617,17.4739814,-3.22804844,5.82891893,-0.213189736,-2.25055408
89691.899886,-6.09634879,19.6037057,-0.0478664975,6.74557352,0.177941531,-4.42635727
89691.909914,-5.42055381,17.8502417,2.51883576,6.79752874,0.351507753,-5.84352684
89691.919941,-2.96638371,14.1201492,4.87055612,5.83317566,0.320426255,-6.31630182
89691.929969,0.141559877,8.34853092,7.25155927,3.89090443,0.158096731,-5.79373884
89691.939997,2.91784209,1.64546828,8.90718187,1.28249729,0.0158194806,-4.26931906
89691.950025,5.14605824,-5.58833789,10.2758703,-1.9317621,-0.0337882861,-1.97752309
89691.960053,6.27947307,-12.8122861,10.0502998,-4.91965485,-0.0913192257,0.678715348
89691.970080,6.30151422,-15.4154824,7.03714671,-6.96593046,-0.178272232,3.11645174
89691.980108,5.05104303,-13.4396546,2.41254279,-7.59610271,-0.199706152,4.68798065
89691.990136,3.07603797,-10.6496264,-2.60898423,-6.95891905,-0.310116529,5.33709764
89692.000164,2.41354422,-8.37961229,-6.27369624,-5.33879995,-0.636193454,5.22585058
89692.010191,2.93503843,-5.13929649,-8.24822229,-3.12615466,-1.01294398,4.53442144
89692.020219,2.86502966,-0.341071445,-8.71738235,-0.496045232,-1.20903361,3.38416553
89692.030247,0.998176487,5.60527734,-7.7529148,2.22022533,-1.10902846,1.72429395
89692.040275,-1.63396051,11.555944,-5.85933627,4.57582235,-0.768165648,-0.40542528
89692.050302,-4.58789039,16.1045086,-3.11356866,6.20900536,-0.286584318,-2.68734694
89692.060330,-6.41093789,17.8910928,-0.0561275454,6.96228361,0.16021207,-4.63082647
89692.070358,-5.91980214,16.5085991,2.78326294,6.76602364,0.40474993,-5.86517715
89692.080386,-3.34901115,12.6064876,5.3038546,5.48276854,0.414285898,-6.0870409
89692.090413,-0.151936309,6.11378683,7.1653873,3.51034021,0.254599571,-5.32102823
89692.100441,2.72341812,-0.737443045,8.17380155,1.0345,0.111414447,-3.71817708
89692.110469,5.23445665,-7.32487527,9.08980288,-1.82168913,0.047248777,-1.54304588
89692.120497,6.58996993,-13.8473703,7.96117528,-4.14401817,-0.0234099478,0.864587247
89692.130524,6.62914809,-16.9772138,4.74292986,-5.49533939,-0.111168027,3.01020598
89692.140552,5.92503068,-15.7247097,1.03142278,-5.7675848,-0.202350676,4.48503971
89692.150580,4.52896854,-12.2877841,-2.53454712,-5.05450439,-0.349533439,5.1543808
89692.160608,3.3474952,-7.78036337,-5.34035623,-3.59042907,-0.540884554,5.04274273
89692.170635,2.29446031,-2.26870817,-6.979054,-1.48500669,-0.670521617,4.22608137
89692.180663,0.6610464,4.20669064,-7.64231216,1.03867614,-0.605410278,2.74087
89692.190691,-1.93430539,11.2408621,-6.77161829,3.52088571,-0.365722805,0.63558203
89692.200719,-4.52898111,17.3333583,-4.59823789,5.24572372,-0.0770015344,-1.76018751
89692.210746,-5.83563508,19.3468995,-1.46768069,5.97000456,0.113435313,-3.82604289
89692.220774,-5.27771887,17.0244467,1.14479372,5.84346485,0.107399791,-5.0702281
89692.230802,-3.1059161,12.4417951,3.4685225,4.79297256,-0.0660798401,-5.39755106
89692.240830,-0.0197062787,6.23461043,5.37755579,3.09296632,-0.308836311,-4.78350878
89692.250857,2.89304988,-0.169302235,6.71950816,0.993370891,-0.501586556,-3.40769291
89692.260885,5.07831273,-6.62068188,7.63316147,-1.27948761,-0.577817142,-1.56475425
89692.270913,6.32990153,-12.2670266,7.12330231,-3.04251361,-0.53030026,0.46881035
89692.280941,6.30730099,-14.7729502,4.91174854,-3.9367888,-0.358490944,2.2860167
89692.290968,5.05463609,-13.8437662,2.46241127,-4.1429944,-0.116973385,3.57625246
89692.300996,3.61343541,-10.8343318,-0.12666414,-3.68467093,-0.00373284938,4.27139282
89692.311024,2.78323897,-6.48931818,-2.1672207,-2.88364768,-0.0236487668,4.31793547
89692.321052,2.01260122,-1.45246851,-3.08920929,-1.89447355,-0.112681165,3.84197474
89692.331079,0.521556753,3.46732277,-3.32964945,-0.8210181,-0.193325952,2.93418813
89692.341107,-1.26321522,7.50873546,-2.99826645,0.169961989,-0.211649835,1.73643255
89692.351135,-2.46694862,9.78048855,-2.1411522,0.897190332,-0.21097286,0.454458296
89692.361163,-2.6841704,9.69639047,-1.24837158,1.40484166,-0.233978301,-0.627325714
89692.371190,-2.0403552,7.68522308,-0.473960743,1.68196797,-0.262077838,-1.35960269
89692.381218,-0.721371981,4.70698205,0.04255144,1.83058333,-0.255830348,-1.7163136
89692.391246,0.406138376,1.86082412,0.592079173,1.8250581,-0.235229999,-1.77975488
89692.401274,1.01181294,-0.588533646,1.3592548,1.66523433,-0.185219824,-1.59889913
89692.411301,1.56344934,-2.48330033,2.05216108,1.37712908,-0.0640337467,-1.20384526
89692.421330,1.84753312,-3.48732569,2.46570973,1.05813587,0.122396588,-0.636881948
89692.431358,1.73599757,-3.62718454,2.59098972,0.65972209,0.355630368,-0.0156247914
89692.441386,1.16755318,-3.10216814,2.41405027,0.302704334,0.593098879,0.560576499
89692.451413,1.06565874,-2.00482723,1.47447868,0.112990327,0.758328319,1.00934458
89692.461441,0.728449664,-0.82819869,1.03029523,-0.0810886025,0.804897666,1.17957127
89692.471469,0.0684644644,0.224019549,0.232241653,0.120356098,0.974646211,1.14289391
89692.481497,-0.583195171,1.13518652,0.240249603,0.208263576,1.07756066,0.994864285
89692.491525,-1.09624574,1.41071348,0.00610357757,0.43191877,1.10781252,0.715297341
89692.501552,-0.898002587,1.59800803,-0.38627603,0.672413409,1.1585902,0.406250566
89692.511580,-0.0814659117,1.78430568,-0.738563281,1.22810411,1.28071558,0.171854824
89692.521608,0.851202988,2.14639448,-0.566728459,1.75633073,1.48188174,0.0271410476
89692.531635,-0.59132872,2.18644607,-0.967547394,2.66151071,1.86973035,-0.287145495
89692.541663,-0.98228772,0.557617881,-0.725265408,3.33635831,2.38430929,-0.535468757
89692.551691,-1.1057497,-0.862927328,-0.413854942,4.72972298,3.19037414,-0.908590972
89692.561719,-0.759602197,-2.06319817,1.7062609,3.92363358,3.28921604,-0.0655297637
89692.571747,-1.10180915,-2.18247336,4.09023752,3.40788341,3.55607319,0.0475126319
89692.581774,-1.60097214,-0.382348043,2.70395676,2.85603833,3.54781651,-0.0851910859
89692.591802,0.212657539,-0.200755212,2.28895206,2.64224911,3.63938093,-0.316424578
89692.601830,-3.31182796,1.2629405,1.55032156,2.0983181,3.3518455,-0.744472027
89692.611857,-0.843321879,1.14505968,1.96570328,0.964046061,2.74144506,-0.876234889
89692.621885,4.6645332,-0.211289758,0.233489607,-0.170857638,1.57541192,-0.166236937
89692.631913,2.55053146,0.708069943,-3.85930928,-0.540584028,0.795736134,-0.108099334
89692.641941,-2.00181065,2.50726514,-4.62450397,-0.866599143,0.152512148,-0.4109146
89692.651968,-0.714781131,1.55536599,-3.95502182,-1.2993753,-0.366878837,-0.385619342
89692.661996,0.271172856,0.0845002379,-2.91591609,-1.63205659,-0.750164986,-0.24187389
89692.672024,0.142992174,-0.251230431,-2.57680162,-1.64241195,-0.97720319,-0.132384419
89692.682052,0.398705888,-0.610445582,-1.63878077,-1.61294651,-1.00281024,-0.0314445011
89692.692079,0.761978351,-1.3290546,-0.634085839,-1.52662599,-0.957878768,0.150816113
89692.702107,0.151769501,-1.52957937,-0.978949078,-1.35530508,-0.955447018,0.305362552
89692.712135,0.134552409,-1.51489281,-0.521270191,-1.40730095,-0.958835363,0.474879146
89692.722163,0.0909577435,-1.25083753,-0.609679127,-1.71699405,-1.0132488,0.668620646
89692.732190,-0.283983092,-1.29400813,-0.315021643,-2.30030131,-1.11741519,0.902045906
89692.742218,-0.511572973,-1.33586194,-0.772765411,-2.88399863,-1.26291275,1.12413216
89692.752246,-0.784867352,-0.911944383,-1.37518536,-3.39302206,-1.49131203,1.25627244
89692.762274,-0.893646583,-0.579941941,-1.62043789,-3.90968847,-1.71181858,1.32365918
89692.772301,-0.76282547,-0.371578045,-1.54514387,-4.42460871,-1.94013405,1.36218202
89692.782329,-0.854316005,-0.262168132,-1.4695722,-4.81594753,-2.13945889,1.26719773
89692.792357,-1.32864982,-1.36515613,-2.36200619,-4.85973692,-2.36199903,1.19272888
89692.802385,0.580423149,-2.58175311,-1.60710319,-5.09767151,-2.54610252,1.39477885
89692.812413,2.36036807,-3.00486863,-0.763399032,-4.91429329,-2.67237854,1.68136024
89692.822440,2.56443022,-2.644159,-1.04017015,-3.98703861,-2.72238326,1.7502507
89692.832468,2.17312891,-2.38591928,-0.771730222,-2.46574473,-2.51777005,1.5296129
89692.842496,1.75417416,-2.35072185,-0.248178642,-0.620917499,-2.13248253,1.23449469
89692.852523,1.53110175,-1.72187304,0.373648604,1.3689971,-1.68625867,0.927669525
89692.862551,0.94146873,0.357333429,0.31102702,3.69291401,-1.18987358,0.356042773
89692.872579,0.141529226,4.21959075,0.224268774,5.90472507,-0.596656382,-0.576179147
89692.882607,-1.2994132,8.14007931,1.32132225,7.51383781,0.00963275693,-1.88153589
89692.892634,-2.00368741,10.5636959,2.97514686,8.31441212,0.534308791,-3.35343695
89692.902662,-1.97706375,11.8845645,3.58849503,8.75708103,0.910340726,-4.5769639
89692.912690,-1.35429659,10.9165156,4.11119029,8.35885715,1.17590177,-5.21956873
89692.922718,-0.118231608,7.44590287,5.46930469,6.66508102,1.3152746,-5.10122299
89692.932745,1.36467215,2.49247294,6.92982557,3.54781508,1.26395845,-4.18193722
89692.942773,2.75710558,-2.59197347,6.59628335,-0.0479721911,1.05596292,-2.53296995
89692.952801,3.51276379,-6.28439474,5.86883475,-4.06894779,0.703610182,-0.554761529
89692.962829,4.06318818,-9.024579,4.86476292,-7.4960556,0.343125492,1.43942809
89692.972856,4.33569053,-10.3998357,1.23303314,-9.16226864,-0.00815609377,3.14400458
89692.982884,2.16223225,-8.96056976,-2.27954828,-9.59659672,-0.47346893,4.19239759
89692.992912,0.571720568,-6.2371151,-4.64815548,-9.1721487,-1.14694798,4.58256578
89693.002940,0.357839771,-4.1164051,-6.61617463,-7.61935091,-1.85986125,4.38587618
89693.012967,0.855572143,-3.01476692,-7.8766651,-4.71969938,-2.39289188,3.75070214
89693.022995,1.18024643,-1.39774981,-7.97752669,-0.83713448,-2.58226657,2.71463513
89693.033023,0.320991694,2.04027351,-6.30763416,3.06775928,-2.37942243,1.28393066
89693.043051,-1.05188996,6.6821654,-3.79974475,6.2687664,-1.87431192,-0.460636348
89693.053078,-2.66055747,12.0735557,-0.4600462,8.18543243,-1.18213952,-2.38448215
89693.063106,-3.51478127,15.1601492,2.64254864,9.16327667,-0.493966997,-4.19747114
89693.073134,-3.2930049,15.5640176,4.13098863,9.68321323,0.0292085893,-5.63306665
89693.083162,-2.41810875,14.5869273,5.22304971,9.18872547,0.349881411,-6.53709459
89693.093189,-0.00919098566,11.1320499,7.71298085,7.10825968,0.490941048,-6.55016613
89693.103217,2.43457327,4.96280829,9.8624356,3.55213833,0.490200967,-5.48779917
89693.113245,4.20003002,-2.2242604,10.8679407,-0.792390704,0.459189266,-3.46802425
89693.123273,5.4393795,-7.65774646,11.3274193,-5.40182972,0.540230036,-1.02858186
89693.133300,6.66672934,-11.0450379,9.62578022,-8.81699848,0.873786986,1.37718439
89693.143328,5.42426903,-11.3127595,5.43573092,-10.7186298,1.1646595,3.36997128
89693.153356,2.69866099,-8.67899271,0.0813566792,-11.1348619,0.98530817,4.56287241
89693.163384,1.52775142,-5.93216828,-5.34022939,-10.1156092,0.274855107,4.87491512
89693.173411,1.89348589,-5.36285565,-10.0269189,-7.14768744,-0.663889766,4.5348444
89693.183439,1.9170937,-4.79404045,-12.7152146,-2.70443535,-1.43884695,3.79250956
89693.193467,0.675497169,-1.25942928,-11.2682809,1.67100358,-1.77287769,2.59580946
89693.203495,-0.0868120768,3.66038304,-7.18808955,4.98642015,-1.64300358,1.0869137
89693.213522,-1.18283031,8.81047623,-3.05320859,6.95776749,-1.16006947,-0.569454491
89693.223550,-3.42535848,12.6701514,0.520713142,7.93975496,-0.547990859,-2.29971838
89693.233578,-4.61529103,13.9263334,2.39784615,8.41803455,0.0300082956,-3.78699827
89693.243606,-3.80299294,13.2694465,3.65567413,8.01574707,0.460119992,-4.76887894
89693.253633,-1.72580176,10.5049853,6.07123305,5.97064686,0.618140757,-4.93690968
89693.263661,0.693316173,5.2552025,7.88783181,2.60689211,0.534690917,-4.12861776
89693.273689,2.88183729,-0.418514458,8.49294757,-1.55374157,0.347151637,-2.48402953
89693.283717,4.11379813,-4.637369,8.65760914,-5.8197341,0.21553953,-0.539527714
89693.293744,4.84642209,-7.11860217,6.37223552,-8.82010174,0.353224695,1.3077234
89693.303772,2.9599148,-7.28576023,2.06252231,-10.3286343,0.435016751,2.69563723
89693.313800,0.494931562,-6.45227644,-2.99663272,-10.3628006,0.132589519,3.4579947
89693.323828,0.688271237,-6.62450406,-7.88102564,-8.83058071,-0.529936492,3.61518383
89693.333855,1.5591607,-8.255907,-12.3283359,-5.28080177,-1.52510095,3.39725852
89693.343883,1.68102811,-8.08588945,-13.6319553,-0.544274151,-2.27490807,2.8974874
89693.353911,1.3389526,-4.06330801,-10.8431675,3.92880535,-2.45649147,2.02487397
89693.363939,1.14647027,2.09904719,-6.52022594,7.23741627,-2.16515017,0.865205586
89693.373966,-0.512767005,9.06229177,-1.86407129,8.81182575,-1.48594344,-0.681887507
89693.383994,-3.27833924,13.8427409,1.41511522,9.30305004,-0.732652068,-2.4125545
89693.394022,-4.25316686,15.1736938,2.57711025,9.27950478,-0.139067292,-3.80059195
89693.404050,-3.81026965,13.9469062,4.3087166,7.68081999,0.187663436,-4.497159
89693.414077,-2.24404705,9.92967549,6.87758042,4.41534185,0.195579678,-4.19892645
89693.424105,0.240698114,4.11915352,7.24636872,0.319949359,-0.157634839,-2.94848871
89693.434133,2.33426771,-0.925915991,7.13080348,-4.10211515,-0.631197631,-1.22086692
89693.444161,4.05614002,-3.94836529,6.58450582,-7.57110977,-0.856554329,0.415429085
89693.454188,4.48387648,-4.94303742,4.36833725,-9.42188168,-0.600797653,1.70542514
89693.464216,2.00287463,-5.32493889,1.3784242,-9.85976124,-0.300930738,2.47627163
89693.474244,-0.324776802,-6.17642478,-3.16250249,-8.53829956,-0.278949827,2.72375059
89693.484272,0.227332326,-8.551066,-9.54713806,-4.62375307,-0.761910617,2.5154376
89693.494299,2.20315857,-9.0720223,-13.7710481,0.823432207,-1.49918652,1.95370507
89693.504327,2.6510926,-4.8160816,-11.4859884,5.67945004,-1.9044925,1.04141259
89693.514355,2.59477041,1.80498986,-6.14203268,8.72142982,-1.74597287,-0.0737504736
89693.524383,1.15978422,8.17675864,-0.249233119,9.54989433,-1.10608661,-1.3761158
89693.534410,-1.68499745,11.7359417,3.43492827,9.1821022,-0.289480478,-2.63340139
89693.544438,-2.96302855,12.2346639,4.71879553,8.0776825,0.422152102,-3.36305261
89693.554466,-3.00628902,9.90265304,7.19855366,5.28804064,0.871049464,-3.28615689
89693.564494,-2.84552475,5.1817468,8.55410259,1.66410398,0.878032267,-2.34838796
89693.574521,-1.09453266,1.41361914,6.83371789,-2.12123942,0.541756511,-0.898745537
89693.584549,1.30755238,-0.444336005,6.80283468,-6.09232473,0.112128995,0.539909005
89693.594577,2.88448576,-1.49640453,5.69821164,-8.78295326,-0.055302076,1.66987884
89693.604605,3.00843801,-2.00392078,3.32929464,-10.0372496,0.0310929995,2.46401119
89693.614632,1.43543875,-2.53462223,1.0558517,-10.1928558,0.241327718,2.84853935
89693.624660,-0.0861953697,-4.47271883,-2.5232261,-8.86839771,0.361032546,2.82795238
89693.634688,0.277489894,-8.53229525,-8.21493143,-5.31587982,0.122296944,2.70451021
89693.644716,1.64064773,-10.4699093,-13.5355875,-0.000614802819,-0.576018512,2.40204144
89693.654743,1.67045922,-6.2110238,-12.8104308,4.52891779,-1.13180208,1.69723201
89693.664771,1.90983409,0.429643609,-8.21726309,7.48705482,-1.27073097,0.675288916
89693.674799,1.22213605,7.05836076,-4.07798711,8.94892979,-0.99864459,-0.647386789
89693.684827,-1.3070814,11.8818512,-1.26330904,9.46535873,-0.517158926,-2.08637476
89693.694854,-3.31129897,13.8438094,0.884468128,9.21948624,-0.0654162243,-3.30743241
89693.704882,-3.6088776,13.2998791,3.53197235,7.41937065,0.273119211,-3.86370301
89693.714910,-3.22474706,9.55773369,7.00104605,3.94919109,0.332797706,-3.45492792
89693.724937,-1.57961064,4.34207205,7.28755121,0.0938837379,0.0609345175,-2.21707368
89693.734965,0.316383433,1.35727649,7.35179952,-4.06393385,-0.335826695,-0.77828759
89693.744993,2.11339457,0.0032858898,7.65702574,-7.57211399,-0.376220435,0.43234387
89693.755021,3.38095527,-1.1396869,6.1123869,-9.81431484,-0.0674444884,1.42318416
89693.765048,2.61614199,-2.01033328,3.52470382,-10.6687403,0.406866878,2.12596631
89693.775076,0.549944242,-3.57738941,-0.428979446,-10.0790882,0.807083011,2.45151305
89693.785104,-0.376735025,-7.04364542,-6.54932754,-7.37820482,0.777618051,2.44896197
89693.795132,0.945916284,-10.6494172,-13.5685814,-2.37925911,-0.000514461426,2.27658224
89693.805159,1.74342947,-8.9924718,-15.9694326,2.75979829,-1.04927313,1.80093861
89693.815187,2.23651461,-3.39572205,-11.2176847,6.29962587,-1.60629857,0.958609581
89693.825215,2.31758063,2.50007377,-6.03142594,8.39144421,-1.58148563,-0.0102524543
89693.835243,0.203799018,7.57955613,-1.8878134,9.30977726,-1.11295629,-1.13457382
89693.845270,-2.79361716,10.9280576,0.748168145,9.45559311,-0.483782858,-2.31901765
89693.855298,-4.21244175,12.329291,2.26729962,8.95936012,0.0801960975,-3.29160547
89693.865326,-3.73757179,11.4990174,4.41350559,6.83981848,0.401996762,-3.70695162
89693.875354,-2.33101718,7.85598939,6.70646456,3.35135603,0.312567025,-3.14590478
89693.885381,-0.438561075,3.07290435,6.75603201,-0.741816223,-0.104427539,-1.82518363
89693.895409,1.1481876,0.234559867,7.32667618,-5.1026597,-0.598946989,-0.325179517
89693.905437,2.44403347,-0.662564622,7.27837246,-8.64528656,-0.680312157,0.939358652
89693.915465,3.19557591,-1.27119468,5.92534457,-10.9010191,-0.329937637,1.87360704
89693.925492,1.95521725,-2.49678876,2.68723943,-11.508606,0.178788438,2.46614051
89693.935520,-0.0910144695,-5.39418135,-3.24571444,-9.89439678,0.412210524,2.63380599
89693.945548,-0.0492310319,-9.38867359,-10.7857709,-5.81209946,0.0981495306,2.57303929
89693.955576,1.96106071,-10.926636,-15.7280216,-0.244658619,-0.869729221,2.16486621
89693.965603,2.27664759,-7.27866355,-14.7319156,4.61602783,-1.7474016,1.41436589
89693.975631,2.84966492,-1.07534507,-8.7867955,7.56446123,-1.94333625,0.553736627
89693.985659,2.31943503,4.43634754,-2.44004747,8.36720943,-1.61003852,-0.353069186
89693.995687,-0.279303629,7.82883192,1.86025436,7.93360949,-1.00619471,-1.24432528
89694.005714,-2.44394506,9.16005715,3.85260716,6.65520906,-0.298428714,-1.82120752
89694.015742,-3.24958895,8.28465671,6.95447193,3.65176654,0.156723097,-1.68586946
89694.025770,-3.14217282,5.01239971,7.7927903,0.0758139268,0.125891939,-0.807575166
89694.035798,-1.2844737,2.58204917,6.75546327,-3.70567489,-0.178792864,0.351441026
89694.045825,0.67256338,2.49328981,6.47351329,-7.18243408,-0.467073381,1.26730263
89694.055853,1.85686881,2.01776036,5.31870437,-9.61599064,-0.517226815,1.90338588
89694.065881,2.97123875,0.685344755,4.39804733,-10.8670082,-0.391258776,2.41516161
89694.075909,2.86712663,0.131266519,3.03047829,-10.847373,0.118323512,2.71618199
89694.085936,-0.00808262256,-1.53353249,-0.429452324,-9.41278934,0.800983548,2.59046149
89694.095964,-2.82962984,-4.91580454,-6.30827422,-6.19069242,0.850857913,2.17980266
89694.105992,-2.04103441,-7.53919197,-13.0097832,-1.32373822,0.0436175801,1.59127676
89694.116020,1.352867,-7.36583681,-15.1167824,3.47877741,-0.995876253,0.962467134
89694.126047,3.72859528,-4.41737951,-10.7416956,6.75700426,-1.58320582,0.371862948
89694.136075,3.10205358,0.298941007,-3.94185254,8.09001827,-1.4876194,-0.22407499
89694.146103,1.10123581,4.37533135,1.06217447,8.19917107,-0.923118174,-0.821573794
89694.156131,-0.180743813,6.97040775,3.98504929,7.55856323,-0.125721648,-1.37628973
89694.166158,-0.785662521,8.32958598,6.4141323,5.71773052,0.572190046,-1.62653601
89694.176186,-2.08073163,7.68864312,8.05571293,2.85283041,0.948482752,-1.3884865
89694.186214,-2.85019011,6.75228172,6.57780369,-0.120975301,0.902197242,-0.789911449
89694.196242,-1.80090317,8.27295925,4.93511188,-3.22987008,0.640271664,-0.348632902
89694.206269,-0.849976295,9.9952191,2.87683086,-5.59630632,0.393172652,-0.337128848
89694.216297,0.452428857,9.31057738,-0.248450445,-6.50886345,0.248691022,-0.553921223
89694.226325,1.09558501,7.65341749,-3.6967292,-5.77680969,0.354347676,-0.978560388
89694.236353,0.0835895163,5.68367809,-7.62641316,-3.46341848,0.39417097,-1.74621189
89694.246380,-0.566105395,4.14826067,-11.6865016,0.0461348407,-0.094904162,-2.77981353
89694.256408,0.267579398,4.01022933,-12.7710785,3.43115687,-1.03705418,-3.80899835
89694.266436,1.82494748,4.74061252,-8.99244433,5.31393433,-1.93102968,-4.6818738
89694.276464,2.94427154,4.94843781,-3.33410292,5.80323696,-2.37900805,-5.22228909
89694.286491,3.26250133,3.81566537,1.94795427,4.97579193,-2.36251974,-5.30877829
89694.296519,2.67051334,-0.47387997,6.34905105,3.4100244,-2.03132296,-4.75873566
89694.306547,1.7849393,-5.77927372,7.66884711,2.14959955,-1.51067209,-3.61573792
89694.316575,1.86000842,-9.66479063,7.96739576,0.98989439,-0.956869543,-2.19421744
89694.326602,2.20473035,-12.3561264,7.82147162,0.192207888,-0.348295689,-0.809779644
89694.336630,1.94957632,-13.6214608,6.20777094,-0.0707675442,0.167684317,0.411253095
89694.346658,1.92587191,-13.2137767,4.86177309,-0.24645628,0.561014831,1.36299646
89694.356686,2.40539964,-11.3024228,3.62595529,-0.385230154,0.790433884,2.06883836
89694.366713,2.44722992,-8.97878171,2.20682615,-0.545254409,0.830527782,2.56685257
89694.376741,2.53863117,-6.92718294,1.33624276,-0.713088155,0.778986335,2.91493106
89694.386769,2.45919173,-5.04334137,0.60873454,-0.824569941,0.716247559,3.13683581
89694.396797,2.00515353,-3.61634282,0.146462481,-0.91556406,0.640292346,3.26712823
89694.406824,1.73022118,-2.42020835,-0.248754981,-0.90763849,0.579519808,3.34608126
89694.416852,1.78070824,-1.13343134,-0.525303977,-0.80054903,0.566556096,3.34242225
89694.426879,1.71848047,0.165773842,-0.959057798,-0.578076541,0.555574,3.22976518
89694.436907,1.49717493,1.74840083,-1.00064419,-0.546142042,0.532663882,3.00731492
89694.446934,1.70369689,3.30998847,-0.672366762,-0.615745902,0.435693651,2.71266818
89694.456962,2.08798409,4.57490232,-0.109896545,-0.854878306,0.331279635,2.35489154
89694.466990,2.43024825,6.31121553,1.28250474,-1.44581008,0.29522258,1.95885801
89694.477018,2.02144036,7.72175044,2.78428819,-2.25380921,0.402703226,1.54460514
89694.487045,1.3030159,7.91007696,4.17778604,-3.09173274,0.639010012,1.16745126
89694.497073,1.01527105,7.99100109,4.51523637,-3.47615504,0.891777039,0.836990833
89694.507101,0.929276553,8.29527045,3.88308237,-3.47708917,1.37724674,0.409716994
89694.517129,0.041774172,7.82237822,1.73118608,-2.74478841,1.83230269,-0.228663519
89694.527156,-1.44621646,7.14663058,-1.84422092,-1.29232943,1.94878566,-0.999936521
89694.537184,-2.13382492,6.19800241,-5.22332852,0.471906394,1.66969776,-1.91331005
89694.547212,-2.62350229,4.87754262,-8.95378171,2.67647338,0.933720469,-2.8407445
89694.557240,-1.54059132,2.90419116,-11.6211182,4.73500061,-0.104376227,-3.45013618
89694.567268,0.310695633,1.26430828,-10.8556797,5.84136772,-1.18793106,-3.58979797
89694.577295,1.00096334,0.171136867,-7.97696731,5.83409548,-2.03376985,-3.39086628
89694.587323,0.555492341,-1.26293991,-4.07339919,4.71917391,-2.5330286,-2.89352632
89694.597351,-0.240639186,-3.53450099,-0.945941711,3.26725578,-2.70924139,-2.08265877
89694.607379,-0.789029878,-5.58029838,0.650858694,2.01421046,-2.63958025,-1.07537568
89694.617406,-1.17194491,-6.69076254,1.47678286,1.08931744,-2.39223933,-0.143296152
89694.627434,-1.62028576,-6.58388973,1.53411745,0.447043121,-2.07666349,0.576810658
89694.637462,-1.52309731,-5.67782703,1.20040981,0.0830603689,-1.81179166,1.03089821
89694.647490,-1.66421112,-4.37652056,0.143273914,0.0911412016,-1.70617151,1.20822263
89694.657517,-1.49723207,-2.76009074,-1.06193014,0.31373325,-1.75864649,1.18833923
89694.667545,-0.672375237,-1.430928,-1.44776077,0.442155689,-1.91413569,1.07975256
89694.677573,-0.129335989,-0.811362049,-1.26716162,0.488553554,-2.09043074,0.97970432
89694.687601,0.270526667,-0.457131847,-1.09190033,0.562993169,-2.21566749,0.906259656
89694.697628,0.953242097,-0.240850053,-0.622777094,0.623041332,-2.29496431,0.857674003
89694.707656,2.03028067,-0.175438546,0.0162725049,0.721800625,-2.32142377,0.844155252
89694.717684,3.35502091,-0.219170282,0.738387925,0.826061785,-2.2834723,0.883060038
89694.727712,4.62745405,-0.164969175,2.22152922,0.698568583,-2.19367599,0.966492057
89694.737739,6.94892599,-0.392827205,3.72855817,0.398199946,-2.0743866,1.21165252
89694.747767,6.80031656,0.53724649,6.88277857,-0.32588318,-1.81545353,1.4287957
89694.757795,7.88542358,0.738627725,8.70127001,-1.00398982,-1.24540365,1.70622635
89694.767823,6.74005761,0.849540607,11.6544511,-1.44249928,-0.223743364,1.883376
89694.777850,6.82566318,0.836867369,14.0780998,-2.29305601,0.884855986,2.06510425
89694.787878,5.56008327,1.52826726,14.6647482,-2.51482725,2.26531219,2.16157103
89694.797906,5.81215775,2.60608792,16.1765463,-3.01510191,3.78797626,2.15227294
89694.807934,4.93141245,3.71530676,13.7470079,-2.80784297,5.56984997,1.95876634
89694.817961,2.84698342,4.62064641,9.48416752,-2.50736737,6.91910696,1.45867407
89694.827989,4.00932449,5.23293046,5.49973723,-1.98620462,7.62859583,0.796024978
89694.838017,4.91391946,5.07055671,0.570565261,-1.13964856,7.76649761,0.0582329743
89694.848045,3.82199691,4.7778451,-4.46415675,-0.080363974,7.3934927,-0.795411348
89694.858073,2.17399882,4.5851446,-9.36685164,1.23289406,6.56655788,-1.66039145
89694.868100,0.300287636,3.32386327,-14.1789193,2.50674176,5.29528379,-2.33322024
89694.878128,-2.04581507,1.39040134,-18.6489324,3.71799421,3.49526405,-2.69286394
89694.888156,-2.78809693,-0.689791944,-22.1012636,4.65485191,1.31469846,-2.61740565
89694.898184,-2.15621562,-2.40881807,-22.424717,4.69914484,-0.882754564,-2.14944601
89694.908211,-2.10843256,-3.67299878,-19.7946818,3.89368343,-2.74181986,-1.39524961
89694.918239,-2.23001984,-4.69608832,-16.4300195,2.46918797,-4.13543034,-0.458106816
89694.928267,-1.5386282,-5.50068182,-13.3752754,0.910623312,-5.28018904,0.491592139
89694.938295,0.363038545,-5.79732142,-11.1486129,-0.242743835,-6.25642443,1.29821372
89694.948322,1.92127464,-4.83680524,-8.61755069,-1.05820322,-6.95314789,1.79051208
89694.958350,4.21737278,-3.72269074,-5.70265518,-1.24491775,-7.35273886,1.99506319
89694.968378,7.37089176,-3.92089276,-2.79058933,-0.526250899,-7.51723433,1.92468917
89694.978406,8.50055454,-4.05655152,1.01848672,0.614551961,-7.31430006,1.82222688
89694.988433,8.37991682,-2.75101019,6.6120783,1.20632386,-6.5374155,1.76746142
89694.998461,7.41025229,-1.12969442,12.9289216,0.997981071,-5.2978282,1.6835556
89695.008489,6.82539605,0.14811054,17.1354439,0.76237309,-3.68442011,1.59066236
89695.018517,6.60411769,1.33707278,19.983611,0.296969742,-1.81045079,1.56517601
89695.028544,6.91992143,3.24087051,21.8156499,-0.255136847,0.288251996,1.57938182
89695.038572,7.10487584,5.33708583,23.9234031,-0.975077987,2.25733471,1.27133346
89695.048600,6.63951108,5.86154401,23.3975134,-1.48326182,4.57723618,0.884323716
89695.058628,6.97119218,6.70424045,20.749648,-1.67672741,6.73458815,0.418590099
89695.068656,6.76034754,7.2193679,14.2111651,-1.20342433,8.44216824,-0.163976133
89695.078683,4.96453146,6.94516634,5.3206748,-0.206738696,9.4555769,-0.94510603
89695.088711,3.66152753,5.80504938,-2.14585701,0.579235792,9.30331612,-1.82672191
89695.098739,3.62576882,4.644091,-9.49027811,1.39756739,7.93818569,-2.67901492
89695.108767,3.34601109,3.36347924,-17.045818,2.25674891,5.85106897,-3.20437741
89695.118794,3.72684639,0.442075659,-23.0252291,2.9171834,3.09658003,-2.92290258
89695.128822,4.67208463,-2.38927648,-24.9529729,2.42174697,0.0643760338,-2.10153317
89695.138850,0.952292322,-3.98084658,-22.3920072,1.13182437,-2.44845366,-1.10580683
89695.148878,-0.63224781,-5.7433683,-16.0101364,-0.373480022,-3.96524072,0.0329281501
89695.158905,0.79143599,-7.57982092,-9.78201416,-1.44648838,-4.71709013,1.18124938
89695.168933,1.80620113,-8.19394592,-4.45458112,-1.86279261,-4.88314104,2.07652855
89695.178961,1.37389795,-7.26285516,0.269590263,-1.69160998,-4.52635098,2.57299614
89695.188989,0.611677169,-5.53668779,4.32422338,-1.27295494,-3.74892473,2.72897863
89695.199016,-0.0105083884,-3.47823696,7.94146754,-1.0052886,-2.70022202,2.60344481
89695.209044,-0.584423398,-1.40281542,10.4330085,-0.835480928,-1.57089996,2.29108238
89695.219072,0.236640472,0.305943908,11.8463695,-0.73430711,-0.38952145,1.92553139
89695.229100,1.28449299,2.12800849,12.5522662,-0.557869732,0.840139925,1.43046141
89695.239128,1.17617816,4.06411202,12.1750742,-0.203135341,2.00939727,0.698607683
89695.249155,1.85737164,5.56766978,11.7317027,0.158512875,3.09314775,-0.162269235
89695.259183,3.24717926,6.57417322,11.1004039,0.469684064,4.11544704,-1.01021302
89695.269211,3.13971082,6.84792177,8.77933583,0.869249284,5.0869627,-1.78950405
89695.279239,1.7603185,6.4321759,5.26186254,1.1666218,5.60578299,-2.44509625
89695.289266,1.31394573,5.54159426,0.144245389,1.5800997,5.6186409,-2.98944688
89695.299294,0.838325751,3.37485024,-5.66967119,1.8369869,4.93696117,-3.30497384
89695.309322,0.727385177,0.0564958673,-11.2318278,2.0728848,3.53023458,-3.16258812
89695.319350,1.06604057,-3.35194399,-16.6096723,2.1635766,1.63462961,-2.42508101
89695.329377,1.09339897,-6.10957594,-19.4228394,1.46220553,-0.522842228,-1.24362946
89695.339405,0.938513461,-7.9415067,-19.5773332,0.119755358,-2.64799571,0.134879351
89695.349433,0.406863658,-8.69632963,-17.1148173,-1.56419706,-4.41049051,1.4800812
89695.359461,1.08966351,-8.72166164,-13.170356,-2.97700596,-5.67971659,2.63175726
89695.369489,2.47506968,-7.9132702,-8.92635711,-3.84048605,-6.43821049,3.47399521
89695.379516,3.19188787,-6.36597939,-4.14246572,-4.10875988,-6.72925425,3.85145593
89695.389544,4.28985583,-5.19614942,-0.319361133,-3.26694417,-6.59551668,3.71965265
89695.399572,5.24607928,-4.31219655,3.4681975,-1.70575714,-5.88192606,3.27916956
89695.409600,3.90539942,-2.18875624,8.58728298,-0.400528044,-4.6322403,2.64392114
89695.419627,1.9112311,0.690109047,14.1463556,0.243818194,-3.0686059,1.85288703
89695.429655,1.54437698,3.40201384,17.7458765,0.581003368,-1.19520295,0.963552535
89695.439683,1.06872492,5.79288081,19.2545719,0.91874522,0.91326046,-0.0634635687
89695.449711,0.706727589,7.42744717,19.2043404,1.29892981,2.86736965,-1.18383622
89695.459738,2.89740574,7.83738932,16.830929,1.75057745,4.50406313,-2.25159597
89695.469766,3.99942795,7.95316207,12.164796,2.44051194,5.81253719,-3.2786262
89695.479794,2.74201849,7.32981799,6.88500501,2.93655348,6.48463917,-4.14401007
89695.489822,3.3458109,5.17140311,2.06905902,3.03031468,6.40247297,-4.59211254
89695.499850,5.0889294,2.44473635,-3.33423385,2.76146698,5.57055759,-4.54316473
89695.509877,5.65133883,-0.636180619,-8.28029442,2.13890219,4.15395784,-3.95175838
89695.519905,4.9456853,-3.96257618,-12.5635966,1.32713163,2.3710494,-2.81739426
89695.529933,3.0224867,-6.2867492,-15.2004543,0.106950879,0.441402376,-1.40997052
89695.539961,1.24320266,-7.53467362,-15.433543,-1.26225615,-1.38370681,0.0109701827
89695.549988,0.44671837,-7.58050131,-13.6031103,-2.32389164,-2.81758523,1.23858261
89695.560016,0.745084792,-6.80059654,-10.1251209,-2.87128878,-3.74590707,2.0825758
89695.570044,1.29933429,-5.86262362,-6.19668723,-2.68826699,-4.20098352,2.49641347
89695.580072,1.61541392,-5.04798189,-2.58787948,-1.72590339,-4.18232822,2.53510809
89695.590100,1.12683195,-3.40750192,0.961073814,-0.52553767,-3.64746118,2.22750664
89695.600127,-0.267694513,-1.00443569,4.95550819,0.266597539,-2.73438883,1.65729916
89695.610155,-1.64624964,1.03126949,7.98288734,0.716272771,-1.64826632,0.964919508
89695.620183,-1.65258411,2.27286383,9.50939724,0.891599596,-0.546165943,0.340832502
89695.630211,-0.716283937,2.84561535,10.1209568,0.80215174,0.477597922,-0.167317256
89695.640238,0.331991482,2.72517198,9.68778163,0.593472302,1.34426272,-0.530266702
89695.650266,0.780649734,2.14236683,7.67512137,0.41961211,1.98154688,-0.747023761
89695.660294,0.705566436,1.45077909,4.53521883,0.327867806,2.28935242,-0.878061414
89695.670322,1.29933619,0.736935826,1.27733873,0.321572095,2.2196312,-0.944977641
89695.680350,2.11412259,0.048268539,-1.69982531,0.45655176,1.81761038,-0.937070668
89695.690377,2.44267723,-0.446895772,-3.64065426,0.637530327,1.22671986,-0.849542201
89695.700405,2.36586389,-0.679133333,-4.17343895,0.699242413,0.648600817,-0.68769896
89695.710433,1.90093328,-0.858122996,-3.49062853,0.59149009,0.220022067,-0.455905408
89695.720461,1.19265824,-1.05346583,-2.27476864,0.386165202,-0.0104223313,-0.174992487
89695.730488,0.611056845,-0.919610023,-1.04285193,0.108838789,-0.0647265837,0.109743632
89695.740516,0.200744325,-0.479871721,-0.0451321041,-0.184291884,-0.00872509833,0.332089871
89695.750544,-0.233042521,0.0968812153,0.355952204,-0.417187184,0.0903058797,0.443386316
89695.760572,-0.605650237,0.667408336,0.344564548,-0.533415258,0.188795164,0.444840938
89695.770600,-0.838781094,1.04893885,0.0445966821,-0.519806802,0.253220201,0.350961566
89695.780627,-0.950558338,1.24928066,-0.293943783,-0.406257302,0.28880778,0.19516933
89695.790655,-1.02172629,1.28409493,-0.621620325,-0.226767436,0.292599589,0.00913473219
89695.800683,-1.09546205,1.07750977,-0.849762726,-0.0297057722,0.269513696,-0.164571539
89695.810711,-1.1057166,0.710918465,-0.89589144,0.0982545912,0.229641929,-0.293497324
89695.820738,-0.86779698,0.226575115,-0.899453516,0.153502405,0.171693146,-0.356936485
89695.830766,-0.580659661,-0.240734317,-0.959936919,0.185478985,0.102064803,-0.35439527
89695.840794,-0.38630416,-0.666211966,-1.0361387,0.174293712,0.0231750421,-0.297547191
89695.850822,-0.136827807,-0.939726344,-0.877629222,0.100119069,-0.0561567955,-0.210162729
89695.860850,0.0649034109,-1.04383415,-0.720094728,0.00267933216,-0.126083687,-0.0966990218
89695.870877,0.181889622,-1.10122236,-0.441121719,-0.118485443,-0.172283664,0.0313670672
89695.880905,0.248286925,-1.05673024,-0.166284203,-0.201660216,-0.195178062,0.140302077
89695.890933,0.282321515,-0.829824392,0.0209060099,-0.232963011,-0.195239589,0.205707178
89695.900961,0.240825868,-0.530561094,0.144417823,-0.181433246,-0.177347928,0.208433196
89695.910988,0.131153122,-0.253127095,0.282843128,-0.11434982,-0.144770011,0.174647808
89695.921016,0.161812245,-0.0446117701,0.460084778,-0.0432612635,-0.103359193,0.130233988
89695.931044,0.134906118,0.190335452,0.518904631,0.043003317,-0.0592561811,0.0583435558
89695.941072,0.0568598783,0.35975598,0.514081741,0.115913741,-0.0134487469,-0.024009373
89695.951100,0.0586768646,0.372715889,0.544821747,0.154182583,0.0345408842,-0.0849619433
89695.961127,0.0928157194,0.298016805,0.539026797,0.159399703,0.0728845447,-0.117695652
89695.971155,0.0631998219,0.22026089,0.44719081,0.14283964,0.10311009,-0.134638414
89695.981183,0.062375573,0.118441744,0.27471652,0.107476585,0.118446968,-0.141421214
89695.991211,0.13745003,0.0280430222,0.0487713374,0.0855140239,0.116078623,-0.139244884
89696.001239,0.138642236,-0.0540240703,-0.186965172,0.0837704539,0.0957339332,-0.127318442
89696.011266,0.0976989614,-0.159144122,-0.291220496,0.0841558129,0.0728579089,-0.110495262
89696.021294,0.158375695,-0.208504438,-0.37710722,0.0981818885,0.0344359539,-0.0836972073
89696.031322,0.181586036,-0.210739211,-0.335410935,0.085844256,-0.00368959364,-0.0529060028
89696.041350,0.219159761,-0.203759508,-0.219185772,0.0573742688,-0.0335007496,-0.0163407996
89696.051377,0.249727406,-0.223145981,-0.171561266,0.036535833,-0.05892675,0.0270625986
89696.061405,0.232829974,-0.156717406,-0.0734147803,0.0105630876,-0.0810187384,0.0572173037
89696.071433,0.257210528,-0.045214814,0.0572311227,-0.0037575285,-0.0852443725,0.0711650774
89696.081461,0.227332692,0.0466888321,0.183493112,-0.00953419134,-0.06700252,0.0665812492
89696.091489,0.15168533,0.113745768,0.337362069,-0.0112229018,-0.0460050926,0.0555720031
89696.101516,0.183330176,0.11955197,0.367151058,0.00890873186,-0.0233399943,0.0396638773
89696.111544,0.234347977,0.123840169,0.433845006,0.0262301974,0.0076714512,0.0142480014
89696.121572,0.130863345,0.162028664,0.492921464,0.0440334305,0.0412144996,-0.0164097771
89696.131600,0.0736623253,0.161285225,0.446053915,0.0688530281,0.071691446,-0.042208083
89696.141628,0.0577571924,0.11258593,0.395121015,0.0687731281,0.095549643,-0.0661128834
89696.151655,0.0309732304,0.0479166934,0.277012522,0.0716591999,0.104403324,-0.0783897936
89696.161683,0.0298529211,-0.0340831061,0.0412795204,0.0976881385,0.0884416625,-0.0817584246
89696.171711,0.0407575423,-0.10374226,-0.0966051018,0.104592383,0.0710277855,-0.0740765333
89696.181739,0.011977438,-0.151618475,-0.109618897,0.0752158463,0.0505107939,-0.0508524403
89696.191767,0.0214015383,-0.189060317,-0.166458975,0.0447570086,0.022617111,-0.014289367
89696.201794,0.0668101944,-0.192810391,-0.256432091,0.0214950964,-0.0081668999,0.0269869678
89696.211822,0.086268855,-0.146494995,-0.212498841,-0.009001825,-0.0363998674,0.051044099
89696.221850,0.0851665929,-0.0190530755,-0.199335993,-0.019780064,-0.0615671799,0.0599036478
89696.231878,0.0529236348,0.089314068,-0.123890584,-0.0149019519,-0.0694168508,0.0485122427
89696.241905,0.0488653724,0.152419928,-0.0404576826,0.000375271542,-0.0623304471,0.026138762
89696.251933,0.0302213891,0.15582338,0.0336573549,0.0195636135,-0.0500402227,0.00750968372
89696.261961,0.0706385936,0.0604923896,0.00787350985,0.0429570898,-0.0447751544,-0.0101763681
89696.271989,0.161812026,-0.0406477253,0.0152402392,0.0503697321,-0.0413135774,-0.0128219537
89696.282017,0.229082896,-0.0971999989,0.0292757788,0.058556553,-0.0448273532,-0.0011146972
89696.292044,0.217594265,-0.112556704,0.0729424866,0.0399442539,-0.0460574664,0.0145199224
89696.302072,0.250714882,-0.0997484413,0.180527248,0.0104710488,-0.0482092984,0.03391812
89696.312100,0.260119547,-0.0688400197,0.23697628,-0.00791195314,-0.043382585,0.0439414605
89696.322128,0.205984783,-0.0021845775,0.348756155,-0.0300702527,-0.0209648963,0.0421081409
89696.332156,0.151152611,-0.00630180356,0.421709163,-0.0411239676,0.0123403305,0.0419406295
89696.342183,0.0975603567,-0.0474317594,0.386027608,-0.0241140928,0.0490823649,0.0368412063
89696.352211,0.0244713742,-0.0547638558,0.257778245,0.0121935811,0.0724563971,0.0236199442
89696.362239,-0.023790187,-0.0597918401,0.0913046573,0.0682986602,0.0760394111,0.00247204816
89696.372267,-0.0213080879,-0.0247375509,-0.0744815327,0.123407722,0.0581861138,-0.0215432737
89696.382295,-0.0138911627,0.0320512349,-0.102445644,0.134810045,0.041964002,-0.0418461487
89696.392322,-0.0127007108,0.0386542864,-0.0629009851,0.124690562,0.026418332,-0.0511629507
89696.402350,0.00794372555,0.00780409788,-0.0789092861,0.0992448553,0.0106923664,-0.0437372588
89696.412378,0.0423426926,-0.0446056691,-0.0422767147,0.073215656,0.00348798302,-0.0295300931
89696.422406,0.00437485408,-0.082839319,-0.0539636454,0.0493414849,0.00363525562,-0.00482661091
89696.432434,-0.021038258,-0.105827542,-0.0760790311,0.015472997,-0.00292411027,0.0238260739
89696.442461,0.0309740341,-0.110103612,-0.125551795,-0.0101380898,-0.0166058335,0.0522790179
89696.452489,0.0532787319,-0.0747341923,-0.213210204,-0.0194450393,-0.0440180153,0.0686694458
89696.462517,0.079156758,-0.0368329162,-0.216124046,-0.00842381269,-0.0684093758,0.0727118552
89696.472545,0.0955848188,0.054015887,-0.0951104793,0.00573301874,-0.0794513747,0.0594365299
89696.482573,0.0940970645,0.150887604,0.0817412946,0.0104111275,-0.0743418336,0.0350454375
89696.492600,0.105483916,0.227353004,0.267894565,0.000315882964,-0.0509126745,0.0131776892
89696.502628,0.105647582,0.245899737,0.356938292,-0.0106653953,-0.0225015394,-0.0042835921
89696.512656,0.128319433,0.220871679,0.392927305,-0.0289621111,0.00228556572,-0.0194745287
89696.522684,0.148679938,0.21625739,0.371172569,-0.0428518243,0.0213071927,-0.0310211964
89696.532711,0.161522833,0.181523419,0.343483767,-0.0465925001,0.0287137106,-0.0412474684
89696.542739,0.223427428,0.102993341,0.312216522,-0.0362005793,0.0338157937,-0.0455852263
89696.552767,0.285499415,0.0712212158,0.375095295,-0.0348575488,0.0500727966,-0.0446278192
89696.562795,0.315182825,0.069251377,0.513653871,-0.0513531677,0.0812184662,-0.0366071761
89696.572823,0.321858868,0.0820958802,0.634357641,-0.086962834,0.130805194,-0.0233627446
89696.582850,0.348587009,0.180195093,0.771398214,-0.13294816,0.189490616,-0.0193674695
89696.592878,0.320432854,0.256611028,0.842494196,-0.166410789,0.257519215,-0.0291034542
89696.602906,0.300349632,0.36647009,0.929188729,-0.198690429,0.348170012,-0.0536540709
89696.612934,0.329566009,0.542035916,1.09218617,-0.279945582,0.458695441,-0.0905090272
89696.622962,0.321392785,0.726922455,1.45309395,-0.425350189,0.598271668,-0.130496398
89696.632989,0.411785077,0.921249534,1.94459794,-0.679686069,0.781112075,-0.155217186
89696.643017,0.569035567,1.27140554,2.42345464,-1.03172159,1.02655029,-0.172963426
89696.653045,0.343919674,1.76652905,2.34017489,-1.36362839,1.34159434,-0.214494362
89696.663073,-0.670755089,2.33524605,1.42620945,-1.71681046,1.65948498,-0.317140579
89696.673101,-1.72917766,2.75190275,-0.563362782,-2.08363652,1.7665602,-0.44516325
89696.683128,-2.37551713,2.89115633,-3.43173035,-2.39744258,1.55298853,-0.599760771
89696.693156,-3.0498961,2.57822727,-7.12052116,-2.58238077,0.953152537,-0.7845999
89696.703184,-4.23394573,1.84162038,-12.1215694,-2.2621913,-0.05496867,-0.951755583
89696.713212,-5.10730677,0.921198826,-17.5409712,-1.58265483,-1.51213562,-1.09575295
89696.723240,-3.62849854,-0.547985984,-21.4007329,-0.70696187,-3.2944417,-1.10971081
89696.733267,1.21442715,-2.93994491,-23.6225871,0.33571732,-5.40857792,-0.813035786
89696.743295,5.51138792,-4.71646533,-20.7998327,1.04443324,-7.29197931,-0.382274568
89696.753323,6.59445555,-5.5482128,-13.518938,1.39967871,-8.37296963,0.093286112
89696.763351,8.23483323,-6.29899318,-6.29373073,1.50401604,-8.75822639,0.679160237
89696.773379,9.53857832,-6.30572804,-0.413598921,1.48293543,-8.65035725,1.21762347
89696.783406,9.18331644,-5.47524109,4.92579636,1.3850286,-8.06335449,1.58945644
89696.793434,8.00476132,-4.01455771,9.37161257,1.25354254,-7.02836227,1.7579453
89696.803462,7.07460989,-2.45068021,12.7611545,1.20290172,-5.68227911,1.71419382
89696.813490,6.4303107,-0.89913729,15.1171097,1.2212069,-4.09963942,1.49357915
89696.823518,5.86990384,0.814766962,17.2722127,1.11377609,-2.38412976,1.16172695
89696.833546,5.62122251,2.15565126,18.9922993,0.984871387,-0.557203829,0.758243382
89696.843573,5.29522939,3.1737864,19.2892773,1.04151654,1.34380984,0.285118133
89696.853601,4.93605998,4.14168216,18.7124699,1.08363736,3.19483423,-0.254614085
89696.863629,5.85944616,4.44871105,17.1699552,0.979173005,4.77724075,-0.728799462
89696.873657,7.68577662,4.36831738,14.925141,0.745302975,6.04205847,-1.07361972
89696.883685,9.3334012,4.21540937,12.757541,0.308214337,7.02468634,-1.27868259
89696.893712,10.3786093,4.23029977,10.2230611,-0.123869717,7.9100728,-1.33523107
89696.903740,9.35406756,4.58249613,6.52721332,-0.550271332,8.66507912,-1.36376572
89696.913768,7.03123485,5.0145525,1.6458453,-0.83740139,8.94303322,-1.52162838
89696.923796,4.79259142,5.31137739,-5.06812452,-0.804017603,8.40119839,-1.92099333
89696.933824,3.07521233,4.98941046,-12.8945833,-0.108437762,6.93631554,-2.44467258
89696.943851,2.23009305,3.81071476,-21.0584626,1.17760432,4.64938641,-2.8437047
89696.953879,0.675955215,1.57510529,-26.4448692,2.35296655,1.8509537,-3.01986051
89696.963907,-0.873876665,-1.38669577,-27.3188487,3.02138424,-0.896888196,-2.72999001
89696.973935,-1.46819828,-4.1203854,-23.4559329,2.88772869,-3.00824857,-2.01562381
89696.983963,-1.54714936,-6.18988807,-16.2214761,1.96938872,-4.2734313,-0.978394389
89696.993990,-0.275945112,-7.97425337,-9.59004022,0.66953522,-4.87408209,0.257816464
89697.004018,0.710312316,-9.0799607,-4.63164039,-0.498199373,-5.03063583,1.48669457
89697.014046,0.86686379,-8.99527341,-1.34525492,-1.21085835,-4.92634106,2.45532179
89697.024074,1.30850646,-7.96077313,0.719575088,-1.31368089,-4.68543386,3.01898074
89697.034102,1.93184981,-6.50707362,2.356296,-0.981920481,-4.32864094,3.20060229
89697.044129,2.09373578,-4.68893961,4.19978685,-0.4696998,-3.8191998,3.09604049
89697.054157,2.20740921,-2.84222892,6.26561639,0.0122095598,-3.14962196,2.81045628
89697.064185,2.47510241,-1.28981828,8.58457956,0.323899031,-2.31031585,2.47645283
89697.074213,2.71022254,0.00363780851,10.3820721,0.533772886,-1.32774925,2.13635707
89697.084241,3.04191183,1.33848981,11.5545271,0.675986767,-0.228233129,1.76664507
89697.094269,3.55281757,2.5734868,12.1949924,0.782487929,0.928875208,1.33628273
89697.104296,4.02725294,3.80295904,12.5871014,0.77360785,2.06698489,0.85655582
89697.114324,4.62493768,4.94220272,12.4786165,0.688939869,3.14035344,0.359411001
89697.124352,5.49754177,5.89532645,12.0144745,0.514572024,4.15628386,-0.158532813
89697.134380,6.27991847,6.8027546,11.2868722,0.310691595,5.10787439,-0.721621156
89697.144408,6.70998455,7.44616122,10.1381183,0.213848665,5.9879241,-1.29267776
89697.154435,6.6394725,7.19145581,7.83089353,0.462495774,6.86372852,-1.87490678
89697.164463,4.98728222,6.02123948,4.33522701,0.878418684,7.56066704,-2.45266414
89697.174491,2.85742766,4.46117189,0.210195241,1.30806565,7.78013897,-2.92822981
89697.184519,2.0251246,2.67232361,-5.10482782,1.62933695,7.27883244,-3.22666478
89697.194547,1.79667445,0.531992003,-11.1048112,1.75672841,5.85815287,-3.26600003
89697.204574,1.57606522,-1.62372684,-17.5505246,1.95018601,3.68278742,-2.98002124
89697.214602,-0.026386341,-3.36249607,-21.42897,1.78106916,1.30181205,-2.50308275
89697.224630,-1.15199035,-5.83652004,-22.8968798,1.32257736,-1.04921937,-1.55064189
89697.234658,-0.872539936,-7.99130037,-20.9963349,0.348732591,-3.05238843,-0.408436865
89697.244686,-1.59199286,-8.45653771,-16.894532,-0.847838163,-4.49219179,0.723012388
89697.254714,-0.128798229,-8.22857885,-12.8933418,-1.99008155,-5.4853754,1.73108101
89697.264741,1.5818422,-7.17336252,-9.48422539,-2.83778,-6.1474762,2.4519186
89697.274769,2.15824333,-5.83806786,-6.16071985,-3.39828968,-6.52005672,2.83232689
89697.284797,2.45138047,-4.93619793,-3.14229265,-3.60126638,-6.6201911,2.9635334
89697.294825,2.99966405,-4.38536086,-0.625549481,-3.4232626,-6.49314594,2.91346502
89697.304853,3.69011825,-4.05983653,1.49417531,-2.78827238,-6.17517519,2.69404507
89697.314880,4.44231726,-3.91838048,3.59227513,-1.81869864,-5.67876434,2.38269138
89697.324908,4.87408985,-3.44120837,5.93256693,-0.764788032,-4.97252369,2.06032944
89697.334936,4.77524193,-2.40638806,8.62219881,0.0725388229,-4.05888414,1.72999251
89697.344964,4.68357195,-1.12226668,11.0916407,0.628814042,-2.93923402,1.3937999
89697.354992,4.60751893,0.429637983,12.9189836,0.980522275,-1.6453203,1.03968871
89697.365019,4.21243152,2.19481028,14.260383,1.08804476,-0.230969533,0.608379543
89697.375047,3.85018694,3.65167016,14.6399469,1.09886122,1.18044674,0.12453942
89697.385075,4.32884461,4.41311572,13.8069834,1.16451764,2.4175458,-0.342408061
89697.395103,5.20361318,4.90916671,12.2990829,1.21005082,3.44688392,-0.816863537
89697.405131,6.14455373,5.46134525,10.8101361,1.20321131,4.28430367,-1.31557
89697.415159,6.8920976,5.82245411,9.14486308,1.30993724,5.01996136,-1.81456459
89697.425187,6.60180182,5.7994824,6.89408381,1.59679163,5.70747948,-2.29079318
89697.435215,5.23756865,5.37886103,4.57435433,1.84638441,6.23520708,-2.73791265
89697.445243,3.72584189,4.66227957,1.77177879,2.01249361,6.4797287,-3.11601138
89697.455271,2.38651724,3.4727711,-1.86391346,2.07432842,6.31725121,-3.36718678
89697.465298,0.93391247,1.836839,-6.24522535,1.92435956,5.58498526,-3.44449711
89697.475326,-0.212308324,-0.458572109,-11.2569716,1.68717694,4.24966383,-3.27641559
89697.485354,-0.629811815,-2.97502937,-16.2193602,1.49143457,2.43993735,-2.77211022
89697.495382,-0.747261625,-5.37466825,-19.5349074,1.04133773,0.370884657,-1.97592735
89697.505410,-1.53250387,-7.28536977,-20.3836952,0.278543115,-1.67811823,-0.902550459
89697.515437,-1.93388161,-8.18532656,-18.6381,-0.70283705,-3.35548782,0.210905209
89697.525466,-1.81314759,-8.18838946,-15.1161873,-1.79993641,-4.56605005,1.19892871
89697.535492,-0.499057592,-7.60633191,-11.6993412,-2.70980787,-5.42880297,1.99927378
89697.545521,0.8769975,-6.67200348,-8.64470699,-3.26659107,-6.00320768,2.52936077
89697.555549,1.68764724,-5.84870557,-5.52311928,-3.47788954,-6.31044102,2.78121638
89697.565577,2.54277719,-5.27566018,-2.73288709,-3.2463975,-6.37717962,2.80739856
89697.575605,3.39362449,-4.99446131,-0.281774622,-2.59988499,-6.23945856,2.66669416
89697.585633,4.14422542,-4.94546844,2.28469791,-1.63459647,-5.88345814,2.43451095
89697.595660,4.52013437,-4.60349333,4.92713375,-0.584762335,-5.30895376,2.18462467
89697.605688,4.7582566,-3.77503292,7.83871444,0.243451178,-4.45673561,1.95902443
89697.615716,4.94438532,-2.6756583,10.408773,0.771512866,-3.35311365,1.76162767
89697.625744,4.95733132,-1.44046301,12.5542887,1.01699662,-2.0646615,1.56823134
89697.635772,4.94761715,-0.0458427366,14.0552006,1.11624444,-0.64717257,1.33236802
89697.645799,5.01019138,1.59348734,14.5022149,1.24405408,0.793232143,0.986974835
89697.655827,4.99832559,3.22064781,14.1145389,1.3738451,2.17601562,0.503028691
89697.665855,5.32820695,4.4019949,13.2860446,1.44131625,3.42606354,-0.0483516604
89697.675882,6.12698241,5.1754743,12.0647983,1.46988428,4.5096221,-0.617480636
89697.685911,6.95398619,5.84890022,10.7722521,1.42036009,5.48413754,-1.19475615
89697.695939,7.41965549,6.2942001,9.25750104,1.41813421,6.42394447,-1.73508489
89697.705966,6.80923052,6.21516339,6.95671942,1.53886652,7.29880857,-2.21152091
89697.715994,4.90290298,5.58302342,3.99793625,1.6143589,7.96349239,-2.62233925
89697.726021,3.0360932,4.73880109,0.344076472,1.53714883,8.19486618,-2.92086434
89697.736050,1.72619178,3.56134399,-4.30243357,1.13171446,7.6369729,-3.08349061
89697.746078,1.45924721,1.97758777,-10.7061532,0.799173772,6.2375598,-3.04639387
89697.756105,2.01393729,0.203136116,-18.0061161,0.682711661,4.03280354,-2.76979566
89697.766133,0.932148602,-1.55718107,-23.2583762,0.432061315,1.40205634,-2.37652755
89697.776161,-1.24311322,-3.64277841,-25.2243197,0.0886735842,-1.22719836,-1.72032332
89697.786189,-2.16077445,-5.83942044,-23.6673942,-0.457150608,-3.42028093,-0.777773917
89697.796217,-2.28378095,-6.96456721,-19.0421309,-1.24245799,-4.96089172,0.204669416
89697.806245,-0.852781635,-7.1087372,-14.2189638,-2.06094313,-5.93050051,1.06840503
89697.816272,0.888344312,-6.50641311,-9.99001685,-2.80062628,-6.47332144,1.69441569
89697.826300,1.76997378,-5.78033171,-6.56526745,-3.25978613,-6.74118662,2.06836009
89697.836328,2.27016655,-5.34283402,-3.97583255,-3.35390043,-6.79828167,2.24718261
89697.846356,2.77694601,-5.05004759,-1.69914084,-3.08686686,-6.65614223,2.25283861
89697.856384,3.23007936,-4.78444698,0.44835167,-2.53268957,-6.34580612,2.11610961
89697.866411,3.94875282,-4.63924181,2.59540052,-1.77838051,-5.91163063,1.90810585
89697.876439,4.76996049,-4.56429032,4.81402058,-0.909386754,-5.37185717,1.68563867
89697.886467,5.52615178,-4.34401354,7.07087245,-0.0864337832,-4.67523003,1.50592566
89697.896495,6.12471856,-3.71360493,9.22663594,0.641165018,-3.74677825,1.33442068
89697.906523,6.1872624,-2.54140736,11.3422837,1.16001344,-2.60432339,1.10463071
89697.916550,5.75824613,-0.943164794,13.3777818,1.46721685,-1.26544404,0.778166771
89697.926579,5.4511471,0.634338937,14.5492549,1.74407077,0.208203316,0.377592981
89697.936605,5.42037085,1.93615087,14.8448406,2.04307652,1.71754241,-0.0973474383
89697.946634,5.71889086,2.99428645,14.4173856,2.34155607,3.17786908,-0.684682071
89697.956662,6.42687078,3.81364702,13.549097,2.57173252,4.48532915,-1.32692432
89697.966690,7.40030139,4.46535473,12.3387474,2.72660923,5.6679244,-1.94879937
89697.976718,7.69478176,4.8803074,10.2806294,2.99737024,6.7938652,-2.56340981
89697.986744,6.45109805,4.87697972,7.30909727,3.3587513,7.74510431,-3.15553808
89697.996773,4.84178478,4.24100032,4.06693087,3.59846735,8.35567093,-3.64713693
89698.006801,3.93856724,2.65822494,0.64243398,3.38162899,8.47950172,-3.85970068
89698.016829,3.99381917,0.467398608,-3.7209664,2.63368654,7.82708979,-3.66046548
89698.026857,4.29147145,-1.91621225,-10.1268347,1.64215481,6.35540533,-3.03460693
89698.036885,3.39855084,-4.38298829,-17.0198629,0.405639827,4.21818781,-2.07192254
89698.046912,0.951681862,-6.82258392,-21.7850326,-0.953122556,1.72897434,-0.918088675
89698.056940,-1.74095782,-8.56982272,-24.1994213,-2.09758234,-0.750151992,0.423682719
89698.066968,-3.38670522,-9.11665873,-23.0073451,-3.03279543,-2.85098648,1.64852011
89698.076995,-3.03742475,-8.2676138,-19.0549764,-3.70932484,-4.45955086,2.5580411
89698.087024,-1.08307274,-7.07651017,-14.5665053,-4.08771992,-5.59768915,3.15205431
89698.097052,0.678722561,-5.63906679,-10.6808001,-4.05789423,-6.34029865,3.4130404
89698.107079,1.32303753,-4.28553329,-6.9768223,-3.76026154,-6.71680164,3.36504984
89698.117107,1.62533574,-3.41388607,-3.60280237,-3.20519161,-6.76903629,3.13353872
89698.127134,2.74430338,-2.63861803,-1.1340391,-2.26405859,-6.5511117,2.7665925
89698.137163,3.99340825,-1.72548158,1.31680624,-1.11767745,-6.09731817,2.22668481
89698.147191,4.38665324,-0.548026973,4.03357864,0.167824864,-5.46312332,1.52165401
89698.157219,4.13680579,1.25039198,6.37622196,1.48329306,-4.63745594,0.661866248
89698.167246,3.4875934,3.61531611,8.90496127,2.55508804,-3.5777595,-0.363221467
89698.177274,2.87071969,5.72374064,11.5209978,3.24667025,-2.2490449,-1.39892077
89698.187302,2.83776171,6.68772829,13.7515824,3.61456108,-0.802129388,-2.28314781
89698.197330,3.68242711,6.82211981,14.9791356,3.80925035,0.621242821,-2.99573016
89698.207358,5.03496284,6.87532942,15.3962657,3.86383724,1.98430324,-3.59885955
89698.217386,5.93991612,6.9216066,15.1558553,3.68712091,3.25726295,-4.11031437
89698.227413,6.60481678,6.63955141,14.8467087,3.11107445,4.38823366,-4.43976068
89698.237441,7.64313575,6.17723084,14.0542607,2.21383619,5.40124559,-4.50877285
89698.247469,8.47465204,5.50585367,12.8918197,0.966861308,6.32451582,-4.27932501
89698.257497,8.33617997,4.61973778,10.5314782,-0.235996425,7.23107576,-3.8212626
89698.267524,6.92652477,3.62447761,6.04273294,-1.32800937,7.94968605,-3.27365613
89698.277553,5.48946309,2.48555016,0.790702049,-2.41639447,8.13096333,-2.75374484
89698.287579,4.61450747,1.39901559,-6.74998396,-3.05560207,7.35936546,-2.33841181
89698.297608,2.70860196,0.387311949,-16.7849809,-2.82927155,5.51274443,-2.17050409
89698.307636,0.129314801,-0.832001736,-26.0879227,-1.83475244,2.7267859,-2.27627611
89698.317664,-1.41117876,-2.99533508,-31.6790616,-0.330746889,-0.386239618,-2.32715273
89698.327692,-1.78981289,-5.87084609,-30.920074,0.761112392,-3.13949704,-2.08828139
89698.337720,-2.05808652,-8.42155816,-24.5232465,1.17916238,-5.04506683,-1.4570924
89698.347747,-0.870778626,-10.7936398,-16.9336646,0.861863792,-6.10324526,-0.438787252
89698.357775,1.04641525,-12.5256985,-10.5670861,0.209981054,-6.5514698,0.797472835
89698.367803,2.3772156,-12.9427514,-6.03295096,-0.386789918,-6.60608673,1.97749162
89698.377831,3.28696299,-12.36259,-2.50137609,-0.804523766,-6.41343212,2.95447898
89698.387859,3.96017847,-10.9188373,0.0919084684,-0.932506263,-6.07141685,3.61628175
89698.397887,4.46802103,-9.13013138,2.36366039,-0.885664701,-5.65712309,3.97715759
89698.407914,4.60256744,-7.06135994,4.17907549,-0.651664972,-5.14186954,4.0578742
89698.417942,4.6771162,-5.10383121,5.97484949,-0.330424368,-4.50963402,3.9294591
89698.427969,4.79564262,-3.30298502,7.43605601,0.0600461662,-3.74319911,3.67500329
89698.437997,5.06495056,-1.37104841,8.6068177,0.462276697,-2.87044001,3.32198381
89698.448025,5.6751242,0.744372041,9.74961586,0.811260819,-1.96844912,2.85407948
89698.458053,6.26231034,2.94921513,10.4094721,1.21111333,-1.03498268,2.24002337
89698.468080,6.55867462,5.37491492,10.9471878,1.62466609,-0.0629132092,1.44890654
89698.478108,6.31824908,8.17575385,11.0658691,2.14783764,0.940651059,0.436623096
89698.488136,5.84643587,10.7200835,10.9919669,2.61264491,1.96220934,-0.767060757
89698.498164,5.83018499,12.3372358,11.249471,2.82797384,2.95145154,-1.98046172
89698.508192,6.33256753,13.0037708,11.4270242,2.73056817,3.86475158,-3.0519774
89698.518220,7.1124419,12.6451818,11.5947305,2.2130003,4.74624348,-3.86372757
89698.528247,7.59213329,11.3966945,11.0560562,1.57333767,5.61076641,-4.37279272
89698.538275,7.31880326,9.63289152,9.70194342,0.638027251,6.4445467,-4.59215307
89698.548303,7.3705995,7.5292136,7.49816906,-0.32246846,7.17734098,-4.51532507
89698.558331,7.13277332,5.59070404,3.05608619,-1.10090852,7.67110634,-4.333354
89698.568359,5.61642826,3.51843775,-2.02977564,-2.04687381,7.63016081,-4.12122917
89698.578387,4.70791027,0.506297809,-9.09792598,-2.60211921,6.78141689,-3.78926492
89698.588414,2.54714006,-3.09001184,-18.2664026,-2.57652044,4.89064837,-3.39004397
89698.598442,-0.117339847,-7.40230805,-26.600815,-1.85090899,2.09216666,-2.82464528
89698.608470,-2.19641392,-11.6692968,-31.4454002,-0.824747801,-1.00481653,-1.92383349
89698.618498,-2.94350815,-15.1339346,-30.2586547,-0.153149739,-3.77820826,-0.670592308
89698.628526,-2.73996126,-16.2759372,-24.0912474,-0.193489179,-5.78614902,0.752500355
89698.638554,-0.196466137,-15.5594642,-16.8719438,-0.847086132,-6.99159145,2.19397092
89698.648582,3.11558087,-13.7192349,-11.0586865,-1.66741455,-7.65983057,3.42248178
89698.658609,4.84492103,-11.210052,-7.0068825,-2.32884264,-8.0369854,4.26681757
89698.668637,5.81906622,-8.59964445,-4.07226288,-2.53830671,-8.20077991,4.69582367
89698.678665,7.31781951,-6.34188715,-1.82872408,-2.25871086,-8.18921185,4.74843645
89698.688693,9.18489874,-4.6711155,0.598364537,-1.50768352,-8.03519821,4.50242519
89698.698721,10.6570686,-2.75543297,3.1475323,-0.355572075,-7.67789984,3.97008514
89698.708749,10.5913461,-0.0744623166,6.38997226,0.868457794,-6.99633837,3.19086146
89698.718776,9.13655118,3.07599384,9.99792427,1.86450589,-5.83126831,2.17583346
89698.728804,6.92973672,6.03159838,13.6531103,2.51076889,-4.19043493,1.03329337
89698.738832,5.24152937,8.16640851,16.555984,2.8083415,-2.27541995,-0.0558452047
89698.748860,4.9091445,9.37031259,18.6309198,2.7673862,-0.29895103,-1.01042092
89698.758888,5.48266452,10.206491,19.2586086,2.44500089,1.50635374,-1.82570958
89698.768916,6.61938307,10.8050824,18.4018036,1.97204745,3.09184933,-2.52771521
89698.778943,7.78656807,10.9582727,16.7035325,1.27626359,4.47264862,-3.138834
89698.788971,8.76648979,10.5481897,14.5459979,0.619134784,5.6186018,-3.61307073
89698.798999,9.66865257,9.79185692,11.4953501,0.0862295628,6.60753822,-3.93810797
89698.809027,9.35447322,8.75632671,8.03900554,-0.268894434,7.50334787,-4.14836311
89698.819055,7.66570239,7.51668613,3.8264235,-0.550334394,8.09698868,-4.29704952
89698.829083,5.60243422,5.96093319,-1.17307289,-0.847420931,8.21026802,-4.41928434
89698.839111,3.7072313,4.14919269,-7.93908094,-0.936777174,7.48460817,-4.57438898
89698.849138,1.56486637,2.08952781,-17.1405222,-0.360105306,5.76915932,-4.77069378
89698.859166,-0.0406837921,-1.59133893,-26.230179,0.748348117,3.08512092,-4.79350853
89698.869194,-0.957868588,-6.64982497,-32.6163846,1.89802992,-0.242194548,-4.29478598
89698.879222,-0.712391606,-11.8501783,-33.0425875,2.28081846,-3.45552158,-3.02590966
89698.889250,-1.00663671,-15.7489755,-26.1002725,1.33087063,-5.69006395,-1.24406278
89698.899278,-0.45770519,-17.8656018,-17.0503235,-0.172227293,-6.87659502,0.832874537
89698.909305,1.47554587,-17.8740481,-10.4665986,-1.66510963,-7.39593935,2.74045134
89698.919333,3.8127565,-16.982879,-5.71651127,-2.72290373,-7.620121,4.36326504
89698.929361,5.51875582,-14.6446687,-2.77752527,-3.0946095,-7.67407274,5.41359615
89698.939389,6.79054043,-11.3915308,-0.199024443,-2.96856403,-7.6280508,5.88084173
89698.949417,7.99781194,-8.27674462,2.1435312,-2.48522162,-7.45455742,5.86185169
89698.959445,8.8701413,-5.41961565,4.94399253,-1.94893205,-7.04859161,5.4887476
89698.969472,9.61827613,-2.82268163,7.84617352,-1.31198668,-6.36768961,4.85290623
89698.979500,9.74404186,-0.683123353,10.435184,-0.562479436,-5.37316513,4.06013346
89698.989528,8.98028159,1.30610247,12.7674322,0.239039078,-4.00876904,3.14533138
89698.999556,8.05805627,3.35033159,14.8407594,1.06028259,-2.34799719,2.11536312
89699.009584,7.72744309,5.24126692,16.3808402,1.87164414,-0.547404289,0.955766916
89699.019612,7.72377697,7.03715255,17.4122349,2.58630013,1.28933823,-0.29877314
89699.029640,8.31465086,8.40563345,17.5287851,3.03204799,3.01465249,-1.55167675
89699.039667,9.23419966,9.04132555,16.8851411,3.25718045,4.56152201,-2.72623324
89699.049695,10.1903863,9.21705271,15.542229,3.21169019,5.92024422,-3.76660466
89699.059723,11.7797247,8.6971614,14.3458038,2.84167314,7.11519194,-4.56758308
89699.069751,13.3016093,7.60098588,12.9362386,2.3365705,8.22303963,-5.04854536
89699.079779,13.5461276,6.36895285,10.0906353,2.07840824,9.38433075,-5.27256823
89699.089807,11.6708037,5.00604712,6.36535336,1.75887263,10.3670397,-5.36084032
89699.099834,9.67176281,3.02930574,1.54225691,1.49145794,10.9266357,-5.26999569
89699.109862,7.70826201,0.34325215,-5.61395047,1.17816639,10.6071672,-4.99545145
89699.119890,5.43007158,-2.78279824,-15.2882308,1.04723227,8.91718578,-4.52812004
89699.129918,4.89776269,-6.75942048,-26.9795431,1.16513658,5.82717228,-3.73110247
89699.139946,1.5127862,-9.91149452,-35.3219377,1.34987521,2.08495164,-2.81837463
89699.149974,-1.20424603,-13.0639789,-38.1209394,0.958165288,-1.5753634,-1.43469179
89699.160002,-3.90053094,-15.1649633,-31.9397935,-0.296467483,-4.25598621,0.191953406
89699.170029,-3.60089333,-16.2182659,-22.8389162,-1.95064604,-5.88982677,1.98221338
89699.180057,-0.888942205,-15.9675914,-15.2737312,-3.54270887,-6.78886938,3.62097216
89699.190085,1.12723264,-13.8687007,-9.88630397,-4.69663858,-7.27899551,4.7726965
89699.200113,2.54983266,-11.1528191,-6.23437077,-5.2864995,-7.55397654,5.36003351
89699.210141,3.94097897,-8.7999677,-3.41294616,-5.27601814,-7.65857267,5.48616886
89699.220169,4.87470126,-6.97978582,-0.911401143,-4.76473379,-7.56846571,5.24829102
89699.230196,5.20804386,-5.61732901,1.46734342,-3.90804958,-7.31431723,4.77686167
89699.240224,6.20079934,-4.65876513,4.0862277,-2.84804249,-6.85757732,4.16851139
89699.250252,7.50760032,-4.0748038,6.95316202,-1.67422199,-6.16563845,3.5217824
89699.260280,7.75255591,-3.20769831,9.82177509,-0.53898102,-5.17069292,2.89038849
89699.270308,7.15334323,-1.53494878,12.4631231,0.456790358,-3.76284647,2.19643521
89699.280336,6.29208296,0.747981683,14.9801328,1.32322419,-2.08509278,1.32578194
89699.290364,5.38205836,3.79799908,16.1357396,2.23460317,-0.26746738,0.201453343
89699.300391,4.9552358,6.95682405,16.3272161,3.17695069,1.5485214,-1.17591012
89699.310419,5.26852025,9.08762495,15.8302042,3.960006,3.20709753,-2.63123631
89699.320447,6.84229634,9.75137878,14.8195927,4.40431452,4.60599089,-3.93661952
89699.330475,8.62507115,9.5534018,13.5956729,4.44663763,5.73308086,-4.9383707
89699.340503,9.85137411,8.70184693,12.3663883,4.11803627,6.7439785,-5.59180021
89699.350531,9.48382499,7.09944154,10.4937847,3.49206042,7.65169144,-5.83023643
89699.360558,7.87624425,4.71717553,7.67337599,2.51488495,8.37771034,-5.58992243
89699.370586,5.97191752,1.79165984,3.24973888,1.22266984,8.6571722,-4.90729666
89699.380614,4.42963986,-1.07028194,-3.82808354,-0.119230621,8.1158905,-3.92021775
89699.390642,3.44320335,-3.94530034,-12.8694979,-1.28699696,6.45802832,-2.69303942
89699.400670,2.57728327,-6.43080286,-23.8032955,-1.97534239,3.71916199,-1.46758211
89699.410698,-0.72983352,-7.64482911,-32.0547549,-2.26203489,0.310654551,-0.530541778
89699.420726,-3.44766471,-8.69439895,-34.496878,-2.39348578,-3.0389533,0.357912451
89699.430754,-3.42129225,-9.84594974,-29.7660781,-2.89399362,-5.57586241,1.3691566
89699.440782,-1.59175905,-10.7428635,-21.0961876,-3.82834935,-7.1878643,2.43853402
89699.450810,1.32503163,-11.3393248,-13.4336995,-4.67421389,-8.04318714,3.44248176
89699.460838,3.39078167,-11.420239,-7.97467247,-5.01166201,-8.38911819,4.17264938
89699.470865,4.22636682,-10.8028121,-4.18447881,-4.69509172,-8.43128586,4.55961132
89699.480894,5.09896155,-9.74805285,-1.08429863,-3.92755842,-8.23129368,4.62293386
89699.490921,6.12388503,-8.46912246,1.70614808,-2.85494804,-7.81501436,4.41421938
89699.500949,7.19182874,-6.94341745,4.47800817,-1.60345805,-7.19965696,3.9893961
89699.510977,7.73171829,-4.99933038,7.64018391,-0.482918024,-6.34201145,3.38049769
89699.521004,7.67614136,-2.29976981,10.8564572,0.505160034,-5.18083954,2.58791494
89699.531033,6.96077659,0.966693115,13.0250836,1.53491592,-3.71574903,1.53057849
89699.541061,5.87695434,4.67162783,15.0142444,2.45524955,-1.98976529,0.209035903
89699.551089,5.35046788,7.705309,16.6431187,3.22928524,-0.190315619,-1.26869619
89699.561116,5.66831452,9.6131487,16.8970209,3.92721343,1.50829887,-2.7609272
89699.571144,6.73463325,10.7624894,16.0467169,4.49388742,2.97489738,-4.2309494
89699.581172,8.07474204,11.0001958,14.6677982,4.84787035,4.17570019,-5.59302759
89699.591200,9.04257351,10.2213005,12.9883815,5.0387907,5.18489695,-6.70362616
89699.601228,9.28659269,8.38510679,11.0821247,5.01750469,6.05948257,-7.42766523
89699.611255,9.20397052,5.64698239,9.37486602,4.66019344,6.84896469,-7.64389658
89699.621284,8.19258048,2.19998579,7.05481213,3.9231317,7.53515244,-7.28969002
89699.631311,6.40348523,-2.04159731,3.67410411,2.74534392,7.90508461,-6.28139687
89699.641339,5.49930118,-6.27906156,-1.72812377,1.37937212,7.56959486,-4.70897198
89699.651367,5.11884231,-9.89386067,-8.89290434,-0.208428413,6.30130625,-2.78127599
89699.661394,3.60403455,-12.4773399,-16.5449166,-1.97203207,4.16482449,-0.862645447
89699.671423,-0.26586664,-12.9404227,-23.0768915,-3.22087622,1.50306094,0.827537477
89699.681451,-0.515418324,-13.3038982,-27.8100551,-3.93211007,-1.48817492,2.40796924
89699.691479,-1.44123064,-12.0061381,-25.88659,-4.49283981,-4.0551548,3.52554393
89699.701506,-0.877351501,-10.1860655,-19.6233491,-5.02422762,-5.85101795,4.38858557
89699.711534,1.78172355,-8.99832228,-12.7592957,-5.48351526,-6.93348742,5.04112005
89699.721562,3.49657517,-7.91660724,-7.02111736,-5.58854103,-7.45395231,5.43726254
89699.731590,4.30413044,-6.8796543,-2.550881,-5.26739264,-7.49931145,5.55824041
89699.741618,4.8679889,-5.87734597,1.36669576,-4.71490145,-7.20122671,5.44919062
89699.751646,5.62701337,-4.50636625,4.37229329,-3.92667675,-6.63822269,5.11410189
89699.761673,6.70416914,-3.06160262,6.90023064,-2.89839268,-5.91916418,4.54840088
89699.771701,7.40331577,-1.20468237,9.16640681,-1.60655582,-5.04337692,3.73195028
89699.781729,7.44856712,1.50522161,11.1992126,-0.0877387449,-3.88889408,2.61346793
89699.791757,6.40865007,5.28860208,13.4978566,1.5127424,-2.40498662,1.08240736
89699.801784,4.44898256,9.7438063,15.923121,2.90809345,-0.493930101,-0.879191399
89699.811813,2.93324366,13.0496452,18.546599,3.9096849,1.57655883,-3.00381541
89699.821841,4.00824488,13.7350205,18.5962307,4.86146784,3.46719766,-4.91818142
89699.831868,6.66740271,13.2872663,17.1782543,5.50409174,5.00526333,-6.61860847
89699.841896,8.79950768,12.1142968,14.9461008,5.87999344,6.18214607,-8.01040649
89699.851923,10.30268,9.60700596,12.6240408,5.96375227,7.0615449,-8.88130379
89699.861952,10.807618,5.66713495,10.7316921,5.42154837,7.77209806,-9.02737141
89699.871980,10.5078892,0.882224587,8.69622734,4.16102219,8.27695656,-8.35269547
89699.882008,9.98623149,-4.08454632,4.74935083,2.37612295,8.30890465,-6.87530231
89699.892036,9.75842227,-9.65490344,-1.02936292,0.101102546,7.6275959,-4.65421581
89699.902063,8.66355841,-13.7978005,-9.53469944,-2.00852084,6.02231503,-2.1285646
89699.912091,5.04905449,-14.603419,-18.6422899,-3.71446061,3.65645504,0.070949927
89699.922119,0.512949815,-13.2310271,-24.7708125,-4.90288258,0.822877884,1.6559937
89699.932147,-2.77849967,-11.4175725,-26.9028818,-5.47848415,-1.97336614,2.75121903
89699.942174,-3.14459479,-10.1607382,-24.1622341,-5.75223589,-4.19584703,3.57631254
89699.952203,-1.95136846,-9.1253646,-18.4283841,-6.03158712,-5.70170498,4.19792461
89699.962231,-0.517345492,-7.95742849,-12.6274427,-6.28450155,-6.59557295,4.63237238
89699.972258,0.822270031,-7.04010088,-7.86525582,-6.34943581,-6.97555923,4.88007021
89699.982286,1.59294212,-6.38436377,-4.34035735,-5.98288202,-7.03657627,4.88893366
89699.992313,2.41115075,-5.72795212,-2.16844703,-5.05453777,-6.90423822,4.69480085
89700.002342,3.48568377,-4.72159422,-0.415720736,-3.69334054,-6.63354731,4.25348234
89700.012370,4.867075,-3.0352737,1.6212077,-2.0102694,-6.24614,3.52128267
89700.022398,6.08675854,-1.04945089,4.12078112,-0.125657365,-5.65329313,2.52700281
89700.032426,5.39179475,2.49954127,7.09133773,1.72624862,-4.72352457,1.12572289
89700.042453,2.8935064,7.87971748,10.4043797,3.22870874,-3.38098264,-0.770231903
89700.052481,1.56076463,12.107106,13.7798019,4.34900379,-1.67880642,-2.86710119
89700.062509,2.03105808,13.9379081,15.7454929,5.3499136,0.0773499086,-4.87087297
89700.072537,3.4675896,14.5881852,17.1290902,5.99128151,1.70952439,-6.72899675
89700.082565,5.70369855,13.9957512,17.2422922,6.28147268,3.13276649,-8.24949741
89700.092593,8.48667858,11.6165472,16.2371086,5.95346689,4.28287172,-9.15710449
89700.102621,10.5513005,7.65028094,15.1471904,4.97559929,5.27677679,-9.22677994
89700.112648,10.7345364,2.62926743,13.5769799,3.37299275,6.2024169,-8.42306805
89700.122676,9.41814402,-2.31052735,10.3709685,1.34971356,6.92122269,-6.83937836
89700.132703,8.46052005,-7.5384017,6.32443332,-1.29691195,7.21773386,-4.53004169
89700.142732,8.24490688,-12.0144628,-1.11587625,-3.43398809,6.75489092,-1.78658783
89700.152760,5.9024962,-12.8065134,-13.4402497,-4.58426476,5.06119013,0.583686173
89700.162788,0.986788831,-10.9555874,-24.223838,-5.01005077,2.19083452,2.00723314
89700.172816,-3.0626229,-8.35489344,-32.1272333,-4.66301537,-1.31576931,2.6572597
89700.182842,-3.06285963,-6.64265347,-33.3610655,-4.24801445,-4.57322073,2.96157479
89700.192871,-0.80958123,-6.29025048,-26.5759213,-4.21207762,-6.85426331,3.26262331
89700.202899,1.76233715,-7.21680419,-17.7572735,-4.17118359,-8.15207481,3.65013695
89700.212927,3.76358038,-7.90411834,-10.3860152,-3.70597005,-8.69534492,3.91816258
89700.222955,4.80819815,-7.69305801,-4.62387794,-2.81437707,-8.66431808,3.96534038
89700.232983,5.55748215,-6.73843498,-0.094275782,-1.47911859,-8.23677158,3.73328424
89700.243011,6.1873606,-4.67216062,3.32180517,0.116714098,-7.46538162,3.20523167
89700.253038,5.16035915,-0.723612965,6.84204499,1.50029635,-6.33224106,2.20061207
89700.263066,2.83825943,4.5269686,10.6006412,2.44653821,-4.82474613,0.697003603
89700.273093,1.56295717,8.22400145,14.0874241,3.09968352,-3.05565286,-0.919656336
89700.283122,2.08564834,9.78203871,16.2264948,3.63416076,-1.18480456,-2.44983172
89700.293150,2.99388955,10.8753021,17.8567252,3.87097573,0.614703894,-3.88142991
89700.303178,4.96910534,10.3663449,18.1888576,3.85651088,2.17021298,-4.9732976
89700.313206,7.61774646,8.17772486,17.3051891,3.43457627,3.51612687,-5.5741744
89700.323232,9.83388404,5.32254761,16.4662762,2.62463093,4.6673193,-5.62667274
89700.333261,11.8431734,2.58556887,15.5896793,1.44013107,5.6888442,-5.15691376
89700.343289,13.6521751,0.456032872,14.8540468,-0.0653995126,6.65738058,-4.25221539
89700.353317,15.0128368,-0.251926012,13.5248849,-1.79649568,7.62895584,-3.10853434
89700.363345,15.1108308,0.141450206,11.3818044,-3.42999148,8.59533787,-1.85313523
89700.373373,12.9283792,0.849275088,6.15747575,-4.36495924,9.52007484,-0.774920464
89700.383401,8.77925575,1.88809572,-0.581861731,-4.53369856,9.91779232,-0.169034004
89700.393428,4.23796812,3.09892346,-9.1492733,-3.90699697,9.30637264,-0.267316371
89700.403456,-0.701430505,4.16671461,-19.5259467,-2.44411373,7.27291155,-1.03729081
89700.413484,-2.06449741,3.70257237,-31.6543925,-0.0612013042,3.87550545,-1.89635384
89700.423511,-0.995481037,1.3221986,-39.4664317,1.94240987,-0.263410032,-2.45577049
89700.433539,-1.22765233,-1.81767194,-37.8484003,2.51339531,-3.87354255,-2.33401775
89700.443567,-2.34481643,-5.48504002,-28.8861857,1.59545779,-6.21093941,-1.48492241
89700.453595,-1.50706928,-10.003455,-19.3156872,-0.18244198,-7.37331009,0.0160823129
89700.463622,0.515183346,-14.0400778,-13.1188573,-1.78764153,-7.81027842,1.8526938
89700.473650,1.88627786,-16.0858916,-9.26585678,-2.70760989,-7.88998175,3.53145909
89700.483678,2.70435628,-15.8019168,-6.59774816,-2.95834112,-7.81902504,4.70613861
89700.493706,4.05449079,-14.1034108,-4.90188065,-2.58978915,-7.73110485,5.33061504
89700.503734,5.49048425,-11.8740911,-3.5020156,-1.82331955,-7.66705036,5.48258686
89700.513762,6.72209409,-9.12514482,-1.86566352,-0.900882423,-7.56528091,5.27748632
89700.523790,7.75520788,-6.20776918,0.513212557,-0.0527297929,-7.32686758,4.90029812
89700.533817,7.98963682,-3.60535557,3.29514337,0.58224076,-6.83819771,4.44670677
89700.543845,8.09868639,-1.22478086,5.77806435,1.13811576,-6.13023186,3.93715239
89700.553873,8.37389332,1.34701696,7.58064744,1.67862058,-5.22928238,3.28027391
89700.563901,8.87573576,4.17564727,9.22373438,2.18950582,-4.20588064,2.41257215
89700.573929,9.22126068,6.82714611,10.9041109,2.5482533,-3.0826273,1.29630709
89700.583957,9.62226374,9.25139454,12.317576,2.94135213,-1.93099678,0.0196847692
89700.593985,10.0101875,11.5583043,13.1288713,3.26360536,-0.785736918,-1.39890277
89700.604013,10.4215179,13.5552707,14.400791,3.55492926,0.382869899,-2.9092586
89700.614040,11.0697691,14.8025527,15.4778708,3.75187016,1.62243319,-4.40107155
89700.624068,11.5473983,15.0999072,16.9334261,3.66381526,2.99903584,-5.72635603
89700.634096,12.3057313,13.9062901,17.9019672,3.28799796,4.42741728,-6.66241169
89700.644124,13.6197201,11.5039169,18.0043708,2.52356172,5.86982632,-7.07587814
89700.654152,14.7980671,8.46087837,17.218591,1.48838937,7.32647943,-6.91667843
89700.664180,14.3112563,5.5030012,14.6282775,0.37878567,8.8404398,-6.33532906
89700.674208,11.5430483,2.54391847,9.83831472,-0.556519151,10.1916189,-5.53997898
89700.684235,8.65546629,-1.02357265,2.90489844,-1.33246434,11.0527124,-4.6216259
89700.694263,6.96065851,-5.80540127,-5.02631542,-2.05989838,10.7426414,-3.52756834
89700.704291,6.78054043,-10.1783755,-18.2400114,-1.54899192,8.70469189,-2.21691203
89700.714319,5.65187308,-12.9527035,-33.4768101,-0.612806439,4.94610643,-1.16743231
89700.724347,0.297538118,-13.5481699,-41.2648606,-0.139855102,0.629762471,-0.50361228
89700.734375,-3.19084041,-14.4058073,-39.9109068,-0.145712197,-2.97356725,0.485803455
89700.744403,-4.04236517,-15.9347892,-30.7252528,-0.939621806,-5.30331135,1.7527616
89700.754430,-3.08549962,-16.3319391,-20.8705879,-1.82248867,-6.57856989,3.05567479
89700.764458,-0.895604732,-15.4992923,-14.0497903,-2.50311375,-7.19800901,4.15388775
89700.774486,0.0563256983,-13.2292267,-9.36884077,-2.85579944,-7.47554207,4.8627677
89700.784514,1.21559306,-10.4905266,-5.65477231,-2.98875523,-7.54628468,5.16486025
89700.794542,2.97175809,-7.8733947,-3.01623349,-2.78635931,-7.50480556,5.13640928
89700.804570,4.33896444,-5.45365996,-0.593498977,-2.42342615,-7.33486557,4.85645103
89700.814598,5.81019376,-3.57042951,1.90402862,-1.91306043,-7.04786205,4.45015287
89700.824625,7.6218007,-2.07167841,4.12066539,-1.29179502,-6.65115452,3.98798561
89700.834653,9.59602514,-0.563073078,6.17847528,-0.532565653,-6.07122135,3.4424994
89700.844681,11.0545738,1.49339235,8.3762922,0.266211718,-5.24213457,2.75479364
89700.854709,11.4872662,4.07887704,10.8344195,0.953642309,-4.0645957,1.92005479
89700.864737,11.2670826,6.74746818,13.408848,1.48070478,-2.65595746,0.956003726
89700.874765,10.886117,9.43823521,15.7778345,1.74252343,-1.06544626,-0.141839951
89700.884793,10.6373,11.6646463,18.5357736,1.57966149,0.692876995,-1.25716484
89700.894821,11.3168289,12.881338,20.711481,1.30944014,2.57313943,-2.31729078
89700.904848,11.8168535,13.6241554,22.2924444,0.86542213,4.68503809,-3.38276958
89700.914876,13.0265286,12.9425912,22.3014039,0.366967082,6.85558367,-4.23954201
89700.924904,15.2283103,11.0422393,20.353763,-0.211250991,8.90011787,-4.78050327
89700.934932,17.6519742,8.77527515,16.9534273,-0.693003237,10.7890596,-4.9946146
89700.944960,18.0307502,6.8776944,10.764416,-0.574702442,12.4968872,-5.12096119
89700.954988,15.3956379,4.76597989,3.67277432,-0.180499211,13.8022881,-5.29886103
89700.965016,12.5462959,1.8077453,-3.58714303,0.0231532566,14.0454664,-5.52471018
89700.975043,10.5512058,-2.15909848,-13.9873002,0.697491229,12.3330917,-5.57598162
89700.985071,11.4676531,-7.53897336,-32.4076682,2.35319519,8.34262753,-5.1370554
89700.995099,7.2075249,-12.0258142,-44.6988191,3.97584128,3.27948952,-4.61257172
89701.005127,1.732866,-15.2401983,-46.1801753,4.52033043,-1.23513174,-3.3611784
89701.015155,-2.69853152,-18.2180416,-36.4652905,3.15679526,-4.31494808,-1.63997185
89701.025183,-4.0048567,-20.0591616,-24.4387877,1.0354315,-5.98136091,0.518654108
89701.035211,-0.881434752,-20.5658228,-16.0468233,-1.05523813,-6.75000143,2.65996194
89701.045239,0.679812109,-18.5228826,-10.9048088,-2.54892945,-7.15379,4.2730794
89701.055266,1.78397557,-14.9149388,-8.17101338,-3.24883819,-7.47213888,5.20886803
89701.065294,3.61049527,-11.2788105,-6.27216421,-3.27991629,-7.75488424,5.5424037
89701.075322,5.49710572,-8.13993376,-4.39182685,-2.6937983,-7.92759371,5.40033674
89701.085350,6.48431584,-5.62948823,-2.25529296,-1.73116755,-7.98267317,4.95909977
89701.095378,7.31428607,-3.43861602,0.379223774,-0.673513412,-7.87713861,4.39553881
89701.105406,8.15259977,-1.43751235,3.67775795,0.0882928446,-7.50396299,3.84176397
89701.115434,8.94612447,0.0864412342,7.15390028,0.511249185,-6.82598639,3.40408301
89701.125461,9.94093806,1.146662,10.0636035,0.776297092,-5.83806753,3.10836744
89701.135489,10.6595528,2.62237942,12.0996733,1.03725231,-4.57040977,2.80161524
89701.145517,11.027915,4.84095944,13.7789965,1.13353539,-3.11865497,2.34639382
89701.155545,11.1109428,7.40235248,15.3167812,1.06712949,-1.64937818,1.66381764
89701.165573,11.3283428,9.90534886,16.2024137,1.0239042,-0.200796992,0.767005324
89701.175601,11.650384,12.0532505,17.5537488,0.764367998,1.25176561,-0.272268802
89701.185629,11.9756541,13.3365637,18.978701,0.326370656,2.83614659,-1.30664957
89701.195657,12.4453759,13.4265333,19.68774,-0.268221587,4.57722044,-2.25349283
89701.205684,12.9528964,12.3062187,19.3480568,-0.772839248,6.39744949,-2.97512031
89701.215712,14.0841929,10.0762397,17.4612143,-1.14944661,8.20976639,-3.41171145
89701.225740,14.3973318,7.92698425,13.583869,-1.13214934,9.95858479,-3.70056033
89701.235768,12.4247925,5.9666013,7.22669839,-0.594449639,11.4407463,-4.00690746
89701.245796,9.14428733,3.46335766,-0.0729489164,0.184171841,12.3012352,-4.43858862
89701.255824,5.79026624,0.0279718566,-7.59203743,0.535504043,11.6967649,-4.86673689
89701.265852,5.12219981,-3.95317912,-20.8461549,1.97776818,9.19074726,-4.81095409
89701.275879,7.4851804,-9.297525,-37.8536914,3.70597291,4.7250843,-4.2211957
89701.285907,3.50865869,-13.5287077,-45.0833971,4.14160109,-0.0886945352,-3.36299539
89701.295935,-2.32375157,-16.6554263,-39.810701,3.11047316,-3.62361121,-1.81681311
89701.305963,-3.91558354,-20.3941745,-28.1849722,1.09907889,-5.63030863,0.378400773
89701.315991,-2.09719805,-22.1235643,-18.0846712,-0.951633573,-6.5391221,2.67581153
89701.326019,0.00959419617,-21.0866108,-11.8325047,-2.2744875,-6.91928339,4.52723932
89701.336047,1.24036071,-17.7385209,-8.23748111,-2.82228255,-7.19494104,5.65470409
89701.346074,3.244349,-13.3676158,-5.67920591,-2.7230432,-7.42210388,6.13071871
89701.356102,4.71334048,-9.17681831,-3.24594182,-2.2517848,-7.52732897,6.06811333
89701.366130,5.35922635,-5.81172872,-0.733856711,-1.50472748,-7.45401478,5.66417217
89701.376158,6.23005057,-2.93660232,1.68906777,-0.636363804,-7.18942928,5.06215811
89701.386186,7.28834324,-0.186197548,4.40002184,0.115655087,-6.6935215,4.31972408
89701.396214,8.35596078,2.6174785,7.53462452,0.518067241,-5.99235249,3.55380011
89701.406242,10.0479547,5.1595829,10.7136199,0.685265005,-5.03909969,2.81380272
89701.416270,11.0559931,7.75767223,13.3830565,0.764464498,-3.77636909,2.00571609
89701.426298,11.1005161,10.5133919,15.9960003,0.785400689,-2.25153565,1.06314445
89701.436326,10.6553127,12.9089286,18.1220841,0.722681403,-0.484305233,-0.0419789553
89701.446354,11.3947048,14.0782436,20.017546,0.731097221,1.48227334,-1.16285741
89701.456382,11.3693529,14.8653409,21.3323181,0.580402792,3.58523703,-2.36569071
89701.466410,12.6995868,13.8377678,21.1608778,0.3800942,5.60749578,-3.3135047
89701.476438,14.9467087,11.3564736,19.2912998,0.0859118402,7.37588882,-3.92304158
89701.486466,16.9225704,8.79363206,16.7573751,-0.36149627,8.92967892,-4.17795515
89701.496494,17.9729305,6.56598232,13.4414456,-0.612967372,10.3559427,-4.19091225
89701.506521,16.004394,4.45643522,7.92318954,-0.3285743,11.6348896,-4.17362785
89701.516549,11.7492278,2.21031034,1.24721891,0.183535874,12.3647614,-4.30707407
89701.526577,8.0421035,-0.579871068,-5.96685264,0.646016419,11.9634056,-4.50432348
89701.536605,5.78852027,-3.81094565,-16.4329632,1.83763182,9.99751472,-4.51180649
89701.546633,5.94377455,-8.02349934,-31.3240605,3.62666273,6.38074398,-4.09760284
89701.556661,3.80327877,-12.3609943,-40.4876896,4.45560741,1.90658092,-3.41932201
89701.566689,-1.36742978,-15.0430706,-40.0495928,4.00542498,-1.93288565,-2.2111721
89701.576716,-4.49199285,-18.2302604,-31.1615657,2.25882268,-4.38356924,-0.373019189
89701.586744,-3.94279538,-20.5930569,-21.4861806,0.102318242,-5.69202471,1.76475215
89701.596772,-1.38592303,-20.6184345,-15.1770314,-1.51000476,-6.38821697,3.63856244
89701.606800,0.742890205,-18.4864564,-11.6757815,-2.24206758,-6.86782169,4.95353222
89701.616828,1.65695531,-14.3979245,-9.4983714,-2.32725883,-7.27415228,5.54509354
89701.626856,3.23881007,-10.0387578,-7.38773943,-1.93781209,-7.56489611,5.59591293
89701.636884,4.59839747,-6.30044805,-4.94020892,-1.32272017,-7.71773911,5.27670956
89701.646912,5.78703208,-3.40165027,-2.51901871,-0.484988928,-7.70550108,4.75921917
89701.656939,7.31060358,-1.20611883,0.53678048,0.355674893,-7.39966679,4.18792152
89701.666967,8.22553524,0.607794629,4.03626276,1.02025175,-6.77007151,3.65469289
89701.676995,8.92448255,2.52153771,7.6215967,1.20300829,-5.81144905,3.08987999
89701.687023,9.96232221,4.88498387,10.9794277,0.967172086,-4.70261908,2.50480819
89701.697051,10.4507978,7.40766169,13.1553782,0.652997613,-3.55734849,1.89289272
89701.707079,10.5100414,9.75380981,15.3327176,0.184287682,-2.30672097,1.20567095
89701.717107,10.9437929,11.7795715,17.5971402,-0.378390044,-0.847536981,0.437703758
89701.727134,11.0450239,13.6549679,19.7900734,-0.875683427,0.893664896,-0.43981126
89701.737162,11.1658949,14.6890947,21.3877167,-1.2176789,2.95307636,-1.40011096
89701.747190,12.527479,14.2065567,21.5038262,-1.24459553,5.16035128,-2.3768847
89701.757218,14.0003958,12.8658201,20.6705481,-1.21409643,7.30969143,-3.26272631
89701.767246,16.0815229,10.5428717,17.9928989,-1.12074411,9.23880386,-3.86492419
89701.777274,17.059815,8.18159907,13.7284038,-0.861791313,10.9568253,-4.22084808
89701.787302,15.3438235,6.36521775,7.64164113,-0.179780543,12.4227304,-4.55673027
89701.797330,10.9721048,4.42811747,0.061391165,0.909127414,13.3181496,-5.12271881
89701.807357,6.1885425,1.60979769,-8.09527804,1.5815798,12.7188473,-5.85533714
89701.817385,4.40920556,-2.74436184,-21.816017,3.39585376,9.93534184,-6.08982658
89701.827413,7.97755417,-10.1147842,-41.3197214,5.25960302,4.71814585,-5.31610346
89701.837441,5.41466358,-16.086012,-47.9222703,5.91077662,-0.628309071,-3.97219682
89701.847469,0.818793879,-19.6120035,-42.133086,4.46358347,-4.59003925,-1.85548222
89701.857497,-1.45623663,-22.853202,-27.9564218,1.4487834,-6.73613071,0.776173949
89701.867525,1.09660354,-24.2123346,-17.4181023,-1.48713887,-7.74125671,3.48927331
89701.877553,4.74803507,-22.1687993,-11.0509521,-3.4308095,-8.28555298,5.61384916
89701.887580,6.54306906,-17.725984,-7.24594553,-4.28880787,-8.67573738,6.78420544
89701.897608,8.26573047,-12.8116829,-4.41042925,-4.08175802,-8.91932583,7.14594078
89701.907636,9.90006595,-8.46420897,-1.42812375,-3.40458751,-8.93051243,6.94108677
89701.917664,10.2037601,-5.01099276,1.79190446,-2.35678768,-8.69187927,6.35092878
89701.927692,10.5762315,-2.23925353,4.68692681,-1.14070189,-8.22166252,5.55215836
89701.937720,11.1946323,0.28163631,8.35080003,-0.186750844,-7.42835808,4.71472788
89701.947748,11.6440396,2.97028013,12.1414806,0.448183239,-6.18604422,3.90414333
89701.957776,11.5702028,5.84831043,15.2408834,0.936976373,-4.59056616,3.0342257
89701.967803,11.1626975,9.18113384,17.8176043,1.24079132,-2.82093096,1.98248315
89701.977831,11.2159206,12.6547855,19.8141557,1.23161244,-1.02233136,0.708291292
89701.987859,11.2365776,15.4707045,21.5116307,1.1785301,0.906232834,-0.69296819
89701.997887,11.9873819,16.7447062,22.494848,0.797266126,2.8887682,-2.12897682
89702.007915,12.780695,16.8291591,23.122573,0.553127766,5.00651121,-3.48827457
89702.017943,14.9517835,14.814477,21.3380417,0.501755953,7.02588177,-4.64055109
89702.027971,16.3005362,11.9010901,18.0679434,0.631854534,8.88652897,-5.47095251
89702.037999,16.1091953,8.42417448,13.0800907,0.972227812,10.413969,-5.96286726
89702.048026,14.1850171,4.84133879,6.83756989,1.50912452,11.4649458,-6.25237465
89702.058054,11.4663742,0.868533842,0.677648502,1.85448754,11.8161001,-6.34658718
89702.068082,8.53940596,-3.58861252,-6.39958238,1.9021163,10.9498186,-6.18481064
89702.078110,6.91212215,-8.6577845,-18.1756801,2.6254518,8.66919899,-5.36129522
89702.088138,8.47781781,-15.1754099,-30.8605767,2.80216527,4.9053216,-3.83332872
89702.098166,4.46669884,-19.0000746,-37.3299317,2.15397453,0.757548571,-2.07177067
89702.108194,-1.81832193,-20.4649461,-35.2182552,0.681458592,-2.53435493,-0.073403731
89702.118221,-3.44719446,-22.0966693,-26.867572,-1.12303126,-4.61767387,2.0682416
89702.128249,-1.50230221,-21.8210345,-19.6100173,-2.44145656,-5.89217138,3.95718193
89702.138277,1.04171387,-19.420582,-14.2551094,-3.03498864,-6.69494677,5.29435587
89702.148305,2.5781168,-15.6172488,-10.3402215,-2.97851133,-7.21687841,6.015028
89702.158333,3.80921108,-11.3052098,-7.04594902,-2.63106155,-7.55326557,6.19311762
89702.168361,5.17716766,-7.64273652,-3.80489497,-2.07995296,-7.72320271,5.9587636
89702.178389,6.83156685,-4.88601117,-1.44642689,-1.06169009,-7.70005178,5.44175196
89702.188417,8.62946968,-2.29077986,1.1896663,0.183271959,-7.43197918,4.77346134
89702.198444,9.38384369,1.31079092,4.82114941,1.13233674,-6.77636099,3.99925613
89702.208472,9.36765711,5.54748917,9.02157047,1.542292,-5.73358107,3.05703998
89702.218500,9.29092166,9.67014543,13.0504718,1.58169937,-4.40941334,1.94949722
89702.228528,9.46463747,13.1363766,16.370652,1.35076678,-2.87436938,0.759544611
89702.238556,9.85470354,15.4235243,20.0371205,0.906718791,-1.08241224,-0.460755825
89702.248584,9.78090532,16.6490819,23.0324631,0.504181981,1.12634408,-1.73448312
89702.258612,9.733825,16.3770735,24.6905273,0.117337108,3.59585905,-3.0027256
89702.268640,11.2836737,14.3415742,24.0245277,0.087945126,6.01120567,-4.02509212
89702.278667,14.5809804,11.158254,20.7542119,0.000857894309,8.04391766,-4.67027712
89702.288695,17.1009115,7.92301477,16.8958998,-0.111937895,9.74162388,-4.89927483
89702.298723,16.9377001,5.03085189,11.8926707,-0.078485392,11.1231804,-4.8648262
89702.308751,14.2063626,2.44096721,5.89059533,0.186900198,12.1624832,-4.76003933
89702.318779,10.5953805,-0.489851263,-0.297674787,0.295311362,12.4409237,-4.64829922
89702.328807,7.767273,-3.95764223,-7.95377523,0.553657651,11.4373407,-4.3720932
89702.338835,6.50894701,-7.62088008,-22.3048596,1.93017614,8.76137924,-3.69297647
89702.348863,6.04983429,-11.7993366,-36.9460668,3.19432783,4.36684561,-2.84828067
89702.358890,1.48916391,-14.1240643,-43.4093685,3.47998977,-0.267324418,-1.85475814
89702.368918,-2.71514305,-15.6550347,-39.1321974,2.50128579,-3.73770356,-0.454939723
89702.378946,-3.48536842,-18.045859,-28.6038873,0.656447411,-5.82377768,1.35864532
89702.388974,-1.28143433,-19.1536741,-19.9603423,-1.05080044,-6.92119217,3.20442986
89702.399002,0.48514082,-18.222664,-13.9327737,-2.21649408,-7.4967761,4.65138721
89702.409030,1.70589236,-15.3735757,-9.99737248,-2.56229806,-7.82633877,5.51693106
89702.419058,2.81280467,-11.1344359,-6.47369508,-2.57666063,-7.91204548,5.74469995
89702.429085,3.81996249,-7.34929601,-3.26577056,-2.11279917,-7.80917978,5.49613428
89702.439113,5.3831146,-4.8798734,-0.842908037,-1.00906253,-7.54527092,4.94319534
89702.449141,6.61237114,-2.80691094,2.47745687,0.250555068,-6.98196316,4.31072712
89702.459169,7.09472679,-0.311666779,6.94978524,0.999702275,-6.0458045,3.71224046
89702.469197,8.01652541,2.420824,11.5992384,1.01280904,-4.85686445,3.16485405
89702.479224,9.55493559,5.64846532,15.0894045,0.765369415,-3.57690334,2.62009072
89702.489253,10.8087847,9.52237947,17.4084823,0.396309346,-2.12379718,1.94102001
89702.499281,11.5315414,12.9780717,20.0179622,-0.0597844124,-0.493251562,1.03452373
89702.509309,12.2907768,15.4698499,21.904392,-0.528369248,1.32468772,-0.0732541606
89702.519336,13.3431033,16.8342526,23.3618295,-0.915958762,3.34910464,-1.27713025
89702.529364,14.4927597,17.0935617,24.7379577,-1.23708618,5.73930311,-2.47480392
89702.539392,14.9806566,14.911213,21.7811046,-0.98387897,8.03904438,-3.42299724
89702.549420,13.8484856,11.1525561,15.3177281,-0.181913778,9.79008961,-4.18294954
89702.559448,12.1029115,6.97063922,6.86662121,1.07580805,10.8538771,-4.81927109
89702.569476,10.3801618,2.71573838,0.721888041,1.64496577,10.6034851,-5.20496941
89702.579504,10.608095,-1.32639006,-6.53405281,2.12743282,9.10618305,-5.09222555
89702.589532,10.3161053,-4.5963306,-16.4013651,2.56243062,6.78345299,-4.49467659
89702.599559,7.53387926,-7.69990393,-21.6326314,2.12389874,3.9533112,-3.56309271
89702.609587,2.99464242,-10.2726776,-22.7000151,1.10877609,1.29318094,-2.3388083
89702.619614,-0.64540832,-11.9650555,-19.5829072,-0.223257497,-0.60283637,-0.960779786
89702.629643,-2.47217396,-12.430017,-14.4883418,-1.31607127,-1.75227928,0.325291902
89702.639671,-2.24013367,-11.7812468,-10.2315787,-1.88949263,-2.32233405,1.27205718
89702.649699,-1.58569259,-10.5269867,-6.56242842,-1.94430637,-2.4714334,1.86606991
89702.659727,-1.85986945,-8.70680835,-3.74000603,-1.6248759,-2.31090331,2.15983391
89702.669755,-2.69871272,-6.12472908,-1.46881115,-1.24689054,-1.93426085,2.17092133
89702.679782,-3.28458398,-3.3101761,0.291159706,-1.04059017,-1.47967327,1.94652748
89702.689810,-3.01732011,-1.10888566,0.949208604,-0.849313974,-1.07108605,1.60957813
89702.699838,-2.34230386,0.274878104,0.842945447,-0.657076597,-0.748322487,1.2522397
89702.709866,-1.78538865,0.935583545,0.448207878,-0.459923029,-0.54883945,0.947418511
89702.719894,-0.9601963,1.19522744,-0.380158424,-0.28741464,-0.499203742,0.709752202
89702.729922,-0.0797466137,1.2747382,-0.926451998,-0.134574234,-0.563693523,0.54491955
89702.739949,0.438573788,1.25162883,-1.30620418,0.00367818191,-0.687283337,0.433337659
89702.749978,0.818624587,1.26362614,-1.30636668,0.113437437,-0.814811766,0.364483505
89702.760004,1.16672871,1.34739193,-0.90559158,0.181380004,-0.914436638,0.315782011
89702.770033,1.40844086,1.37613506,-0.269330736,0.230753154,-0.926193416,0.288871557
89702.780061,1.68215726,1.28626438,0.443846176,0.256337613,-0.854645193,0.272814572
89702.790089,1.59767339,1.33290865,1.11691495,0.263421357,-0.725907445,0.230455652
89702.800117,1.27744234,1.42105104,1.66885617,0.220272005,-0.522612929,0.157664016
89702.810145,1.03812461,1.46083228,1.8408722,0.206784964,-0.299227774,0.0826139972
89702.820173,0.841919319,1.3512185,1.67059279,0.229570165,-0.109563552,0.00582361314
89702.830201,0.583434387,1.23927876,1.45225691,0.189081341,0.039711684,-0.0912158489
89702.840228,0.46474181,1.18558305,1.08338794,0.16661571,0.126042053,-0.18181473
89702.850256,0.478727665,1.01922337,0.692485421,0.130257696,0.163070634,-0.250798315
89702.860284,0.429612921,0.769151166,0.463834486,0.135365903,0.148120984,-0.299180776
89702.870312,0.399528018,0.521140135,0.280076002,0.142784148,0.122637458,-0.327159137
89702.880339,0.446137063,0.291386062,0.351992652,0.129327729,0.0977097377,-0.332978934
89702.890368,0.391050259,0.121301407,0.38528585,0.135140076,0.0837640986,-0.307587832
89702.900396,0.296644421,-0.130775082,0.1801023,0.259467602,0.112320371,-0.241372317
89702.910424,0.0745107588,-0.288102072,0.645130964,0.0781641379,0.0987515673,-0.193423703
89702.920451,-0.146568133,-0.404203024,0.655538377,0.0259382129,0.127348587,-0.124775946
89702.930478,0.188758631,-0.533651826,0.476186018,-0.0212119874,0.162250385,-0.0234905984
89702.940507,0.246414555,-0.534857768,0.538727522,-0.0606086627,0.190252721,0.0547107309
89702.950535,0.148397248,-0.488202546,0.498157027,-0.0588512421,0.22838679,0.104506247
89702.960563,-0.0626778438,-0.349679991,0.436536145,-0.0975850523,0.240085796,0.134249225
89702.970591,-0.316232041,-0.182194596,0.426257327,-0.102488197,0.257730037,0.140897274
89702.980619,-0.339494113,-0.0551303511,0.285927066,-0.112614602,0.273629904,0.140442953
89702.990647,-0.285555602,0.0428316452,0.247127087,-0.148873001,0.280704856,0.126301557
89703.000674,-0.339079614,0.127957212,0.197718621,-0.188346907,0.275029123,0.102252416
89703.010702,-0.371034549,0.211443451,0.0435597403,-0.17565456,0.259787321,0.070598878
89703.020730,-0.425651105,0.224251165,-0.171443777,-0.104566529,0.240575552,0.0344131812
89703.030758,-0.407426005,0.265345612,-0.214012169,-0.0307554267,0.201078996,0.00517753046
89703.040786,-0.326194559,0.301574972,-0.0601104776,-0.00732866302,0.191844761,-0.0211981498
89703.050813,-0.197058038,0.30543563,0.112791097,-0.0331378914,0.200504556,-0.0310579706
89703.060842,0.0127374626,0.276379704,0.0266705648,0.000636851881,0.185160488,-0.0080874078
89703.070870,0.180247992,0.369562905,-0.553738044,0.271596462,0.096544072,0.0403174087
89703.080897,-0.0506863773,0.44324905,-0.371486457,0.343313515,0.0431250557,0.0350251719
89703.090925,-0.195381337,0.373825641,0.0837023656,0.312753201,0.0445397273,0.000976127572
89703.100953,-0.126439099,0.271674522,0.214375741,0.24861604,0.0953432545,-0.0292028133
89703.110981,-0.022963527,0.230864008,0.305282339,0.204984933,0.156453475,-0.0424307361
89703.121009,0.0622907442,0.205723648,0.0663566785,0.248050645,0.185249969,-0.04674346
89703.131037,0.10147753,0.201142385,-0.157096103,0.28630802,0.163327634,-0.0533150733
89703.141064,0.245925164,0.185793351,-0.124513099,0.296441883,0.122240916,-0.0483818352
89703.151093,0.489750433,0.122293451,-0.105181207,0.289064378,0.085375309,-0.0313253552
89703.161120,0.568687849,0.0576608925,0.101081955,0.233232021,0.0713646859,-0.0135093387
89703.171148,0.507102477,-0.0316105054,0.369860317,0.152083099,0.0981619433,-0.0096975565
89703.181176,0.354435588,-0.113885395,0.537504702,0.0914450586,0.145314813,-0.0211081356
89703.191203,0.0274418414,-0.129689625,0.633015579,0.064970836,0.209436536,-0.0351429954
89703.201232,-0.189256059,-0.0602783815,0.471105938,0.133750707,0.270322531,-0.037300691
89703.211260,-0.0738935768,-0.137079224,0.0671557199,0.279484987,0.275609434,-0.0261708032
89703.221288,-0.082310692,-0.0122398884,-0.213797649,0.456900001,0.257693291,-0.0306939166
89703.231316,0.0613868542,-0.0474944494,-0.187953014,0.569440603,0.258099407,-0.0755319595
89703.241343,-0.0192863728,-0.101630017,0.237414671,0.433784753,0.288824916,-0.181598753
89703.251371,0.111277332,-0.13947854,0.621310528,0.204636768,0.321145028,-0.238240719
89703.261399,0.455843341,-0.133477765,0.0173509478,0.10272745,0.299624294,-0.207003966
89703.271427,0.345944604,0.130264429,-0.277289586,0.040450491,0.259332538,-0.195377678
89703.281455,0.292742883,0.175223004,-0.2809031,0.00109669485,0.226165801,-0.217853948
89703.291483,0.336451019,0.0954089508,-0.250135621,-0.0876558125,0.198888376,-0.250434816
89703.301511,0.352107365,-0.100811687,-0.277262113,-0.20055759,0.198341891,-0.284263074
89703.311538,0.247345406,-0.410203288,-0.519214428,-0.365619779,0.15901126,-0.318911344
89703.321567,0.101012397,-0.625598435,-0.668030194,-0.516720355,0.0620114766,-0.346735775
89703.331593,0.646263256,-1.03430337,-0.884295694,-0.482586861,-0.104039021,-0.297301382
89703.341622,0.699664592,-0.926091713,-1.12883277,-0.301846117,-0.289760679,-0.193744361
89703.351650,0.372862276,-0.665403353,-0.815187671,-0.13777411,-0.414453328,-0.0776521042
89703.361678,0.00538425032,-0.327982758,-0.144936879,-0.0831870288,-0.431321532,0.0218334701
89703.371706,-0.034647535,-0.167682379,0.539447069,-0.176212579,-0.350154787,0.105446607
89703.381734,0.0688975951,-0.155042532,1.02218441,-0.355794311,-0.222846627,0.170481533
89703.391762,0.10123035,-0.170579123,1.04551268,-0.518360853,-0.10406512,0.216322526
89703.401789,0.193160592,-0.203866914,0.843781898,-0.593005002,-0.0151938312,0.254987895
89703.411817,0.164161511,-0.218878167,0.586073795,-0.568219244,0.0442910679,0.277717173
89703.421845,0.0719969494,-0.151476473,0.414832847,-0.47179389,0.0885464102,0.278000802
89703.431872,0.0135069857,-0.0863594559,0.320040932,-0.3442415,0.119373299,0.257159173
89703.441900,-0.077585417,-0.00396514077,0.190837045,-0.194723934,0.13445878,0.228776261
89703.451928,-0.0265562908,0.101583,0.0221142167,-0.0429149717,0.148093641,0.213904634
89703.461956,0.0803901723,0.165110665,-0.085744685,0.0585749,0.149993271,0.198107839
89703.471984,0.152150902,0.242438089,-0.175372934,0.112025611,0.13124381,0.172866121
89703.482012,0.324177667,0.331985235,-0.269282805,0.128732145,0.103444934,0.142619282
89703.492039,0.453406908,0.398522531,-0.243240017,0.101751663,0.0727858245,0.101526968
89703.502067,0.448830759,0.494710613,-0.158076346,0.0528171472,0.056606058,0.0518009551
89703.512095,0.422535092,0.513267795,-0.0721136346,-0.00278938981,0.0479867384,0.006017223
89703.522123,0.321665757,0.498800257,0.00590776274,-0.0653196126,0.0402209572,-0.0346995816
89703.532151,0.266474323,0.384140041,0.0197509947,-0.0947736427,0.0248241574,-0.0655469745
89703.542179,0.195569553,0.245978319,-0.00386836587,-0.0864406079,0.00925052445,-0.0923106819
89703.552207,0.0317298209,0.10637491,-0.00257598797,-0.0530895777,-0.00526689878,-0.114908129
89703.562235,-0.0873502936,-0.0307238222,-0.0148059395,0.00504989084,-0.0165666919,-0.11830686
89703.572262,-0.177116928,-0.123749714,0.063058806,0.0437741168,-0.0143613275,-0.116571009
89703.582290,-0.20206666,-0.205948251,0.191675249,0.0723485053,7.48696038e-05,-0.105117284
89703.592318,-0.160494513,-0.26018052,0.284250657,0.102194019,0.0348610803,-0.0821291506
89703.602346,-0.204535534,-0.225446147,0.369609557,0.105787687,0.0685503334,-0.0647570789
89703.612374,-0.322468817,-0.144478431,0.40567865,0.120515503,0.119715512,-0.0459165499
89703.622402,-0.327842327,-0.0828317933,0.312122999,0.12113522,0.166973308,-0.0282014683
89703.632430,-0.283300809,-0.0532608309,0.236789818,0.110670857,0.198376238,-0.0139860455
89703.642458,-0.331308249,0.0119352429,0.0342903921,0.105635889,0.221133485,-0.00998491235
89703.652485,-0.273530124,0.0355968716,-0.139285137,0.0989185944,0.219058618,-0.0118608437
89703.662513,-0.102332284,-0.0294519391,-0.317182036,0.105168238,0.193357259,-0.00900247321
89703.672541,0.0259157644,-0.0686987846,-0.437096701,0.14602752,0.162448078,-0.00176772941
89703.682569,0.0673607775,-0.0373746219,-0.443950805,0.196286157,0.143132433,0.0153183136
89703.692597,-0.0183251631,0.0390845676,-0.236784557,0.167694464,0.106223673,0.021241717
89703.702625,-0.0910993074,0.0709692138,-0.142003163,0.0807499811,0.0677034482,0.0325686708
89703.712653,0.0349205433,0.0148548201,-0.112236386,0.0129680019,0.0455339663,0.0639465675
89703.722681,0.144449132,-0.0171452691,-0.0674263535,-0.0637044087,0.0306314472,0.10027688
89703.732709,0.0914528701,0.0289038037,0.0585182399,-0.128266081,0.0388558209,0.123054899
89703.742736,0.122778859,0.0452224128,0.0746136347,-0.188065246,0.0481316112,0.142861098
89703.752764,0.170265162,0.0319507702,0.105721305,-0.233853236,0.0493907556,0.160782039
89703.762792,0.236112685,0.0157170264,0.105562315,-0.253657281,0.0478509143,0.175043523
89703.772820,0.251866427,-0.0111153413,0.0758691877,-0.250355244,0.0341958217,0.172315389
89703.782848,0.206520096,-0.0212634816,0.0896329247,-0.232346952,0.00478813192,0.164893955
89703.792876,0.226360888,-0.0220964253,0.111001291,-0.195756987,-0.00906536542,0.161270723
89703.802904,0.160151289,0.0244332707,0.1642828,-0.165186018,-0.0115745962,0.149510205
89703.812932,0.109483288,0.0654035059,0.17920389,-0.126748621,-0.00326047326,0.135254577
89703.822959,0.133133592,0.0447634535,0.169468093,-0.0918707997,0.0204893313,0.112843007
89703.832987,0.247622725,-0.063206617,0.183767837,-0.0693375245,0.0321795419,0.0823900253
89703.843015,0.395034433,-0.14533092,0.152193718,-0.0453072898,0.0313486382,0.0505085252
89703.853043,0.424095327,-0.13771533,0.115479898,-0.0099016279,0.0101426831,0.0170951746
89703.863071,0.389210732,-0.11951467,0.0856166747,0.0391058624,-0.0180577952,-0.0106664151
89703.873099,0.325724348,-0.0946888198,0.098040103,0.0888414606,-0.0298771691,-0.02752316
89703.883127,0.126290521,-0.043401554,0.157118315,0.110511333,-0.0224171244,-0.0367547423
89703.893155,0.0848625684,-0.0097388288,0.181454299,0.118424915,-0.0072775851,-0.0402839631
89703.903182,0.131809102,-0.010323095,0.0721674106,0.130667999,-0.00158880709,-0.0318044573
89703.913210,0.20519798,-0.0674193393,-0.172062786,0.134951159,-0.0279791355,-0.0170510784
89703.923238,0.256990456,-0.157915676,-0.285628959,0.0984299034,-0.0669177473,0.00634266157
89703.933266,0.360091641,-0.246622827,-0.175713125,0.036823798,-0.0985422507,0.0436378345
89703.943294,0.484360082,-0.30045733,-0.0132797528,-0.0480889603,-0.104070179,0.0892700329
89703.953322,0.462539514,-0.313377602,0.284372822,-0.149939165,-0.0851516128,0.129961804
89703.963350,0.408807559,-0.262422783,0.525632478,-0.208800882,-0.0313858502,0.169439703
89703.973378,0.195590048,-0.121391241,0.619860914,-0.233246565,0.0346421674,0.192902684
89703.983405,-0.0797587425,0.0778738786,0.479208581,-0.177731112,0.0785505027,0.194248378
89703.993433,-0.132185972,0.263573268,0.166949389,-0.0742340088,0.0963481367,0.191486418
89704.003461,-0.00494268057,0.304310608,-0.0138023154,0.02400201,0.0875173658,0.166312084
89704.013489,0.0437077339,0.35387094,-0.0921989757,0.0703071877,0.0618809797,0.116122954
89704.023517,0.108200007,0.387488292,-0.0370598568,0.0828378946,0.0505830534,0.0634040833
89704.033545,0.134007598,0.386687716,0.0354033218,0.0711570084,0.0534653924,0.00899170805
89704.043573,0.0679238182,0.372169763,0.138511814,0.0554957539,0.0664336532,-0.039848268
89704.053601,-0.00262753549,0.304402634,0.111637251,0.0669281706,0.0722904727,-0.0682452917
89704.063629,-0.0376572017,0.207795888,0.0224228442,0.0925073028,0.0702712685,-0.0741561726
89704.073656,-0.0947640039,0.158185652,-0.036609775,0.124559239,0.0604513958,-0.0676881596
89704.083684,-0.0784741095,0.0945847018,-0.0838829828,0.142519072,0.0507947728,-0.0484960862
89704.093712,-0.0570563142,0.0433946494,-0.0452928477,0.114458673,0.0484301522,-0.0295873769
89704.103740,-0.0660964932,0.0415312301,0.00724631787,0.0741349533,0.0499894321,-0.0175565463
89704.113768,-0.0270601852,0.0545324948,-0.079481533,0.0372003689,0.0461105406,-0.00763121061
89704.123796,-0.0213136774,0.0741927059,-0.0814513718,-0.0127112623,0.0352254026,0.000386501662
89704.133824,0.115431529,0.076604224,-0.0597007277,-0.0313179716,-0.0366919301,0.00597860757
89704.143852,0.309707425,0.0945604807,-0.432755457,0.0663864836,-0.122177273,0.0154506722
89704.153879,0.24127606,0.252508926,-0.348668476,0.161343098,-0.172626331,-0.0088253729
89704.163907,0.0732429309,0.422079969,-0.0993605379,0.240528986,-0.197343662,-0.0729809254
89704.173935,0.0709221232,0.410087041,0.0743459237,0.327622622,-0.22983636,-0.13120988
89704.183963,0.0864366128,0.313424364,-0.0608347002,0.452339262,-0.199384436,-0.135634452
89704.193991,-0.075365476,0.334060471,0.15683073,0.493464589,-0.111902267,-0.106894411
89704.204019,-0.291316467,0.34621911,0.192574828,0.443549484,-0.0115274582,-0.0699726194
89704.214047,-0.273348885,0.29385742,0.147339848,0.196497351,0.0409237668,-0.0389827415
89704.224075,0.159368359,0.0547827797,0.0869862095,-0.0805901811,0.0315286666,-0.00376962777
89704.234103,0.826359346,-0.277599309,-0.299900646,-0.261758089,-0.0267202593,0.0566886552
89704.244130,0.977940485,-0.337063233,-0.396611546,-0.290176123,-0.122632951,0.0898528472
89704.254158,0.67436948,-0.177234124,-0.277466696,-0.175525725,-0.200704858,0.0808478966
