t,ax,ay,az,gx,gy,gz
97968.455711,-0.155468575,0.152486965,-0.0519926376,-0.0352047756,0.0445241109,-0.0641425774
97968.465740,-0.108807581,0.131221767,-0.0126613287,-0.00529295206,0.0412148684,-0.0538832806
97968.475770,-0.0685727836,0.0835001575,0.0498866052,0.0197881665,0.0411645323,-0.0412042327
97968.485799,-0.00712448159,0.064370327,0.0812730926,0.0464368202,0.0483689159,-0.0302458592
97968.495828,0.0142747552,0.074727105,0.0337830271,0.0803114325,0.0534590147,-0.0137747405
97968.505857,-0.00334273456,0.123971905,-0.0518354012,0.110844307,0.0465044379,-0.000475447625
97968.515887,-0.0452190883,0.172602336,-0.117183195,0.145159408,0.0321665108,0.017149087
97968.525916,-0.0671153148,0.207431913,-0.120635381,0.188303679,0.0215828437,0.0337256677
97968.535945,-0.0494344045,0.264397517,-0.120562316,0.233472228,0.0142069533,0.0506995916
97968.545974,0.0201796319,0.309715828,-0.139857968,0.289278507,0.00713279843,0.058891207
97968.556003,0.0216367353,0.341951808,-0.089374566,0.337443888,0.00323552848,0.0611248016
97968.566033,0.0985161595,0.324703554,0.0147679455,0.377116472,0.00609816052,0.0428978615
97968.576062,0.122890247,0.323122459,0.0789174694,0.401091844,0.0101456326,0.0323312357
97968.586091,0.171182423,0.0818440974,-0.0392985757,0.409832329,0.0116646998,0.0332564153
97968.596120,0.169864728,0.121324368,-0.0381447295,0.3859483,0.0113837365,0.0337770656
97968.606150,0.0927223055,0.0993417784,-0.0662590633,0.341596574,0.0114042424,0.0282547325
97968.616179,0.00340604558,0.0546796299,-0.0841582926,0.275689721,0.0126572596,0.0262773372
97968.626208,-0.0952585094,0.00812585891,-0.249365806,0.189377472,0.0010104574,0.0294744633
97968.636237,-0.1634968,0.000320336262,-0.372971143,0.103823684,-0.00716997404,0.0313631743
97968.646267,-0.149851904,0.0109020822,-0.329410234,0.036649704,-0.00834549405,0.030057162
97968.656296,-0.0749743943,0.0525814155,-0.284482712,-0.0169014037,0.000501793693,0.0287524797
97968.666325,0.0119350237,0.0501128882,-0.282638545,-0.0634989962,0.0113057056,0.0182606895
97968.676354,0.0411720414,0.0560188974,-0.268236511,-0.11948397,0.0256002229,-0.00121633895
97968.686383,0.0312485037,0.0682751524,-0.254199217,-0.185820386,0.0466865972,-0.0216390565
97968.696413,-0.0476509916,0.0592902472,-0.26932489,-0.267860651,0.0647159368,-0.050718911
97968.706442,-0.142348141,0.113916813,-0.385818349,-0.375169277,0.0714318976,-0.0791311115
97968.716471,-0.27353838,0.19915006,-0.558442277,-0.489733666,0.0734122247,-0.100206837
97968.726500,-0.510803341,0.345260494,-0.781550775,-0.576500535,0.0586266145,-0.134365872
97968.736530,-0.782026429,0.547303883,-0.892829129,-0.653488517,0.0469153635,-0.171043992
97968.746559,-0.909239655,0.641731531,-0.998890626,-0.705173314,0.0419384465,-0.192945287
97968.756588,-0.907097893,0.692334395,-1.04771457,-0.718230784,0.0392899327,-0.194837198
97968.766617,-0.892923676,0.565779341,-1.32200497,-0.694269538,0.0296772551,-0.168389082
97968.776646,-0.859069556,0.39460839,-1.44811323,-0.655561268,0.0276066475,-0.127684265
97968.786676,-0.894831555,0.295910846,-1.56166246,-0.585451961,0.0193308759,-0.0908540785
97968.796705,-1.03965372,0.211796027,-1.61127784,-0.480720729,0.0174823757,-0.0690406635
97968.806734,-1.25562492,0.166850677,-1.63451434,-0.336902589,0.0167886205,-0.0723320618
97968.816763,-1.5638265,0.231614315,-1.64204591,-0.175160021,0.015498586,-0.103868954
97968.826792,-1.88509347,0.287904211,-1.61515381,0.0121997548,0.0117581766,-0.153629839
97968.836822,-2.10471763,0.205397485,-1.5904034,0.183303863,0.00540893432,-0.194614559
97968.846851,-2.17281458,0.0863044378,-1.54653854,0.349409223,0.00150101166,-0.212841496
97968.856880,-2.16997117,0.0276118642,-1.35947926,0.488130063,0.00477190595,-0.221153498
97968.866909,-2.12351659,0.00245908359,-1.01068628,0.593483627,0.0131137259,-0.227995947
97968.876939,-1.98479274,0.0594524521,-0.644583267,0.666998327,0.0338799879,-0.242613509
97968.886968,-1.76356333,0.171336371,-0.401103012,0.73799634,0.0628389344,-0.249765441
97968.896997,-1.51021372,0.277683371,-0.219098678,0.803947806,0.101279348,-0.242927432
97968.907026,-1.37124378,0.462095132,0.0372995108,0.870743334,0.159606844,-0.235049814
97968.917055,-1.42302322,0.718142132,0.0992781204,0.934420049,0.223170117,-0.249118507
97968.927085,-1.64487061,0.921491672,0.210135035,0.972015619,0.294454932,-0.292574108
97968.937114,-1.83132432,1.00260073,0.323197935,0.974321663,0.366769612,-0.349597692
97968.947143,-1.81010384,0.840505214,0.105868605,0.913243115,0.359605163,-0.371366382
97968.957172,-2.113127,0.651320905,-0.905917159,0.822408855,0.239922985,-0.372533113
97968.967201,-2.17738203,-0.15020828,-0.142761288,0.526497841,0.111804962,-0.301764667
97968.977231,-2.12997322,-0.303379757,0.806615073,0.231187358,0.0105459886,-0.272363096
97968.987260,-1.84957105,-0.189210357,1.32091776,-0.0951710418,-0.0567944348,-0.211410537
97968.997289,-0.925427331,-0.265870896,1.28067811,-0.344837338,-0.107999571,-0.0973659828
97969.007318,-0.193076202,-0.529543112,1.09702425,-0.568751693,-0.159775138,0.0487446189
97969.017348,0.249481395,-0.799264711,1.02980307,-0.787900805,-0.200475961,0.238385648
97969.027377,0.503998739,-0.807680438,1.00039343,-0.989236593,-0.236457407,0.448533028
97969.037406,0.102288993,-0.553284638,0.479794272,-1.04820693,-0.292781681,0.603708506
97969.047435,-0.814850694,-0.069907649,-0.576422754,-0.932146132,-0.376535952,0.626190364
97969.057464,-1.78411702,0.509872453,-1.19796534,-0.804917574,-0.449209362,0.515434563
97969.067493,-2.40635212,0.704865814,-1.14612643,-0.680153847,-0.469974816,0.354365259
97969.077523,-2.54303964,0.444962174,-0.922246363,-0.550919116,-0.44907409,0.226324201
97969.087552,-2.28058069,0.196178442,-0.718560942,-0.445250511,-0.416654617,0.148228869
97969.097581,-1.79190753,-0.00430135046,-0.495913047,-0.327477515,-0.379951209,0.111256465
97969.107610,-1.38509914,-0.00839475725,-0.427923215,-0.153704941,-0.340989411,0.0933672115
97969.117639,-1.19127592,0.0839474264,-0.530167784,0.108656116,-0.305802137,0.0774548277
97969.127669,-1.11916222,0.248308114,-0.665829469,0.408764541,-0.261382461,0.0634681657
97969.137698,-1.18361766,0.180041473,-0.861321646,0.752316296,-0.231804863,0.0552946627
97969.147727,-1.3770231,0.0421727064,-0.953373322,1.03192055,-0.20281741,0.056823045
97969.157756,-1.46949446,-0.180849721,-0.772611097,1.23818028,-0.188703999,0.0589823425
97969.167785,-1.37525696,-0.511976476,-0.773953744,1.38865018,-0.193865463,0.0542043597
97969.177814,-1.36698028,-0.7420284,-0.794965552,1.51539826,-0.217314601,0.039919965
97969.187843,-1.38246558,-0.951237041,-0.555316838,1.5672152,-0.268035322,0.0282579828
97969.197872,-1.21124348,-1.06550223,-0.180764563,1.53084493,-0.348799944,0.033472985
97969.207901,-0.813951919,-1.03834571,0.25602351,1.43319297,-0.430915564,0.0397910699
97969.217930,-0.48702415,-0.746330408,0.629772652,1.30204606,-0.491909146,0.0454654619
97969.227960,-0.366812438,-0.303035656,1.13053255,1.11373293,-0.514369667,0.0392027758
97969.237989,-0.219456752,0.111168611,1.84280638,0.853712201,-0.49535796,0.0356834084
97969.248018,0.107838343,0.36226146,2.29251823,0.57782203,-0.454415321,0.0585908517
97969.258047,0.446868957,0.436604169,2.57735224,0.291547358,-0.408276856,0.105685927
97969.268076,0.583282922,0.450665719,2.85711611,0.00745919393,-0.356065571,0.159022927
97969.278105,0.692735304,0.279345788,3.12851664,-0.261328876,-0.300931752,0.214800164
97969.288135,0.867771626,0.0123684101,3.25659707,-0.498339295,-0.260336131,0.263036937
97969.298164,0.993113577,-0.218818619,3.10847163,-0.668545663,-0.239480615,0.298120618
97969.308193,0.638758361,-0.367739599,2.52700737,-0.827721715,-0.25676775,0.290965766
97969.318222,0.0598221256,-0.343059952,2.11285549,-1.00244975,-0.289935559,0.258427531
97969.328251,-0.363085818,-0.16905217,1.76509536,-1.11826825,-0.31556955,0.215333328
97969.338281,-0.449282558,0.14039708,1.77117147,-1.17704344,-0.31130743,0.183378324
97969.348310,-0.156246391,0.532356307,1.94102009,-1.1772927,-0.279636592,0.152675539
97969.358339,0.133765058,0.932530587,2.10866681,-1.11425114,-0.216829911,0.0842658579
97969.368368,0.109435028,1.12865069,2.04923788,-1.05999649,-0.168506846,-0.0191031415
97969.378397,-0.00994629754,1.04789877,1.7444442,-1.03702378,-0.149941415,-0.116000123
97969.388426,-0.136339694,0.778037506,1.31599258,-1.08363914,-0.158954889,-0.166312024
97969.398456,-0.327826837,0.527137549,0.905314517,-1.16807091,-0.168993935,-0.190696463
97969.408485,-0.667268197,0.293125745,0.509061283,-1.22977936,-0.150546491,-0.197977021
97969.418514,-0.96344595,0.018040026,0.266428584,-1.2151221,-0.103726789,-0.191042945
97969.428543,-1.16117509,-0.190356275,-0.0324333661,-1.11046624,-0.068320334,-0.156507865
97969.438572,-1.19732419,-0.470566205,-0.379556951,-0.904769599,-0.0790233091,-0.0964751616
97969.448602,-1.21570689,-0.679844039,-0.688607118,-0.626746535,-0.162192494,-0.0620375574
97969.458631,-1.22915075,-0.630152591,-0.870717835,-0.319974333,-0.27476567,-0.0886302888
97969.468660,-0.939650794,-0.467803536,-0.588386748,-0.0957678556,-0.373861074,-0.164253935
97969.478689,-0.517451729,-0.308953283,-0.1841922,0.00216935715,-0.428050816,-0.294491827
97969.488718,-0.156643026,-0.0720171154,0.16994857,0.0484598912,-0.384524643,-0.479062468
97969.498747,0.00814947725,0.352108607,0.583619388,0.126573324,-0.236215055,-0.703855097
97969.508777,-0.0106589028,0.928563583,0.7259908,0.178582996,-0.0502766147,-0.926821589
97969.518806,-0.0374606927,1.23745754,0.807457954,0.190657765,0.119914554,-1.09287834
97969.528835,0.157128106,1.33807728,0.508956653,0.224746495,0.305864722,-1.21364141
97969.538864,0.241024167,1.51898301,0.71270111,0.101614989,0.467790753,-1.23436964
97969.548893,0.263992443,1.11743145,0.782185565,-0.19838506,0.504953325,-1.12217653
97969.558922,0.464411409,0.547071791,0.502611668,-0.655167222,0.384837836,-0.872056365
97969.568952,0.678152944,-0.0329207112,0.434954429,-1.03516912,0.18810986,-0.536957204
97969.578981,0.898738207,-0.253903522,0.509902994,-1.32240593,-0.0239067934,-0.210982025
97969.589010,1.45353935,-0.260888997,0.737515234,-1.54632103,-0.2230151,0.0725021437
97969.599039,1.9633912,-0.188712746,0.748976539,-1.64026141,-0.369002938,0.29017669
97969.609068,1.84214777,0.255098943,0.459776151,-1.53197861,-0.422689617,0.397159576
97969.619097,1.24422849,0.975159184,0.23843174,-1.24741375,-0.365710199,0.372762382
97969.629126,0.66050389,1.56275917,-0.183308987,-0.779656172,-0.234374538,0.257743627
97969.639156,0.164036497,1.87349276,-0.558998741,-0.295932382,-0.0866303667,0.117965497
97969.649185,-0.0430977488,1.7996618,-0.277234056,0.0920957848,0.0591678545,0.0169422105
97969.659214,0.275321939,1.51226086,0.0530617281,0.412577391,0.199233353,-0.0385333002
97969.669243,0.419281424,1.15078638,0.301396437,0.682726026,0.310912728,-0.0501960814
97969.679272,0.189664201,0.542093638,0.47953416,0.862116814,0.365624458,-0.0249205511
97969.689301,0.0449736256,-0.246078601,0.37731531,0.97646153,0.366579175,0.0415820405
97969.699331,-0.256342038,-0.784754978,0.19161329,1.01739275,0.336161107,0.126666844
97969.709360,-0.682994685,-1.17226654,0.405500371,1.01954138,0.296741515,0.215324283
97969.719389,-0.83940814,-1.4037242,0.525800236,1.01761007,0.240189567,0.259340733
97969.729418,-0.907618995,-1.51641403,0.736907915,1.01282763,0.180984572,0.258730859
97969.739447,-0.740774747,-1.66645832,1.0295564,0.954675794,0.114044681,0.254905224
97969.749476,-0.137214176,-1.82914084,1.22961895,0.824491441,0.0486363843,0.283306003
97969.759505,0.599360672,-1.82142983,1.12674953,0.707424462,0.000777514011,0.354192674
97969.769535,1.02316626,-1.68796361,0.688755587,0.61536324,-0.0197136458,0.440727293
97969.779564,1.14488491,-1.42813106,0.265605578,0.548530698,-0.00500181178,0.537033617
97969.789593,1.10100251,-1.2099864,-0.103464466,0.524781704,0.0226268861,0.649029374
97969.799622,0.777673568,-1.04640977,-0.346192442,0.513874471,0.0369927771,0.75522691
97969.809651,0.38227158,-0.826775379,-0.243263982,0.502205014,0.0454134271,0.804949999
97969.819680,0.0933951998,-0.514048752,0.0472176782,0.60674262,0.0720247924,0.781322718
97969.829709,0.01167166,-0.265707358,0.489938649,0.772719562,0.1316607,0.703732312
97969.839739,0.18210352,-0.244582919,1.41690386,0.893521607,0.222318172,0.636859238
97969.849768,0.397917258,-0.337828152,2.12603003,1.00199866,0.307985127,0.61187613
97969.859797,0.350027563,-0.224145915,2.00180744,1.13899112,0.333029211,0.582121968
97969.869826,-0.099697113,0.155099413,1.60721659,1.29699433,0.318478763,0.49606353
97969.879855,-0.851058903,0.585184738,1.43888013,1.39093995,0.277789652,0.366375059
97969.889884,-1.37451667,0.796836607,1.28534376,1.45066881,0.223771721,0.220696136
97969.899913,-1.52642412,0.695313338,1.48237674,1.48933351,0.21595335,0.0767115802
97969.909943,-1.25729504,0.493550629,2.0398265,1.44268024,0.232355759,-0.0534980893
97969.919972,-0.896922975,0.348595448,2.22489431,1.33014011,0.233663112,-0.168597251
97969.930001,-0.343326531,0.0267518864,2.62080852,1.10054791,0.208783597,-0.220734492
97969.940030,0.156651428,-0.286643909,2.92409004,0.800092757,0.132277369,-0.21391654
97969.950059,0.32783334,-0.533076218,2.77719326,0.467935294,0.0083279945,-0.194583312
97969.960088,0.278888655,-0.568906168,2.450065,0.13640745,-0.108747497,-0.20052962
97969.970117,0.0917289745,-0.471139768,1.97161864,-0.201158062,-0.180613697,-0.254151285
97969.980147,-0.215990812,-0.254395178,1.38543495,-0.490952879,-0.17098105,-0.358844399
97969.990176,-0.616210429,0.31822,0.685638916,-0.696453035,-0.100768663,-0.520884216
97970.000205,-1.08028121,0.998602603,-0.152290164,-0.880457222,-0.0425391831,-0.700670481
97970.010234,-1.28182129,1.2759201,-0.602642068,-1.11825705,-0.00501843728,-0.805016041
97970.020263,-0.913913126,1.17056712,-0.765231508,-1.46407437,0.013644197,-0.784892142
97970.030292,-0.229004844,0.959431965,-0.653915159,-1.85893703,0.033443734,-0.640574634
97970.040321,0.286319919,0.85173103,-0.422584776,-2.20594954,0.0711290613,-0.446417928
97970.050350,0.468591216,1.10573421,-0.382236399,-2.41664481,0.110325463,-0.273537517
97970.060380,0.26356081,1.50915661,-0.966557798,-2.40566492,0.124183223,-0.172136858
97970.070409,-0.208627845,1.68665574,-1.55146021,-2.16026115,0.137203678,-0.139023378
97970.080438,-0.936334144,1.67032946,-1.76167182,-1.6766963,0.171700403,-0.145225093
97970.090467,-1.52225341,1.3387486,-1.60730543,-1.02376437,0.225827292,-0.135286167
97970.100496,-1.54021006,0.849438389,-0.835690361,-0.394007176,0.29332912,-0.127789646
97970.110525,-1.3674647,0.534622571,-0.360223889,0.138441578,0.262631118,-0.135404676
97970.120554,-0.727703157,-0.0679519849,-0.562138208,0.552941799,0.100439541,-0.141178414
97970.130583,-0.229093473,-0.66736983,-0.291921922,0.830499887,-0.102972701,-0.153100327
97970.140612,0.316104214,-0.950274553,0.608949644,0.902915537,-0.270988345,-0.178557485
97970.150642,1.14869913,-1.09923908,1.32353759,0.750264466,-0.377456993,-0.175478593
97970.160671,1.88966312,-1.0842599,1.62796302,0.439996868,-0.4296664,-0.141151518
97970.170700,2.10736917,-0.624925358,1.28424252,0.162361547,-0.426447958,-0.136804447
97970.180730,1.77598048,0.17798012,0.594612491,-0.0450763255,-0.362962991,-0.202541381
97970.190759,1.32900024,0.773530696,0.339720031,-0.250734419,-0.234041765,-0.309294969
97970.200788,1.07956926,0.984389296,0.389382764,-0.450968713,-0.0614593402,-0.378279626
97970.210817,1.10145814,0.915931773,0.610658201,-0.665363014,0.113735378,-0.364443719
97970.220846,1.26545248,0.816892064,0.81690675,-0.915865302,0.243472859,-0.285981923
97970.230875,1.46157083,0.773538149,0.771092509,-1.09071064,0.315102577,-0.154906482
97970.240905,1.36152684,0.862589766,0.51632046,-1.18565369,0.314667135,-0.0329632536
97970.250934,1.0869707,1.01787451,-0.254509014,-1.13889277,0.231829792,0.0150183849
97970.260963,0.562325511,1.25366531,-1.39504741,-0.918828309,0.114715688,-0.0299173966
97970.270992,0.0935221232,1.43200074,-2.59150585,-0.58472681,-0.0115293339,-0.133172691
97970.281021,-0.226063512,1.37506977,-3.36601373,-0.290737242,-0.114615507,-0.230530128
97970.291050,-0.304994206,1.07290863,-3.67889134,-0.116990738,-0.182878986,-0.261931181
97970.301079,-0.126090176,0.596081833,-3.64223597,-0.019592274,-0.19922334,-0.213919193
97970.311108,0.359371657,0.181792884,-3.32201676,0.0229293536,-0.157429278,-0.124218069
97970.321137,0.842765414,0.258675048,-2.99491948,0.0876729265,-0.0777150095,-0.0552688241
97970.331167,1.35966806,0.410589949,-2.78617386,0.195921376,0.0125669483,-0.0158825405
97970.341196,1.70980631,0.4853899,-2.60561212,0.333094925,0.0905147418,-0.0115317339
97970.351225,1.69524997,0.603573212,-2.84306303,0.512772799,0.13118574,-0.030622337
97970.361254,1.29525185,0.633415977,-3.2420682,0.730710745,0.119425483,-0.0504959114
97970.371283,0.641177916,0.378809567,-3.1787294,0.931759179,0.0928631201,-0.0487233102
97970.381312,0.385133509,-0.161926519,-2.27320738,1.06669998,0.113488771,-0.0214288384
97970.391341,0.668854224,-0.513797444,-0.681634941,1.09461141,0.213064894,0.00206397008
97970.401370,1.34283544,-0.627900428,0.628306671,1.14823318,0.356665194,0.0124103511
97970.411399,2.23360617,-0.727505589,0.898199717,1.23351204,0.47628507,-0.00411642808
97970.421428,2.66415199,-0.651715604,0.66285133,1.29176903,0.533203006,-0.0403117165
97970.431457,2.4687019,-0.48834327,-0.20512802,1.34419525,0.514634073,-0.0319520533
97970.441487,2.14163034,-0.51412843,-1.91272046,1.39329374,0.396513283,0.0676906481
97970.451516,1.67332221,-0.594710325,-3.66308529,1.30793381,0.164415598,0.265657812
97970.461545,1.15334834,-1.11649088,-4.58478337,1.2161864,-0.0672674328,0.596354723
97970.471574,0.614103081,-1.52316848,-4.17367217,1.18233597,-0.171340302,0.928508699
97970.481603,0.533966774,-0.976083824,-2.7951112,1.09584904,-0.161014169,1.09759629
97970.491632,1.09592784,-0.227545403,-1.12438631,0.939753711,-0.0431911238,1.11197984
97970.501661,1.57768888,0.36626854,1.00875151,0.748098791,0.150178611,1.02922583
97970.511690,1.73928142,0.932924262,2.62585411,0.556335986,0.34935987,0.867173731
97970.521719,1.72586342,1.3606334,3.49105173,0.420215726,0.511108577,0.677340925
97970.531748,1.39339293,1.34487454,4.10331327,0.282840014,0.609098017,0.507885575
97970.541777,0.779296785,1.0970583,4.34971321,0.124229342,0.629131377,0.387681186
97970.551807,0.240154088,0.688298929,3.55188175,0.00363262068,0.555472851,0.267291397
97970.561836,-0.57881597,0.503992199,2.25676186,-0.171435058,0.35544014,0.16786544
97970.571865,-1.0602115,0.1448374,1.2283745,-0.369953483,0.115712509,0.153704092
97970.581894,-0.806930423,-0.276598571,0.743015,-0.607160449,-0.099357456,0.232558429
97970.591923,-0.357079746,-0.38002592,0.553015575,-0.816984236,-0.219586402,0.351225704
97970.601952,-0.0702179753,-0.266133255,0.39642976,-0.907020926,-0.233844429,0.457844824
97970.611981,-0.0543680249,0.0199991607,0.228973006,-0.84205842,-0.166684836,0.497019649
97970.622010,-0.149680639,0.369163202,-0.038971828,-0.598217547,-0.0745418593,0.452078551
97970.632039,-0.356213193,0.745455671,-0.575733019,-0.22504583,-0.00193156709,0.316630691
97970.642068,-0.543359785,1.06069351,-1.11747784,0.211665452,0.0456609838,0.135733873
97970.652097,-0.64247855,1.14473147,-1.21539052,0.586921096,0.0847034603,-0.0144596128
97970.662126,-0.362922079,0.771249161,-1.06410749,0.863302886,0.105663337,-0.04937765
97970.672155,-0.0237047738,0.280526741,-0.597448007,0.993919194,0.11704462,0.00448584883
97970.682185,0.252573772,-0.121888304,-0.0575742371,1.00222695,0.0991567001,0.111562766
97970.692214,0.474225678,-0.438180478,0.236988555,0.954515338,0.0649156421,0.227795094
97970.702243,0.639265287,-0.582680792,0.602467881,0.886181831,0.0345790386,0.322422534
97970.712272,0.84467417,-0.656401935,0.735191175,0.790176988,0.0117307156,0.381278396
97970.722301,0.80263521,-0.73106277,0.858627,0.617806017,-0.0237559043,0.405284137
97970.732330,0.549232075,-0.683710286,0.854901842,0.411300242,-0.0731916353,0.40401569
97970.742359,0.0798903878,-0.671987334,1.01092885,0.126022726,-0.118939683,0.36254546
97970.752388,-0.467758162,-0.360905442,1.55392748,-0.096219413,-0.10789182,0.236071393
97970.762417,-0.500748066,0.473123123,1.54312551,-0.175076127,-0.0498530194,-0.0016777711
97970.772446,-0.0837103662,1.26924691,1.12794838,-0.154100284,0.0393679366,-0.288496494
97970.782475,0.556809488,1.48851013,0.845344325,-0.133231744,0.110897779,-0.525647521
97970.792504,1.05036713,0.985803254,0.129272277,-0.16809918,0.118526138,-0.66367811
97970.802533,0.953615022,0.0667625559,-0.847773598,-0.270920128,0.042018313,-0.734712899
97970.812562,0.428639875,-0.924520518,-1.84767311,-0.4174366,-0.0945871994,-0.761762321
97970.822591,-0.199602571,-1.56638072,-2.54999311,-0.492916435,-0.224443465,-0.777831316
97970.832621,-0.988354473,-1.49348558,-2.54243349,-0.465974569,-0.270963848,-0.848520935
97970.842650,-0.993144484,-0.982179146,-2.01914728,-0.361518204,-0.222964078,-0.87876004
97970.852679,-0.230177395,-0.785291569,-1.32018477,-0.150725782,-0.0975108221,-0.809869945
97970.862708,0.642029272,-0.485355267,0.181158531,0.0385314822,0.0698952153,-0.697381496
97970.872737,1.42834704,-0.0954132982,1.52605572,0.142810494,0.219399482,-0.600719631
97970.882766,1.7937951,0.224465502,2.06270059,0.137299344,0.291513622,-0.50330174
97970.892795,1.59763686,0.19328915,1.98270059,-0.00863096956,0.242106929,-0.402060598
97970.902824,0.933815074,0.0709075102,1.32401222,-0.208393916,0.105726495,-0.311499804
97970.912853,0.0837367793,0.0844754688,0.566747748,-0.437611401,-0.0340431258,-0.239008024
97970.922882,-0.712082905,0.23633042,0.0722071581,-0.681042969,-0.0983595252,-0.183407083
97970.932911,-1.24957102,0.150726166,-0.20566052,-0.957606137,-0.120692797,-0.151594296
97970.942940,-1.34554557,-0.0730346401,-0.472661351,-1.1299603,-0.12063048,-0.11545147
97970.952969,-0.939562531,0.125227805,-0.544062454,-1.27896833,-0.0727412477,-0.0384110101
97970.962998,-0.0455745507,0.0709526234,-0.30710897,-1.42709875,-0.00333714299,0.0686643049
97970.973027,0.644183089,0.314298553,-0.540499208,-1.53495193,0.0579432584,0.166164234
97970.983056,0.815589457,0.669505673,-0.857267987,-1.59697592,0.121214375,0.208234459
97970.993085,0.771161921,0.998046869,-1.35258774,-1.58667314,0.165773854,0.178982288
97971.003114,0.488122795,1.30876322,-2.35902689,-1.50178707,0.182361618,0.0817513466
97971.013144,-0.0949807154,1.67717012,-3.16770181,-1.33134365,0.190257624,-0.0647635236
97971.023173,-0.659254621,1.83714236,-3.71202087,-1.15200317,0.180177033,-0.21554105
97971.033202,-1.01534075,1.84503955,-3.7077638,-1.00307524,0.173657611,-0.316126257
97971.043231,-0.999365404,1.7184435,-3.22284093,-0.804534793,0.214474812,-0.321559101
97971.053260,-0.790472551,1.43808182,-2.39800748,-0.573287189,0.297552377,-0.24781245
97971.063289,-0.335508733,1.29738053,-1.73713125,-0.354357511,0.359625071,-0.129379004
97971.073318,0.314396716,1.4211659,-1.81900056,-0.110332057,0.363199562,-0.00768106151
97971.083347,0.667130176,1.4000727,-2.36036661,0.167614058,0.298387021,0.0890486762
97971.093376,0.585086867,1.10657417,-2.93445537,0.480634838,0.186361954,0.156108141
97971.103405,0.362978778,0.642040013,-3.29756972,0.754840553,0.0724865198,0.211814538
97971.113434,0.273342565,0.153827237,-3.51098392,0.926636815,-0.0331738703,0.266941696
97971.123463,0.103370723,-0.247470713,-3.29118732,1.02586198,-0.0755974874,0.328604549
97971.133492,0.0251261118,-0.41963316,-2.58852655,1.0930357,-0.0400770493,0.395128429
97971.143521,0.0612432445,-0.362391151,-1.9501357,1.1301266,0.0262095649,0.457430691
97971.153550,-0.00432498706,-0.126890277,-1.4865473,1.11135209,0.0734274089,0.493500829
97971.163579,-0.099940201,0.0509951144,-1.24856389,1.0558753,0.0697682276,0.504251719
97971.173608,-0.348264973,0.0641669864,-1.36430682,1.01802969,0.0230462607,0.478993237
97971.183636,-0.832570914,0.0216848853,-1.26817811,0.931611598,-0.0270169061,0.41063416
97971.193665,-1.08835039,-0.19409685,-0.954790203,0.794151723,-0.0407186039,0.333158284
97971.203694,-1.27828946,-0.262119727,-0.632753129,0.647527695,0.00064588082,0.244812965
97971.213723,-1.77977505,0.110295454,-0.375512644,0.532173932,0.0757907033,0.150019348
97971.223752,-2.09674052,0.338705812,0.0446913746,0.416185528,0.139031187,0.0853162557
97971.233781,-2.00105925,0.549928131,0.657668959,0.253714859,0.157628313,0.0787323862
97971.243810,-1.77587234,0.635994157,1.24712246,0.0477915257,0.118660934,0.128847748
97971.253839,-1.58723573,0.650342781,2.0197698,-0.169510961,0.0598849691,0.205255702
97971.263868,-1.2559844,0.715245461,2.68775206,-0.371659011,-0.00331503851,0.283930004
97971.273897,-0.977729253,0.630877325,2.93700038,-0.527605474,-0.0733375326,0.328527033
97971.283927,-0.771723427,0.454567038,2.99802914,-0.637553275,-0.128340855,0.321950883
97971.293956,-0.485519152,0.182267899,2.91613236,-0.719047844,-0.158431649,0.292355716
97971.303985,-0.400429424,-0.193937604,2.57136148,-0.769508898,-0.184411049,0.275450766
97971.314014,-0.496508967,-0.587536525,1.87651868,-0.800677717,-0.207362443,0.293762654
97971.324043,-0.600144004,-0.747186221,1.1584049,-0.787275672,-0.236359209,0.327043116
97971.334072,-0.715569578,-0.491007813,0.397882881,-0.655444145,-0.260689855,0.317530841
97971.344101,-0.927974458,0.113279027,-0.105389881,-0.448021412,-0.268724591,0.238602474
97971.354130,-0.967062971,0.494064862,-0.251438521,-0.209781155,-0.280930668,0.152469993
97971.364159,-0.93815851,0.636848728,-0.618848522,0.0780698061,-0.34064886,0.0965113863
97971.374188,-1.11913087,0.689145901,-0.958509516,0.449711263,-0.425461739,0.038984444
97971.384217,-1.12181719,0.564480534,-0.685590401,0.77851367,-0.495466143,-0.023748979
97971.394246,-0.73401687,0.30049989,-0.0921159736,0.979730129,-0.528417706,-0.0928590745
97971.404275,-0.343452641,0.128523577,0.540887331,1.06551433,-0.488143772,-0.152149826
97971.414304,-0.122343171,-0.00187911001,1.15944301,1.03561234,-0.396801084,-0.17977187
97971.424333,-0.0648437349,-0.438084982,1.63822547,0.853430748,-0.304708958,-0.150021434
97971.434362,-0.121055287,-0.881555383,1.94661162,0.558358669,-0.238341391,-0.0771461576
97971.444391,-0.326347704,-0.850485925,2.02990891,0.255650192,-0.206016481,0.0208198205
97971.454420,-0.59471186,-0.763603615,1.89214412,-0.000989326043,-0.222612768,0.118907772
97971.464449,-0.872467017,-0.525489197,1.44213942,-0.145327061,-0.286888957,0.189306572
97971.474478,-1.17393988,-0.256767296,1.06102297,-0.166438207,-0.35575217,0.228492588
97971.484507,-1.33500606,-0.229274291,1.14233873,-0.162179545,-0.406921893,0.234470576
97971.494536,-1.11024935,-0.417521355,1.45287358,-0.145899117,-0.426838338,0.219688177
97971.504565,-0.770995332,-0.632862142,1.61610424,-0.0951315314,-0.429448783,0.159492746
97971.514594,-0.7390724,-0.660235595,1.61062961,0.0161896609,-0.414098829,0.0198309906
97971.524623,-0.877357858,-0.489511035,1.43918174,0.170723841,-0.346678257,-0.191871673
97971.534652,-0.902795739,-0.350959839,1.30187755,0.279406637,-0.285819441,-0.44407171
97971.544681,-1.02294699,-0.226957063,0.872523424,0.344926804,-0.201897904,-0.639064908
97971.554710,-1.26543699,-0.155939517,0.768605368,0.328065246,-0.126204744,-0.727075994
97971.564739,-1.54594496,-0.0953268802,0.368549235,0.320826262,-0.0894184932,-0.706964314
97971.574768,-1.95594293,-0.0086697748,0.152208916,0.27188161,-0.0935282856,-0.610984802
97971.584797,-1.95747788,-0.0712953953,0.468746808,0.177424625,-0.126922727,-0.455693722
97971.594826,-1.38374744,-0.200621631,1.0251,0.0827788115,-0.151099175,-0.281558156
97971.604855,-0.83951803,-0.351409409,1.55469905,-0.0137200346,-0.134131908,-0.163771331
97971.614884,-0.841509642,-0.288113835,1.75257724,-0.058409743,-0.136857912,-0.122159705
97971.624913,-0.835645718,-0.319312837,1.28874159,-0.0603663661,-0.169135436,-0.159722522
97971.634942,-0.892943842,-0.162666432,0.810925338,-0.0765703693,-0.161099866,-0.23213467
97971.644971,-1.01495811,-0.11454881,0.457254523,-0.126087323,-0.142725393,-0.285738528
97971.655000,-1.09504492,-0.0668356759,-0.0179062436,-0.193027481,-0.0982838944,-0.297140837
97971.665029,-0.915843291,0.0042703708,-0.18375147,-0.295565575,-0.0228858106,-0.256373703
97971.675058,-0.612806721,0.145659421,-0.391107104,-0.417861402,0.0787076578,-0.165600926
97971.685087,-0.468514424,0.0885499061,-0.701438543,-0.527570605,0.160737813,-0.0268278569
97971.695116,-0.465561237,-0.11745455,-1.23266782,-0.598442376,0.195175156,0.140036762
97971.705145,-0.559541324,-0.261380635,-1.7363778,-0.567899346,0.195720032,0.300451189
97971.715174,-0.680138565,-0.413840512,-2.1166356,-0.37088269,0.198331535,0.441208035
97971.725203,-0.971740973,-0.711896735,-2.16367324,-0.0855159238,0.175243258,0.536824882
97971.735232,-1.19669554,-0.823492485,-2.14711432,0.190336958,0.141647741,0.569391847
97971.745261,-1.20699598,-0.625655353,-2.06013863,0.423734516,0.102491818,0.547276676
97971.755290,-1.20185796,-0.27074716,-1.62952545,0.669530988,0.12184155,0.515505731
97971.765319,-1.40244279,0.100990897,-0.687792295,0.910413086,0.205462411,0.490460545
97971.775348,-1.50922471,0.461723704,0.0808797094,1.09076834,0.293299317,0.46661222
97971.785377,-1.68661161,0.603914938,0.487572505,1.18731928,0.325631171,0.465957075
97971.795406,-1.99194027,0.304028686,0.937080944,1.2290926,0.320420146,0.469365656
97971.805435,-2.07520512,-0.140661868,1.05007487,1.2802794,0.256252617,0.434957087
97971.815464,-1.77006614,-0.397718996,0.688913992,1.34814787,0.166096896,0.349357754
97971.825493,-1.36721277,-0.441864062,0.67601827,1.38911664,0.106118515,0.231347233
97971.835522,-1.00199838,-0.248654004,0.500702035,1.40964293,0.0711890236,0.116535693
97971.845551,-0.697577483,0.212700428,-0.334452319,1.33681023,-0.00826292578,0.0587088801
97971.855580,-0.955821811,0.500433374,-1.34246558,1.11691892,-0.169697896,0.0775496736
97971.865609,-1.74216092,0.560365354,-1.72222828,0.806064606,-0.333240747,0.160941765
97971.875638,-2.14395147,0.672731942,-1.11693716,0.405380279,-0.422594339,0.247893184
97971.885667,-2.06850343,0.768219292,0.0325233825,0.0234941784,-0.44359681,0.290636122
97971.895696,-1.73707689,0.5711869,1.2699796,-0.399202228,-0.440761089,0.273439556
97971.905725,-0.534641678,0.318532866,2.85123114,-0.835043252,-0.366649598,0.349522501
97971.915754,0.986353436,-0.0418387617,3.7873184,-1.08934402,-0.217505395,0.418853372
97971.925783,1.73252259,0.00128967448,4.06024804,-1.17872524,-0.0778247342,0.377606332
97971.935812,2.07318165,0.423206269,3.6218233,-1.09154832,-0.0461632088,0.248211861
97971.945841,1.86817551,0.7605934,2.30809165,-0.872573018,-0.148534581,0.0555545241
97971.955870,1.41781177,0.886363952,1.41020816,-0.623214602,-0.321593732,-0.139701784
97971.965899,1.47805946,0.995338414,0.971086089,-0.497466534,-0.466107756,-0.255545557
97971.975928,1.72949243,0.852327754,0.693528792,-0.561255097,-0.533832729,-0.282267183
97971.985957,1.63229053,0.658087184,0.446497567,-0.744746387,-0.530066729,-0.268465638
97971.995986,1.54469189,0.521882149,-0.0415595064,-1.00261414,-0.506924689,-0.246445537
97972.006015,1.5748595,0.436949548,-0.692886403,-1.1818893,-0.471096396,-0.255502164
97972.016044,1.75021022,0.460116269,-1.07849023,-1.22018802,-0.414214998,-0.304552794
97972.026073,2.10655946,0.364879752,-1.20036246,-1.12887406,-0.352436572,-0.369117677
97972.036102,2.49222949,0.107892594,-1.21623457,-0.974485815,-0.330941409,-0.399690211
97972.046131,2.91037833,-0.158016013,-1.17190969,-0.750753403,-0.344301432,-0.365660608
97972.056160,3.3281069,-0.221923818,-0.845012901,-0.478565007,-0.332554489,-0.322382659
97972.066189,3.4907317,0.0607827143,-0.531041059,-0.199511796,-0.308175653,-0.275341898
97972.076218,3.38210883,0.137273276,-0.0653922174,-0.0257557202,-0.244985223,-0.197218612
97972.086247,3.1917017,-0.228705514,0.381159125,0.0087631084,-0.199488044,-0.0539607853
97972.096276,2.78776902,-0.66181205,0.41237844,-0.0931510031,-0.208733737,0.131283909
97972.106305,2.20522106,-0.921319384,0.481781062,-0.314335853,-0.241586238,0.305536389
97972.116333,1.77790107,-0.9837396,0.615061989,-0.556007087,-0.239388332,0.435256034
97972.126362,1.54962014,-0.967043316,1.05462362,-0.765340567,-0.178331092,0.505366385
97972.136391,1.50655315,-0.87776147,1.68315942,-0.872594893,-0.0557087772,0.498243004
97972.146420,1.57366503,-0.643435486,2.23108966,-0.791026533,0.129144967,0.397837043
97972.156449,1.29150287,-0.244507552,2.6027807,-0.500156581,0.305985779,0.195002168
97972.166478,0.702831458,0.235855898,2.28050631,-0.0460641868,0.377912968,-0.0683794022
97972.176507,0.331598172,0.363683784,2.02915137,0.41461128,0.331460238,-0.300227016
97972.186536,0.275343858,0.0325183775,2.20338274,0.809792936,0.211477384,-0.428367674
97972.196565,0.491836592,-0.207825918,2.44756442,1.07201445,0.066728726,-0.487882137
97972.206594,0.814521316,-0.410266197,2.67242882,1.17169607,-0.0621650741,-0.514533758
97972.216623,1.09612789,-0.757471688,3.07751359,1.14693367,-0.123075835,-0.522636712
97972.226652,1.18127095,-0.939224897,3.44361777,1.00288701,-0.117468543,-0.52131176
97972.236681,1.2609353,-0.908515943,3.58963076,0.74548614,-0.064701736,-0.506168246
97972.246710,1.34098148,-0.853084856,3.62308002,0.433243275,0.0478807315,-0.49250564
97972.256739,1.33275346,-0.471098559,3.729093,0.0900574327,0.204706833,-0.471576929
97972.266768,1.42684964,0.0348582552,3.45610316,-0.224272534,0.346601665,-0.421684474
97972.276797,1.41488638,0.557737124,2.91325534,-0.517751575,0.422590166,-0.351872623
97972.286826,1.18958483,1.12386857,2.48874165,-0.744571388,0.409095377,-0.268285602
97972.296855,1.01455552,1.2959863,1.97222479,-0.869785488,0.31082207,-0.156191543
97972.306884,0.84784469,1.30786115,1.64748313,-0.912520707,0.17960681,-0.0631926283
97972.316913,0.677180957,1.28858362,1.3135522,-0.917249441,0.0390600786,-0.0190579295
97972.326942,0.440382226,1.16011462,0.867777106,-0.938549936,-0.0893274546,-0.0331447199
97972.336971,0.256180308,1.06484472,0.460562917,-0.944264531,-0.156288654,-0.0597084165
97972.347000,0.358364014,1.05240039,0.157213592,-0.870132267,-0.128085777,-0.0718409792
97972.357029,0.549664,1.30672747,-0.293575535,-0.732103825,-0.047885742,-0.0795287266
97972.367058,0.92937468,1.47683722,-0.756021781,-0.59192729,0.0505620018,-0.0508550107
97972.377087,1.42140117,1.29444272,-0.889661021,-0.411970556,0.170309708,0.041078113
97972.387116,1.65510062,1.07988746,-0.967371452,-0.193892255,0.252489001,0.152706906
97972.397145,1.45018624,0.912032354,-1.40308517,-0.0504291058,0.238415524,0.221685708
97972.407174,1.17102604,0.767496238,-1.7089269,0.0925107375,0.176547632,0.218941852
97972.417202,0.768528212,0.84221231,-1.77800102,0.204452723,0.13343212,0.130639151
97972.427231,0.670734338,0.935670931,-1.49470021,0.278053939,0.141634658,0.0152901905
97972.437260,1.08113205,0.812830002,-1.35668174,0.344963998,0.189709768,-0.0650355369
97972.447289,1.23173112,0.607910328,-1.48765497,0.445130289,0.258153796,-0.127754852
97972.457318,1.27691101,0.49388841,-2.04246035,0.561932802,0.326740056,-0.167329952
97972.467347,1.48736914,0.298360212,-2.81079918,0.663959563,0.391690314,-0.145949557
97972.477376,1.444914,0.001787541,-3.40851256,0.693009615,0.451843113,-0.0387791693
97972.487405,1.05541784,-0.494704841,-4.01198991,0.560576737,0.449795961,0.155705094
97972.497434,0.703668713,-1.06210243,-4.28289944,0.374554932,0.408300966,0.399876744
97972.507463,0.476853688,-1.20780788,-3.74074837,0.260751396,0.385599911,0.584402382
97972.517492,0.466875973,-0.748347959,-2.95618322,0.19678095,0.395382226,0.637821615
97972.527521,0.682044179,-0.397126072,-2.35051859,0.176960379,0.427615017,0.613721609
97972.537550,0.713336632,-0.304231515,-1.80920806,0.191892982,0.453647673,0.557749152
97972.547579,0.399491266,-0.066610087,-1.50137545,0.20505619,0.444333792,0.448086083
97972.557608,-0.116415526,0.266191488,-1.48558167,0.212484285,0.393687397,0.308849901
97972.567637,-0.685375881,0.397205822,-1.762866,0.218671337,0.306365818,0.17730999
97972.577666,-1.28020216,0.466165596,-2.09851133,0.244334087,0.236761168,0.0413920954
97972.587695,-1.55445136,0.594311207,-2.13093183,0.285794169,0.206299141,-0.102428183
97972.597724,-1.69151911,0.630798999,-2.07500302,0.352477044,0.182886481,-0.232694849
97972.607753,-1.88307789,0.615969167,-2.01156545,0.392781585,0.152738705,-0.321585566
97972.617782,-1.72049371,0.452898447,-1.67624921,0.439123541,0.128851742,-0.361339897
97972.627811,-1.31661904,0.25565654,-1.24703537,0.516089976,0.109608278,-0.329003811
97972.637839,-0.962331778,-0.0850619452,-0.723734546,0.596629024,0.0903413743,-0.244721144
97972.647868,-0.410901353,-0.296396876,-0.0715676911,0.648525238,0.0594005026,-0.134344846
97972.657897,0.458048523,-0.48013892,0.420579282,0.709362745,0.0239189416,-0.00182568002
97972.667926,1.12055594,-0.668385145,1.1566221,0.750406027,0.0203585606,0.136286125
97972.677955,1.54232808,-0.621850115,2.07043089,0.726231217,0.04684503,0.268978387
97972.687984,1.91681255,-0.49627651,2.54032804,0.627064645,0.0350189954,0.424913645
97972.698013,2.03242689,-0.224955587,2.2010353,0.631684482,-0.00885871146,0.558234692
97972.708042,1.38149381,0.462917883,1.61131233,0.722853243,-0.0491454154,0.57294786
97972.718071,0.802152395,1.14090899,1.38344232,0.802731276,-0.0731649995,0.511071146
97972.728100,0.814560991,1.20555251,1.03594055,0.814283848,-0.0754294842,0.43773517
97972.738129,0.784587877,1.18092316,0.998491982,0.673603654,-0.0238075685,0.352588594
97972.748158,0.810969908,1.02180352,0.840872732,0.469511807,0.04032268,0.291145205
97972.758187,0.778258894,0.650041533,0.237829097,0.272467971,0.0850078613,0.236970127
97972.768216,0.46555751,0.263745921,-0.325613764,0.0392656252,0.0667215288,0.175103292
97972.778245,0.0685823186,-0.0200932322,-0.928248818,-0.110279128,-0.00712126587,0.110007115
97972.788274,-0.183988293,-0.00658851154,-1.48043437,-0.154098511,-0.1018539,0.0412387028
97972.798303,-0.23171741,0.238296057,-1.7781717,-0.150359958,-0.193077549,-0.0140924659
97972.808332,-0.260810197,0.453430581,-1.74158706,-0.101398014,-0.2506226,-0.0318682641
97972.818361,-0.205125463,0.533643424,-1.3703841,-0.0736393556,-0.270051688,-0.00761033222
97972.828389,0.185819838,0.603022519,-1.06665483,-0.0956016481,-0.246188447,0.0299282558
97972.838418,0.732372245,0.556095056,-0.718117875,-0.167065978,-0.157293722,0.0772371814
97972.848447,1.01388741,0.133193834,-0.469394458,-0.305219054,-0.0404240973,0.135165468
97972.858476,0.95723482,-0.466940928,-0.679253014,-0.462483257,0.065718323,0.191426337
97972.868505,0.538790943,-1.03283652,-1.06286538,-0.594708681,0.141071662,0.222475335
97972.878534,0.109029535,-1.32482032,-1.48496559,-0.706535578,0.142568097,0.208154187
97972.888563,-0.192715442,-1.20671395,-2.03046713,-0.789835572,0.0695697814,0.14515312
97972.898592,-0.556476164,-0.725613126,-2.62587983,-0.769889295,-0.0197832659,0.0503211468
97972.908621,-0.869804812,-0.0774964236,-3.05042743,-0.672469318,-0.0587212294,-0.0573175251
97972.918650,-0.770074637,0.615007629,-3.24933263,-0.599749029,-0.0690468401,-0.163449824
97972.928679,-0.523453819,0.925217268,-3.51665963,-0.620668411,-0.0807682127,-0.227716148
97972.938708,-0.549699802,0.810222596,-3.67830974,-0.660485864,-0.0713387579,-0.246772394
97972.948737,-0.839867062,0.679816566,-3.78605583,-0.759577572,-0.0763572156,-0.267831862
97972.958766,-1.19419276,0.241759715,-3.8546109,-0.891222656,-0.110656865,-0.2899068
97972.968795,-1.5477162,-0.1268776,-3.7990252,-0.949655116,-0.133985087,-0.361465991
97972.978824,-1.76349991,-0.163528657,-3.34493002,-0.949308336,-0.131944314,-0.479425073
97972.988852,-1.41662694,-0.231812833,-2.4608921,-0.90942806,-0.0917505547,-0.595129848
97972.998881,-0.982008904,-0.253428799,-1.17875912,-0.848078907,-0.00661222311,-0.696642876
97973.008910,-0.784574287,0.0182005138,0.0128279174,-0.770486653,0.0919095576,-0.777747333
97973.018939,-0.606802184,0.31025768,0.868111452,-0.657501519,0.162187457,-0.812481582
97973.028968,-0.379983506,0.446290536,1.53353994,-0.534607053,0.195730761,-0.7832129
97973.038997,-0.139076636,0.459441329,1.93488728,-0.400789589,0.239053473,-0.732955635
97973.049026,-0.433437631,0.460811412,2.11616915,-0.330972672,0.212935582,-0.653410435
97973.059055,-0.663538143,0.194957449,1.59290164,-0.251815021,0.115266807,-0.53214395
97973.069084,-0.853325971,0.0788385224,1.25133979,-0.222562313,-0.0368420295,-0.398554504
97973.079113,-1.02076073,0.0674443641,1.09560386,-0.229413301,-0.196793348,-0.265753806
97973.089142,-0.769838198,0.084212507,1.20536129,-0.20814316,-0.283136487,-0.143898755
97973.099171,-0.475889154,0.385393694,1.43170395,-0.131448388,-0.257228196,-0.0609641895
97973.109200,-0.399581429,0.71685085,1.47072137,-0.00571335293,-0.168298319,-0.0193405785
97973.119229,-0.272566649,0.764864721,1.26401514,0.119684249,-0.0683168694,0.00659408327
97973.129258,-0.265222898,0.662778411,0.928591932,0.202989519,-0.00786364172,0.0171889365
97973.139286,-0.446719977,0.537432331,0.377169179,0.238226861,0.00481193932,0.00184753118
97973.149315,-0.574961559,0.514616287,-0.112886374,0.237169594,-0.00855446607,-0.0305809826
97973.159344,-0.747254099,0.65164853,-0.555309239,0.225739568,-0.0157527253,-0.0758725628
97973.169373,-1.12098205,0.885292304,-0.681157971,0.232134894,0.0196460113,-0.134122819
97973.179402,-1.30039462,1.0393825,-0.608913988,0.270365626,0.0719880462,-0.192678541
97973.189431,-1.2843416,1.04100543,-0.375409768,0.276893318,0.0989648029,-0.231763631
97973.199460,-1.12271151,0.826794596,-0.0567003769,0.264084816,0.0963764712,-0.231423542
97973.209489,-0.817853822,0.493356495,0.212395965,0.204807922,0.0819240287,-0.209368303
97973.219518,-0.499620633,0.0966833912,0.423030182,0.104605168,0.0610509776,-0.192091852
97973.229547,-0.372663757,-0.313125636,0.220356569,-0.00737889344,0.0204920992,-0.200115412
97973.239576,-0.456279029,-0.764513934,-0.158867789,-0.168804541,-0.0350928642,-0.229830176
97973.249605,-0.594294328,-1.10026842,-0.574547024,-0.382320285,-0.0903449357,-0.257608831
97973.259634,-0.725370622,-1.00743319,-1.15624801,-0.575956583,-0.154716462,-0.231620088
97973.269663,-0.355036039,-0.8045257,-1.6445687,-0.723350585,-0.202722609,-0.124126375
97973.279691,0.116903729,-0.342084495,-1.82125798,-0.821505904,-0.206407353,0.0742452964
97973.289720,0.485779666,0.211583699,-1.70871647,-0.854961574,-0.17056413,0.354156017
97973.299749,0.775921902,0.643414443,-1.64625446,-0.785052299,-0.135218665,0.647831857
97973.309778,0.765803682,1.02245767,-1.6684698,-0.637561083,-0.140085861,0.878530324
97973.319807,0.593110635,1.05908798,-1.5201199,-0.473086417,-0.198001891,1.00758946
97973.329836,0.333276334,0.762230353,-1.26186469,-0.33365342,-0.268289894,1.04234886
97973.339865,0.17924656,0.342978959,-0.741577661,-0.197429538,-0.292104423,1.02173805
97973.349894,0.156251688,-0.152294548,0.101099491,-0.0581240952,-0.240056664,0.952849329
97973.359923,0.312832791,-0.505887037,1.07563134,0.0746435374,-0.123583853,0.82707727
97973.369952,0.39527226,-0.810997599,1.85728674,0.256826907,0.00821199734,0.649231374
97973.379981,0.525793953,-0.754507139,2.51786136,0.509471714,0.126792178,0.434250593
97973.390010,0.636066564,-0.530370101,3.05291165,0.781501353,0.176393554,0.247875944
97973.400039,0.723006085,-0.537767591,3.31655031,1.06549072,0.168717787,0.143100798
97973.410067,0.624641938,-0.67382171,3.5438095,1.33127129,0.128705665,0.100085683
97973.420096,0.603750212,-0.835579813,3.97767964,1.48878396,0.0975685045,0.103748061
97973.430125,0.994998587,-1.12786684,4.48805259,1.61615682,0.15418759,0.127949268
97973.440154,1.08771662,-1.07048126,4.96662872,1.70344174,0.274480164,0.126925558
97973.450183,0.933348844,-0.994216497,4.97379554,1.72393334,0.39215675,0.104362987
97973.460212,0.755709208,-1.09701936,4.77917606,1.59134257,0.442030281,0.121933728
97973.470241,0.442681918,-1.11272093,4.4119005,1.32679749,0.393939734,0.173747391
97973.480270,0.0328003545,-1.19878411,3.87467286,1.03629589,0.266667247,0.234870657
97973.490299,-0.442712422,-1.19597431,3.46189928,0.750343144,0.095352225,0.226171181
97973.500328,-0.871478079,-0.887846665,3.037959,0.461719602,-0.0904975384,0.10584823
97973.510357,-0.96597861,-0.745415997,2.74789936,0.132022664,-0.262770236,-0.0552391931
97973.520386,-0.654695423,-0.833020557,2.72776434,-0.211007386,-0.366481453,-0.196618959
97973.530415,-0.136766158,-0.925499154,2.75917128,-0.5582093,-0.382468671,-0.31344384
97973.540444,0.444443667,-0.784942171,2.95147665,-0.850854993,-0.295417398,-0.415255964
97973.550472,1.08615507,-0.319701909,3.24745866,-1.05469811,-0.144003898,-0.493643939
97973.560501,1.80498036,0.0934582186,3.44247445,-1.13287306,0.00623220298,-0.533327162
97973.570530,2.28853501,0.432618204,3.37385976,-1.13673198,0.101021029,-0.522066295
97973.580559,2.19768832,0.624767172,2.94982303,-1.10587931,0.100137658,-0.461887658
97973.590588,1.7323655,0.630684652,2.15793616,-1.02937591,0.0323077478,-0.361388445
97973.600617,1.09605972,0.604980192,1.27886667,-0.885451853,-0.0542255454,-0.263672292
97973.610646,0.409950957,0.617029782,0.417925552,-0.7346192,-0.137889549,-0.191535518
97973.620675,-0.101930352,0.431333863,-0.0896755948,-0.587190628,-0.203067482,-0.104181968
97973.630704,-0.278195229,0.124046468,-0.388602427,-0.42772451,-0.233521,0.0106788399
97973.640733,-0.228169234,0.133927847,-0.411601025,-0.287502974,-0.226546705,0.109276786
97973.650762,0.0869641986,0.380404362,-0.325328517,-0.141750023,-0.191185266,0.147255853
97973.660791,0.479776334,0.654035279,-0.301854118,0.0793453455,-0.143534124,0.147607133
97973.670819,0.499833947,0.90523093,-0.365401584,0.335144877,-0.0908245742,0.109430186
97973.680848,0.191965811,1.15466169,-0.774762137,0.603720963,-0.064506948,0.0411432721
97973.690877,-0.0887303863,1.22724316,-1.4586206,0.810759366,-0.0899180323,-0.0110653378
97973.700906,-0.195600021,0.915156697,-1.98740307,0.956293404,-0.166888177,0.0108024105
97973.710935,0.170706056,0.485036995,-2.62428234,1.13082528,-0.250189185,0.130010828
97973.720964,0.949667819,0.153671828,-3.06374284,1.31446779,-0.304438055,0.312917531
97973.730993,1.64406134,-0.0275652121,-3.24830914,1.42616534,-0.335643649,0.490160465
97973.741022,2.00556475,-0.219577091,-3.10925781,1.42773533,-0.315781236,0.636504412
97973.751051,2.16390705,-0.302365356,-2.33038999,1.29893601,-0.256798089,0.745874584
97973.761080,1.98335934,-0.33403519,-1.39647365,1.03867412,-0.169567049,0.806464136
97973.771109,1.62355251,-0.280689311,-0.0919283421,0.628509402,-0.0426205546,0.807264924
97973.781138,1.15808955,-0.0293809928,1.28579092,0.186460346,0.111440115,0.736829937
97973.791167,0.651759589,0.345094709,2.19257259,-0.219080761,0.257742196,0.590945184
97973.801195,0.412339021,0.49801634,2.94447641,-0.633591652,0.363615632,0.429639637
97973.811224,0.393038547,0.30497594,3.29845878,-0.984211206,0.400054336,0.286310673
97973.821253,0.128380022,0.0812917608,2.83645969,-1.24831688,0.339253843,0.147207662
97973.831282,-0.358252589,0.0527075444,1.70057876,-1.40083814,0.168773457,0.021867577
97973.841311,-0.686342242,0.0700081045,0.018839725,-1.45094931,-0.0739151016,-0.0672615021
97973.851340,-0.919521614,0.156935834,-1.56011815,-1.35494876,-0.314062983,-0.152728721
97973.861369,-1.06643776,0.425658412,-2.65730022,-1.15303957,-0.478105187,-0.256997347
97973.871398,-0.768119485,0.600190072,-2.74072202,-0.962455332,-0.473210812,-0.348139763
97973.881427,-0.0347041606,0.744050627,-1.81277131,-0.79199487,-0.288935781,-0.382026911
97973.891456,0.641175213,1.06141262,-0.799990687,-0.612965465,0.00312695722,-0.378606617
97973.901485,1.00324575,1.54164273,-0.000441898549,-0.408429116,0.28487128,-0.381480694
97973.911514,1.05005953,1.89009858,0.411997331,-0.193343446,0.460768104,-0.404554665
97973.921542,0.987316508,1.90433681,0.670026336,0.0150963105,0.52928406,-0.418892056
97973.931571,0.900292013,1.69216223,0.824509626,0.184155375,0.517689943,-0.412974507
97973.941600,0.64224138,1.4765378,0.489821745,0.344088316,0.416043222,-0.359537929
97973.951629,0.533263339,1.12457131,-0.0581949993,0.400115103,0.266140014,-0.266197592
97973.961658,0.699212756,0.691079426,-0.231695709,0.385152936,0.129865021,-0.165773243
97973.971687,0.783889666,0.445036591,-0.515251954,0.329139739,0.0322060995,-0.126936629
97973.981716,0.414694279,0.584816635,-0.93972006,0.286664963,-0.00462621637,-0.168168753
97973.991745,-0.0858973731,0.745955145,-1.25976275,0.275492489,0.0269977562,-0.261674464
97974.001774,-0.488429742,0.86078016,-1.3349346,0.330425233,0.0959667042,-0.34416002
97974.011803,-0.736667896,1.00259971,-1.29980308,0.420827568,0.146951064,-0.400895208
97974.021832,-0.811683097,1.04770756,-0.883256414,0.460383505,0.143223435,-0.417232096
97974.031860,-0.503149282,0.854679724,-0.437488331,0.449741781,0.0871700123,-0.375270814
97974.041889,-0.300884396,0.642024011,-0.0870481689,0.363169611,0.0514370538,-0.31145215
97974.051918,-0.221336776,0.453344291,0.258340555,0.186435312,0.00751247164,-0.186958149
97974.061947,0.20678682,-0.0479892563,0.223151168,-0.0682172179,-0.0765613988,-0.00318086427
97974.071976,0.333297048,-0.389052838,-0.0681575904,-0.318173796,-0.187366992,0.174300969
97974.082005,0.267353316,-0.31406668,-0.260204595,-0.526760876,-0.267039746,0.281325966
97974.092034,0.409076987,-0.170342209,-0.391803854,-0.706224859,-0.281196564,0.3376939
97974.102063,0.603792773,-0.0961853968,-0.28831133,-0.850129068,-0.194313049,0.370078206
97974.112092,0.840584928,-0.0245236889,0.135496266,-0.899229467,-0.0162953902,0.376383245
97974.122121,1.01394185,0.0498468212,0.478480267,-0.85814333,0.199539706,0.358127803
97974.132150,1.17732236,0.123928103,0.660025167,-0.744227409,0.375565588,0.325408459
97974.142179,1.29514254,0.306789894,0.452527495,-0.606894553,0.438822836,0.270829111
97974.152207,1.31656118,0.318062362,0.137774732,-0.482684433,0.385540187,0.235555276
97974.162236,1.12957606,0.10696188,-0.271093654,-0.34763822,0.254324913,0.251480728
97974.172265,0.721147963,-0.0269449247,-0.891179609,-0.234063447,0.109252676,0.303602248
97974.182294,0.383525855,-0.235704214,-1.42454765,-0.144530624,-0.00524806511,0.380106062
97974.192323,0.065969209,-0.574796103,-2.04017779,-0.0611617081,-0.0978355259,0.452825278
97974.202352,-0.201459049,-0.839671613,-2.5906846,0.0917950869,-0.161658436,0.501727879
97974.212381,-0.0697832554,-0.925720395,-2.59251591,0.328927219,-0.161363631,0.535379291
97974.222410,0.356022711,-0.921705095,-2.1330782,0.576325536,-0.0868142992,0.52872169
97974.232439,0.65426938,-0.886115603,-1.45007372,0.837878048,0.042104803,0.505874395
97974.242468,0.733200293,-0.838910785,-0.868403129,1.08671641,0.138637468,0.485436231
97974.252497,0.785311808,-0.657838836,-0.533408958,1.27541792,0.169702187,0.446354866
97974.262525,0.65909132,-0.463100327,-0.108303723,1.42066193,0.154576495,0.389752835
97974.272554,0.664170304,-0.25517051,0.221850607,1.50454164,0.0860038176,0.346542507
97974.282583,0.713379229,-0.0794928033,0.497307717,1.48567045,-0.0212272983,0.31713295
97974.292612,0.685116792,-0.0865126737,0.816121737,1.41165829,-0.116445959,0.279071063
97974.302641,0.712528238,-0.0905310791,1.09001116,1.32743371,-0.195937052,0.216440976
97974.312670,0.611076865,-0.0942632148,1.09903852,1.23118246,-0.255575627,0.094039157
97974.322699,0.497945795,-0.126467558,1.19362292,1.12593257,-0.25738579,-0.0667348057
97974.332728,0.628048751,-0.295589943,1.24293378,1.02465332,-0.177023545,-0.238896728
97974.342757,0.651155266,-0.502626866,1.27536539,0.946885467,-0.0209503286,-0.420660406
97974.352786,0.690697222,-0.690945206,1.55140994,0.806689501,0.200320542,-0.572833359
97974.362815,1.05782483,-0.840489432,1.80400056,0.626600921,0.387649953,-0.618972361
97974.372843,1.43255955,-0.937300578,1.50600078,0.445550501,0.469822317,-0.52320087
97974.382872,1.70361857,-1.08472328,1.22940443,0.24263227,0.426503599,-0.338497609
97974.392901,1.73484489,-0.894366349,0.936297684,0.0720653236,0.252806365,-0.118571371
97974.402930,1.59759156,-0.554581217,0.529431871,-0.0582522042,-2.80028908e-05,0.0868784487
97974.412959,1.43900448,-0.229845624,0.457638554,-0.165871069,-0.236796603,0.239240021
97974.422988,1.25105439,0.168026443,0.815453629,-0.30997631,-0.365620375,0.340392739
97974.433017,1.02597438,0.381006419,0.99622696,-0.393833399,-0.385302991,0.389790386
97974.443046,0.700163773,0.398256683,0.784236653,-0.418284684,-0.340355217,0.362808317
97974.453075,0.67013703,0.320612375,0.569165331,-0.428041965,-0.238902092,0.263124049
97974.463104,0.732715286,0.285607844,0.528685436,-0.391821384,-0.0938152149,0.130281061
97974.473133,0.874151755,0.0179847156,0.398457466,-0.315735668,0.0698733181,0.0325627513
97974.483161,1.07776111,-0.192514769,-0.0512929649,-0.211873457,0.194670379,-0.0297770537
97974.493190,0.982840313,-0.146480674,-0.951192471,-0.0532736927,0.23301138,-0.0940039754
97974.503219,0.807905332,-0.0281620454,-1.42512107,0.0439564548,0.202882245,-0.167260617
97974.513248,0.912790552,-0.0685108608,-1.30387018,0.0693582222,0.142512366,-0.19208315
97974.523277,1.10389911,-0.213632375,-1.07260293,0.0660865307,0.0739524812,-0.165631562
97974.533306,1.12000378,-0.16821181,-0.563473841,0.069392845,0.0224344283,-0.138711795
97974.543335,1.34550597,0.0847026286,0.0760585728,0.0440166406,0.00462773535,-0.112994984
97974.553364,1.83975006,0.201484476,0.590048544,-0.0051280004,0.0154007543,-0.0741948485
97974.563393,2.15595141,0.325386969,0.799327839,-0.0492792167,0.0610523969,-0.0363795646
97974.573422,2.1863147,0.503143802,0.91916301,-0.0997378603,0.138004437,-0.0218935646
97974.583451,2.24231438,0.64283109,0.881831935,-0.195135489,0.206692696,-0.0237987898
97974.593479,2.33173644,0.749772512,0.563278026,-0.296967834,0.240597665,-0.0381817259
97974.603508,2.0963955,0.858655276,0.227637374,-0.374704987,0.234715536,-0.0744340122
97974.613537,1.63080058,0.90896208,-0.16944179,-0.413193792,0.1890378,-0.15351364
97974.623566,1.22964073,1.03053467,-0.440513232,-0.460877687,0.140395686,-0.269267142
97974.633595,1.14172082,1.01263807,-0.416421578,-0.444767952,0.129771277,-0.379502833
97974.643624,1.19149168,0.950395329,-0.146368957,-0.381832391,0.161462098,-0.470798403
97974.653653,1.29778999,0.953963543,0.0825467658,-0.317456335,0.20325987,-0.543146849
97974.663682,1.42824446,0.82232841,0.12269056,-0.262912661,0.237703606,-0.581416249
97974.673711,1.39096292,0.553068511,-0.00172784671,-0.225203633,0.235776812,-0.580232978
97974.683740,1.20419459,0.323979441,-0.273097395,-0.223576978,0.190764591,-0.535509706
97974.693769,0.979277067,0.0661667819,-0.690816026,-0.251817137,0.0967906862,-0.451559454
97974.703797,0.556100755,-0.245907263,-1.00997725,-0.326637328,-0.0168301519,-0.35635516
97974.713826,0.196255891,-0.480323776,-1.16868722,-0.401806116,-0.127082616,-0.282484949
97974.723855,0.0343963185,-0.476282099,-1.14873047,-0.462081432,-0.188071936,-0.241942585
97974.733884,0.207197009,-0.468191658,-0.729013947,-0.471277326,-0.164909899,-0.233186632
97974.743913,0.533124697,-0.156491159,-0.0852671307,-0.420541704,-0.0647071302,-0.248879045
97974.753942,0.835673995,0.237586904,0.430531351,-0.310070336,0.0680977851,-0.282037795
97974.763971,0.93108974,0.561648598,0.69384385,-0.152272701,0.196641922,-0.307140768
97974.774000,0.812816778,0.700768388,0.818785404,-0.00661590835,0.278000146,-0.307869673
97974.784029,0.640560661,0.736216718,0.574002834,0.130000263,0.296710193,-0.270484746
97974.794058,0.477488077,0.485271023,0.25581659,0.197932437,0.256156355,-0.179543644
97974.804087,0.142754237,0.141163425,-0.166779877,0.240830913,0.156175718,-0.0622050352
97974.814115,-0.455039989,-0.0558908688,-0.627308307,0.255221575,0.0370764919,0.0440063551
97974.824144,-0.882349967,-0.310205036,-0.801279558,0.269632995,-0.0786122978,0.127389133
97974.834173,-1.07175026,-0.361860076,-0.803798847,0.248199612,-0.152662545,0.174696714
97974.844202,-0.91765224,-0.236032606,-0.514437131,0.257952899,-0.174200863,0.194525287
97974.854231,-0.555544436,-0.0202255899,-0.210242002,0.27409777,-0.160282657,0.192905292
97974.864260,-0.179054599,0.191819041,0.0959650503,0.296464354,-0.128949225,0.181954369
97974.874289,-0.0167985198,0.390359171,0.250168355,0.314798355,-0.0930064172,0.167418838
97974.884318,0.0797324755,0.456892631,0.403814025,0.322746545,-0.0581914373,0.161608621
97974.894347,0.19846458,0.396531649,0.418159946,0.292806745,-0.0360296778,0.161281839
97974.904376,0.287861797,0.386505601,0.415070163,0.233956486,-0.0120290061,0.152079821
97974.914405,0.333827173,0.496992696,0.318754399,0.184015647,0.00783930533,0.103805967
97974.924433,0.257352658,0.632899479,0.0408615872,0.170193568,0.0188048705,0.0265726969
97974.934462,0.237399967,0.636084465,-0.122039987,0.200958148,0.0204440448,-0.0465108305
97974.944491,0.333132761,0.532906013,-0.101678167,0.215297133,0.0146506056,-0.10260766
97974.954520,0.49691521,0.383627708,0.0834925222,0.178918883,0.000344104134,-0.111084767
97974.964549,0.665151862,0.17460889,0.202082077,0.112242922,-0.0233031679,-0.0736473799
97974.974578,0.680280311,-0.044070174,0.311118206,0.038117297,-0.04732861,-0.012159518
97974.984607,0.710926575,-0.0555555542,0.39270051,-0.0515681133,-0.0695044845,0.0323488265
97974.994636,0.751159801,-0.00379935575,0.310384046,-0.132291451,-0.0865484551,0.0620571896
97975.004665,0.673086162,-0.0444630092,0.248671978,-0.1956193,-0.0818777978,0.0821885541
97975.014694,0.558307325,-0.116994285,0.272663095,-0.245035052,-0.0652647316,0.0943533406
97975.024723,0.502279148,-0.121712253,0.200980253,-0.26326865,-0.045929648,0.095729664
97975.034751,0.441970883,-0.0171923231,-0.0760474669,-0.212048873,-0.0308947768,0.0707497448
97975.044780,0.223609945,0.131772752,-0.288990545,-0.136320025,-0.0228973031,0.0274672545
97975.054809,0.113479756,0.210562028,-0.297559636,-0.078622371,-0.0292540025,6.94515184e-05
97975.064838,0.129279309,0.218331931,-0.410697939,-0.0220829286,-0.0284313522,0.000634042546
97975.074867,0.0753341493,0.32557588,-0.218974175,0.0206333753,0.000507888559,0.0163232572
97975.084896,0.0304017141,0.312235958,-0.132986329,0.0497063063,0.0249386616,0.0494596399
97975.094925,-0.0284636587,0.106419736,-0.16854981,0.0349241644,0.00698496262,0.0961792096
97975.104954,-0.0328003545,-0.0319548984,-0.252126503,0.0190815516,-0.0487195775,0.142738983
97975.114983,-0.0553721605,-0.0670334818,-0.205805481,0.0119360248,-0.0946423337,0.161332905
97975.125012,-0.104241442,0.0502941266,-0.092726799,0.0313834921,-0.116291434,0.13951683
97975.135041,-0.177243568,0.179813035,-0.128930331,0.0542672388,-0.119078435,0.0962617621
97975.145069,-0.290351367,0.211668236,-0.199566295,0.0907677263,-0.114816308,0.0512359664
97975.155098,-0.427328427,0.218869399,-0.261235107,0.103742115,-0.105787657,0.0120496824
97975.165127,-0.493774793,0.245717476,-0.196829563,0.107917413,-0.0993931442,-0.0204885527
97975.175156,-0.357307637,0.138187039,-0.0909609584,0.0816112459,-0.0841825008,-0.03060963
97975.185186,-0.164366569,0.0770958434,0.11364976,0.0467704386,-0.0611160584,-0.0339729376
97975.195215,0.0281848509,0.0089371205,0.202283737,0.0144034429,-0.0358330719,-0.0364518054
97975.205244,0.19420674,0.110229503,0.235213946,-0.00248472602,-0.0163371377,-0.0572833195
97975.215273,0.268131936,0.179169586,0.274016263,-0.00896126777,0.000974208058,-0.0890063643
97975.225302,0.332418585,0.119328098,0.376112363,-0.0124947503,0.022689091,-0.118410856
97975.235330,0.345437203,0.0361883712,0.352665437,-0.0209444277,0.0431043506,-0.137007177
97975.245360,0.300795951,-0.0676140947,0.287389539,-0.0521343015,0.0591746643,-0.132118672
97975.255388,0.28611835,-0.205414363,0.241159703,-0.101267226,0.055742383,-0.092805095
97975.265417,0.289429557,-0.258178642,0.200322666,-0.166249424,0.0375218354,-0.0310839377
97975.275446,0.388206998,-0.252255865,0.172373752,-0.224852815,0.00880336948,0.0335701555
97975.285475,0.43832712,-0.13556955,0.120509124,-0.242312238,-0.0177856311,0.0848003179
97975.295504,0.310568938,0.0304129662,0.0257031811,-0.238522559,-0.0401833467,0.103835799
97975.305533,0.225757844,0.117134387,0.0310603242,-0.210153759,-0.050446637,0.110650562
97975.315561,0.163304748,0.170674181,-0.0332347456,-0.159228802,-0.0423415713,0.103997447
97975.325591,0.0596102273,0.2950558,-0.0325204599,-0.109113164,-0.0232286006,0.0744555369
97975.335620,-0.0604134517,0.43915188,-0.0390986692,-0.0422047079,-0.00569487968,0.0301290825
97975.345649,-0.0831802505,0.478774866,-0.0941401729,0.0281426907,0.00199419865,-0.00737781171
97975.355678,-0.0652543524,0.427835573,-0.113952542,0.0792998895,-0.00246340013,-0.029648494
97975.365707,0.0107499695,0.361836658,-0.102171504,0.099887453,-0.0121644977,-0.0259147435
97975.375735,0.100386949,0.202232628,0.0674812986,0.0790815055,-0.0190825909,-0.00172764901
97975.385764,0.13311485,0.0821193707,0.0567792873,0.0503031239,-0.0285157748,0.0299325436
97975.395792,0.0769600334,0.082899817,-0.0506248563,0.0293128844,-0.0407173112,0.0433716513
97975.405822,0.0485397115,0.10155929,-0.0806096602,0.0257735439,-0.050106816,0.0376881994
97975.415851,0.0309956066,0.115153991,-0.0682318247,0.0198964793,-0.0564973392,0.0273162536
97975.425880,0.0829305592,0.0734536145,0.0456646036,-0.00145488163,-0.054465346,0.018174421
97975.435909,0.165848606,0.100077746,0.104411976,-0.019253321,-0.0423413068,0.0106286192
97975.445938,0.227384349,0.205376844,0.107817985,-0.0185478497,-0.026344765,-0.0100359125
97975.455967,0.271556979,0.289307063,0.106094815,-0.00132838148,-0.0139424242,-0.0350118354
97975.465996,0.264304633,0.295044109,0.00308861367,0.0285759866,-0.00954554416,-0.0509734899
97975.476025,0.291327536,0.250533206,0.143655607,0.0182261448,-0.00524240872,-0.0430103727
97975.486054,0.354923993,0.165896665,0.246432091,-0.00588664785,-0.00537530053,-0.0139725981
97975.496082,0.329545258,0.131643645,0.333037192,-0.0498453155,-0.00236326549,0.0192751046
97975.506111,0.304892536,0.0677601521,0.400376452,-0.101134606,0.00114757987,0.0460867472
97975.516140,0.27322051,0.0271074584,0.344597281,-0.141198933,-0.0013171758,0.0568128936
97975.526169,0.144036742,0.0659100307,0.267211844,-0.156853527,-0.00456303637,0.0415391326
97975.536198,0.0455051752,0.102821419,0.167516375,-0.14643763,-0.00289696269,0.00933086127
97975.546227,-0.0379522391,0.185144532,0.07342121,-0.12641333,0.0117056817,-0.0352382027
97975.556256,-0.0857908166,0.23543095,0.082178517,-0.108665489,0.0408007167,-0.0880566761
97975.566285,-0.0960033456,0.258164212,0.0712193161,-0.0812474489,0.0648487955,-0.130786836
97975.576314,-0.161900142,0.280523124,-0.0260392811,-0.0588156395,0.0727352127,-0.157848537
97975.586342,-0.157737744,0.285946136,-0.03253858,-0.0407016203,0.0654983371,-0.157894611
97975.596372,-0.0803686363,0.263001204,-0.0506178421,-0.0185987148,0.0525327399,-0.134481966
97975.606401,0.00338273777,0.244086313,0.0904810659,-0.0142543009,0.0414981991,-0.0999024212
97975.616430,0.091571391,0.140394541,0.225038589,-0.0338551626,0.0214259531,-0.057506226
97975.626458,0.145202736,-0.0449198131,0.261554841,-0.0782162398,-0.00508448342,-0.0150359971
97975.636487,0.0662730462,-0.163852939,0.214413151,-0.102083221,-0.0287637133,-0.00153829809
97975.646516,-0.11257434,-0.132847395,0.106418055,-0.113550529,-0.0321658999,-0.0150951194
97975.656545,-0.159579992,-0.170762207,0.119351187,-0.13141261,-0.0143530834,-0.0321239047
97975.666573,-0.153023757,-0.178875626,0.0948608884,-0.136319757,0.00953174382,-0.0469145663
97975.676603,-0.121290639,-0.129049501,0.0622556729,-0.141949147,0.0307843015,-0.0525362343
97975.686632,-0.0406943774,-0.0918317316,0.124947399,-0.146610469,0.0445046425,-0.039526958
97975.696661,-0.0272357701,-0.0665622293,0.135982003,-0.148370564,0.0450995937,-0.0146591598
97975.706690,0.0501517315,-0.0505042622,0.100775081,-0.149057657,0.0278018266,0.0134640867
97975.716718,0.0878072345,0.0342860082,-0.0239174667,-0.143111348,0.000949706999,0.0409814641
97975.726748,0.0814338909,0.0898137428,-0.0279974295,-0.138057202,-0.0176833663,0.0682093576
97975.736777,0.137654585,0.11942933,-0.0187871181,-0.112705506,-0.0243284851,0.0920888558
97975.746806,0.119753931,0.206195175,-0.101069095,-0.0694957152,-0.0266132113,0.0954276621
97975.756834,0.0493068325,0.265757298,-0.140907769,-0.0423069708,-0.0294856969,0.0862136558
97975.766863,0.0387479469,0.234774715,-0.121530869,-0.0141459098,-0.027957309,0.0742014721
97975.776892,0.0638949645,0.217980232,-0.0974205098,0.0260409247,-0.0168692376,0.0602249354
97975.786921,0.094724777,0.288961282,-0.0837146405,0.0742513314,-0.00168256136,0.0396099389
97975.796949,0.143196264,0.312098047,-0.0057464347,0.110521987,0.00695913006,0.0243859775
97975.806979,0.193840903,0.219136234,0.0331067353,0.128052771,0.00828218833,0.0230048615
97975.817008,0.209282491,0.162801676,0.0683446374,0.122697957,0.0064563253,0.0296944566
97975.827037,0.266362552,0.0749385558,0.1300871,0.0981982127,0.00787552353,0.0484974384
97975.837066,0.251409678,0.0489936932,0.0965285294,0.0884976462,0.0101445373,0.0553345717
97975.847095,0.186702904,0.0295750723,0.0568558597,0.0670211166,0.0121967681,0.0509696528
97975.857124,0.126774971,0.0303821144,-0.00554009847,0.060326729,0.015319325,0.0337014496
97975.867153,0.131566516,0.0681659381,-0.0341238034,0.0605187416,0.0273107402,0.0219891313
97975.877182,0.157119374,0.0532782021,0.0179196876,0.0613475181,0.0442812033,0.0111503322
97975.887211,0.151878067,0.0625297954,0.0888151785,0.039799083,0.0595536344,0.0129178725
97975.897240,0.212704374,0.0290990888,0.212270878,0.0126321744,0.0680752099,0.0259780139
97975.907268,0.248608412,-0.00267880902,0.164426008,0.000914798991,0.0669044852,0.0403319225
97975.917297,0.176190296,0.0868600441,0.00106382984,0.0222576465,0.0502244905,0.0344778076
97975.927326,0.0488070663,0.202740157,-0.0050654667,0.036625132,0.0398906246,0.00814659987
97975.937355,0.0238568591,0.190709199,0.111668231,0.0271437466,0.0367560834,-0.0057090288
