t,ax,ay,az,gx,gy,gz
93205.325693,-0.00681839304,-0.0825919384,0.0529717117,-0.00217476161,-0.00560760172,-0.00113243517
93205.335719,-0.0256427561,-0.0507757635,0.0662795216,-0.00208288245,-0.00470798556,0.000223646872
93205.345744,-0.0586408799,0.0281052783,0.0264665666,-0.000934261247,-0.0063018878,-0.00031218119
93205.355769,-0.0746645612,0.0654474136,0.0483019664,-0.00189965707,-0.00488348817,-0.00107411202
93205.365795,-0.0914633184,0.0866734721,0.0880950476,0.000250312791,-0.00498788385,-0.00192951877
93205.375820,-0.157897994,-0.0236784612,0.0509784921,0.00225354265,-0.00430611474,-0.00370265171
93205.385845,-0.157461301,-0.0234547308,0.0509732314,0.0013217025,-0.00630881172,-0.004376431
93205.395871,-0.181258576,-0.0615889983,0.022229952,-0.000855698017,-0.00784492306,-0.00549043156
93205.405896,-0.191611627,-0.0404228168,0.043166357,-0.000769411563,-0.00652133208,-0.00403634552
93205.415921,-0.16989379,0.0180038131,0.0756266111,-0.00134705123,-0.00745157385,-0.00379266683
93205.425946,-0.159153474,0.0883350121,0.0772644415,-0.00118513103,-0.00182511366,-0.00392156374
93205.435972,-0.142499185,0.165486166,0.0471907902,0.0356109664,0.00415474828,-0.00959169958
93205.445997,-0.152517086,0.184361401,0.16900106,0.00447009178,0.0140981926,-0.0114407325
93205.456022,-0.189245739,0.169860454,-0.0258119021,0.00787254609,0.00696012191,-0.0126993423
93205.466048,-0.195864919,0.00495587341,0.116055068,0.0027302485,0.00415315013,-0.0149632962
93205.476073,-0.217250913,-0.0182867399,-0.066197104,0.00253210915,-0.000693802955,-0.0178171396
93205.486098,-0.196519091,-0.127910852,0.0461778138,-0.00217103306,-0.00435485039,-0.0124183791
93205.496124,-0.166581542,-0.11253789,0.0425806661,-0.0015342714,-0.00124214788,-0.0136950975
93205.506149,-0.148462806,-0.0668959365,0.0754968473,0.00212411303,-0.000927628367,-0.00957439002
93205.516174,-0.153312657,-0.015389338,0.0539478633,-0.00206663739,0.0018268791,-0.012413851
93205.526200,-0.142733998,0.053209877,0.0488631074,0.00272252504,0.00199492462,-0.0118367439
93205.536225,-0.132494673,0.0525350099,0.0838841519,0.000958979945,0.00469696755,-0.0153622376
93205.546250,-0.103854726,0.0679524278,0.0506710336,0.000293722318,0.00306205312,-0.0131917605
93205.556276,-0.105697102,0.132213408,0.0791097771,-0.00100297085,0.00525676413,-0.0174123384
93205.566301,-0.113336438,0.127693976,0.0536830749,0.00352813164,0.00728502776,-0.0184411183
93205.576326,-0.112073816,0.11583357,0.0180816001,0.00344983442,0.00294407504,-0.0212132037
93205.586352,-0.107723475,-0.013234014,0.0483159949,0.00380483409,0.00242049759,-0.0192595087
93205.596377,-0.100410175,-0.105778387,0.0673252313,0.0046442626,0.00149664702,-0.0210861675
93205.606402,-0.109345049,-0.222311868,0.00672433982,0.000117687392,-0.00198383816,-0.0185042359
93205.616428,-0.136670735,-0.210570138,-0.0200724817,-0.0077375723,-0.00831683446,-0.0161502659
93205.626453,-0.203359622,-0.0441999653,0.0322772987,-0.00593860727,-0.0129818944,-0.0186512396
93205.636478,-0.258756716,0.0897182283,0.0933019686,-0.00170364848,-0.0164554548,-0.0201146491
93205.646504,-0.301865388,0.109992936,0.035514381,0.00165140175,-0.0169952773,-0.0214294493
93205.656529,-0.302093096,0.108794064,0.0272545022,-0.000396036368,-0.017667992,-0.021066729
93205.666554,-0.312500892,0.124862917,0.0866325738,-0.00154732086,-0.0151995085,-0.0239602551
93205.676580,-0.34194326,0.110045014,0.127016607,0.00186259055,-0.00730030658,-0.025417801
93205.686605,-0.352259779,0.0928756877,0.112196054,0.000817566179,-0.00194495602,-0.0238563903
93205.696630,-0.3855757,0.121878696,0.0665536624,0.000462300435,0.000810084166,-0.0279009342
93205.706656,-0.405997324,0.114005442,0.101573538,0.00184528006,0.00433051679,-0.0273414031
93205.716681,-0.442304061,0.127125656,0.0807809252,0.00490418682,0.000695834518,-0.0317747667
93205.726706,-0.444035415,-0.00930302663,0.0517553217,0.00029824971,0.00126628368,-0.0307403952
93205.736732,-0.426123435,-0.112992346,0.0489092846,-0.00484937429,-0.004181745,-0.0343087651
93205.746757,-0.421571983,-0.13883258,0.0500982021,-0.00376360351,-0.00238198088,-0.0345705524
93205.756782,-0.401378907,-0.165534499,0.0457493593,-0.00881801639,-0.00177504623,-0.0325577371
93205.766808,-0.384399423,-0.0282498562,0.0614513708,-0.00776819885,-0.00211672997,-0.0321710445
93205.776833,-0.369836279,0.0644298706,0.141651866,-0.00337957591,0.00250491989,-0.030035723
93205.786859,-0.351592547,0.0473276688,0.142110131,0.00281493692,0.00780514302,-0.0286186561
93205.796884,-0.364876757,0.0269650405,0.0788268685,-0.00107327825,0.00749461818,-0.0297824554
93205.806909,-0.398087975,0.0123492853,0.0538473255,-0.00236917241,0.00567780994,-0.03129806
93205.816935,-0.426298865,0.0144413074,0.0991927802,-0.000974741299,0.00327004585,-0.0330400355
93205.826960,-0.45236244,0.0483672912,0.0632826779,-0.00258462224,9.47591034e-05,-0.0371333137
93205.836985,-0.462580029,0.0617754425,0.0156903211,-0.00277104322,-0.00610747701,-0.0398739725
93205.847011,-0.489491746,0.0657922039,0.0616126988,-0.00472287415,-0.00912457146,-0.0408321768
93205.857036,-0.52142582,0.119091184,0.114268184,-0.000862622168,-0.00822069496,-0.0419056974
93205.867061,-0.507017429,0.142515753,0.109466337,3.03357083e-05,-0.00538336346,-0.0430271551
93205.877087,-0.463421996,0.0304088837,0.0844675047,-0.00120190892,-0.00346002821,-0.0414172746
93205.887112,-0.433387545,-0.069512092,0.114691963,-0.00295267114,0.00310732704,-0.0419800021
93205.897137,-0.429587385,-0.116345475,0.105425537,-0.001463964,0.0106462035,-0.0402761102
93205.907163,-0.396072179,-0.117787298,0.0620510902,-0.00223548175,0.0150726438,-0.0413972996
93205.917188,-0.408229138,-0.107963915,0.030055531,0.000242323324,0.0156470872,-0.0384185538
93205.927212,-0.405942379,-0.0182150766,-0.061349664,-0.000399498502,0.0118909655,-0.0400310978
93205.937239,-0.345321577,-0.0253269042,-0.0390372944,-0.00637749583,0.00976869185,-0.0393280238
93205.947264,-0.304409739,-0.041716213,0.0818804108,-0.00353323994,0.0119064115,-0.0379825942
93205.957290,-0.271626464,-0.0322746319,0.00722995125,0.00278617488,0.0094456505,-0.0387530476
93205.967315,-0.264362263,-0.124098838,-0.0310685075,-0.0114028808,0.00562081812,-0.0400721133
93205.977340,-0.205142031,0.0370909096,-0.0494715947,-0.00249833567,0.00470948452,-0.0391051173
93205.987366,-0.193436523,0.113153939,0.0452566073,-0.00093825598,0.0053664865,-0.0445952229
93205.997391,-0.171305958,-0.0163810159,0.13205577,-0.00221364386,0.00653667934,-0.0396697074
93206.007416,-0.204282528,0.149604277,0.0696685795,0.00355236651,0.00736412359,-0.042455107
93206.017442,-0.179286508,0.0772759036,0.0185042095,0.00212943926,0.00238694181,-0.0437813625
93206.027467,-0.105517252,-0.102778173,0.0346650707,-0.00941989105,0.00188546861,-0.0430793539
93206.037491,-0.0613298633,-0.116445072,0.192529236,-0.0125206094,0.00392651511,-0.0450929701
93206.047518,-0.0540823033,-0.221504588,0.281719677,-0.00251298305,0.0115218507,-0.0439371578
93206.057542,-0.00408246527,-0.270003155,0.112501759,-0.00285519939,0.0154795749,-0.042066019
93206.067568,0.0584011529,-0.334558191,-0.0633031361,-0.00875010621,0.0139586432,-0.0373684689
93206.077594,0.178148919,-0.334793863,0.0671978055,-0.0181657113,0.0214197561,-0.0284860283
93206.087619,0.176500056,-0.172538934,0.161795659,-0.00301259197,0.024951905,-0.0220414437
93206.097645,0.144425459,-0.188797611,0.140885558,-0.000915352779,0.0247114226,-0.0218925737
93206.107670,0.180426052,-0.350036148,0.0662444503,-0.0132692242,0.0184149109,-0.010337119
93206.117695,0.091795683,-0.0828724632,0.00939385129,-0.00633488549,0.00964378938,-0.0117805516
93206.127721,0.0163980766,-0.0364336056,0.0185340201,0.0110124135,0.000480384799,-0.00904761534
93206.137746,0.0189983771,-0.146306423,-0.0930938788,0.00458247727,-0.00729125226,-0.00614956394
93206.147770,0.00628915414,-0.139974133,-0.146532623,-0.000463680655,-0.0189212766,-0.00798900891
93206.157797,0.0409926663,-0.235213435,0.179945648,-0.00302297855,-0.0156903286,-0.00459294673
93206.167821,0.0162240992,-0.211314911,0.208963653,0.0167672373,-0.00785371102,-0.00385285355
93206.177848,-0.038703642,-0.349099269,0.0837163941,0.00337286899,-0.00531784957,-0.000476498157
93206.187872,-0.168353903,-0.284515482,-0.107833183,-0.0075444933,-0.0104068834,0.00327829225
93206.197898,-0.247636754,0.00823187657,-0.0116407534,-0.00889045466,-0.0105826519,-0.00324352272
93206.207924,-0.205996876,0.060358397,0.212649063,-0.00335267792,-0.0049798945,-0.00308852643
93206.217949,-0.204296319,0.355217313,-0.0495177719,0.0103293126,-0.0049798945,-0.0102407122
93206.227974,-0.200908813,0.343727001,-0.148286774,-0.0124263335,-0.00362221478,-0.0259070247
93206.238000,-0.11063507,0.214204093,0.082886373,-0.0169619638,0.00110782555,-0.0263096951
93206.248025,-0.104669093,0.325139424,0.298671981,0.00485145627,0.015593824,-0.0363106616
93206.258051,-0.0734419606,0.0168460944,0.168224815,0.00572229177,0.0209518112,-0.0354169905
93206.268076,-0.0802624542,-0.16338607,-0.0900216317,-0.00736341625,0.0183533654,-0.0334313363
93206.278100,-0.121314011,-0.114409008,-0.0297089096,-0.0120409923,0.00657899864,-0.0354705192
93206.288127,-0.125384914,-0.231620927,0.291114697,0.00154272676,0.00587991904,-0.0279588066
93206.298151,-0.249357696,-0.189685062,0.062630936,0.0200823229,-0.00527739432,-0.0237363651
93206.308178,-0.303951638,-0.301151632,-0.206281282,-0.00608669687,-0.0238726512,-0.0207363144
93206.318202,-0.24906686,-0.273063529,-0.134214994,-0.0195063651,-0.0351005383,-0.0099190874
93206.328228,-0.201436144,0.0336296723,0.221712075,-0.00389970932,-0.0258489829,-0.00822238717
93206.338254,-0.177597459,0.0991506033,0.22212767,0.00546156801,-0.0129699353,-0.00761971343
93206.348279,-0.209749871,0.160055154,-0.0150578684,0.00371613237,-0.00424142461,-0.0147284893
93206.358305,-0.206192088,-0.00729714387,0.183364517,-0.00530186389,0.00968610868,-0.0124719935
93206.368330,-0.19372261,0.117610407,0.216759421,0.0022138434,0.0243862253,-0.0149543257
93206.378355,-0.245808333,0.318924568,-0.0046598085,0.00144046126,0.0240083225,-0.0219328739
93206.388381,-0.217879329,0.104638195,0.0115337859,-0.0184506886,0.0265092961,-0.0210665464
93206.398406,-0.258222299,0.260502994,0.00856324568,-0.00471410435,0.0185067635,-0.0248775296
93206.408432,-0.284275353,0.165087321,0.039413142,0.00876948051,0.0112110339,-0.0287923776
93206.418457,-0.287186856,-0.112869697,-0.162144619,-0.00440038368,-0.00979864225,-0.0294088982
93206.428481,-0.314476722,-0.0177717396,-0.072404142,-0.0183305796,-0.0258995835,-0.0324366465
93206.438508,-0.263072114,0.0204259348,0.400102895,-0.00209515123,-0.020665938,-0.0299002528
93206.448532,-0.249950803,0.0571191046,0.342328167,0.0274656713,-0.012434639,-0.0307942741
93206.458559,-0.27204637,-0.19940946,-0.190832953,0.00903073698,-0.0151446722,-0.0287806578
93206.468584,-0.255992585,-0.367261204,-0.248783622,-0.038023591,-0.017319411,-0.0223744251
93206.478609,-0.293141363,0.265069863,0.218037771,-0.0125017194,-0.0043633976,-0.0241323784
93206.488635,-0.2948554,0.501440177,0.476340332,0.0414912067,0.0189097002,-0.0385294259
93206.498660,-0.069719853,-0.285367916,0.193144737,0.00910690334,0.0322886221,-0.022541672
93206.508686,-0.107422483,-0.239668807,-0.379924615,-0.0146876415,0.0256879777,-0.0208726674
93206.518711,-0.149105013,-0.0834351477,-0.0593809943,-0.0212310292,0.0239092521,-0.0259558447
93206.528736,-0.0755729538,-0.250026206,0.268501884,-0.00223123888,0.0243143197,-0.0127050197
93206.538762,-0.100248728,-0.138920642,0.0502174446,0.00194379874,0.0181179419,-0.0173122883
93206.548787,-0.14684021,-0.241091131,-0.165556473,-0.0207711011,-0.00185443345,-0.0156331658
93206.558813,-0.168171587,-0.0608020309,-0.0355471142,-0.0060877623,-0.0141912606,-0.0143402005
93206.568838,-0.178342707,0.131838547,0.0500216298,0.0154393669,-0.023363987,-0.031514924
93206.578862,0.0422525849,-0.358954929,0.245877379,0.00613215193,-0.0134871211,-0.0252879225
93206.588889,0.02510253,-0.394354159,0.00359831675,-0.000161163742,-0.0103919953,-0.0157178529
93206.598914,-0.0782404469,-0.137115565,-0.198877143,-0.000927088899,-0.0113565922,-0.0188702382
93206.608940,0.0723282637,-0.223590546,0.255260709,-0.0108710658,0.00743413949,-0.00990071055
93206.618965,0.0985639442,0.0234164127,0.339386853,0.0210889969,0.0221169442,-0.0091273291
93206.628990,0.0116139933,-0.124728386,0.114539987,0.00794443395,0.0280478057,-0.00325239636
93206.639016,-0.0223237586,-0.0857736645,-0.262514041,-0.0110969022,0.0179749299,0.00578530738
93206.649041,-0.000927316579,0.329232539,-0.180203422,-0.00885958038,0.00681841699,-0.00784741435
93206.659067,0.0570324218,0.0929873131,0.27619653,0.000524600269,0.00986454077,-0.00376718491
93206.669092,0.0666281798,0.192937013,0.0174982473,0.0203513019,0.00628791517,-0.013633131
93206.679118,0.0612614468,-0.0732140153,-0.157419928,-0.00753758755,-0.0043612672,-0.0182318799
93206.689143,0.0129747602,-0.175567488,0.064462243,-0.0215665866,-0.0119081326,-0.0109771611
93206.699168,-0.146453019,0.234028883,0.162152802,0.0187318344,-0.017185986,-0.0173519701
93206.709194,-0.177527043,-0.0591072553,-0.0612672464,0.0112635307,-0.0212028325,-0.0155599294
93206.719219,-0.125417391,-0.143419798,-0.304774389,-0.0123453913,-0.0363354459,-0.0129628135
93206.729245,-0.133586176,0.0837131244,0.208860777,-0.0204035845,-0.0308035277,-0.0173698142
93206.739270,-0.137303406,0.16748229,0.554645807,0.0335981324,-0.0110239629,-0.0112176454
93206.749294,-0.117926214,0.121507844,0.26646424,0.0240688082,0.00285350252,-0.0254786052
93206.759320,-0.0534654683,-0.168882914,0.0309586174,0.0124225393,0.0102195404,-0.0152225057
93206.769345,-0.139898574,0.0697026827,-0.177310039,0.00527621247,0.0112903975,-0.0168630145
93206.779371,-0.179079551,0.143425753,-0.16936814,-0.00492689013,0.0041901432,-0.0158025436
93206.789396,-0.21444382,0.0783208004,0.123330612,0.00541815907,0.0050607305,-0.0159452893
93206.799421,-0.232276286,-0.218895758,0.153122523,0.0119498279,-0.0017151502,-0.0126770576
93206.809447,-0.124856031,-0.432554455,0.157754275,-0.0165734254,-0.00432131952,-0.00832305569
93206.819472,0.00166981464,0.0161619115,0.195748198,-0.00105199113,0.000666781096,-0.0120743839
93206.829498,-0.109785504,0.395934341,-0.0427606988,0.022619782,-0.00281982939,-0.0229496658
93206.839523,-0.0507157495,0.132584744,-0.0764274061,0.00162102375,-0.00588779105,-0.0185091123
93206.849549,0.0207880096,0.207537164,0.217760707,0.0140015269,0.00829753652,-0.0287463032
93206.859574,0.0336127121,-0.0653257006,0.220506791,0.0496689752,0.0247569364,-0.0191386864
93206.869599,-0.107752135,-0.241350933,-0.735900784,0.062709406,0.0110174231,-0.0184752904
93206.879625,-0.153173121,-0.336499753,-1.01569271,0.0185909532,-0.0127779208,-0.0235688537
93206.889650,0.0301980996,-0.327443756,-0.281303497,-0.0175231099,-0.0221517161,-0.0179525129
93206.899676,0.0929755496,0.214796085,0.663027271,0.00834790245,-0.00846067071,-0.0134890554
93206.909701,0.119172853,0.425144434,0.693565033,0.0225361586,0.00678006746,-0.0123236561
93206.919726,0.0847046562,0.270342159,0.17314006,-0.00137822842,-0.00150209735,-0.019173041
93206.929752,0.093811562,0.0702201079,0.487677134,-0.0043314076,0.00499202078,-0.0193330944
93206.939777,0.0554673645,0.260133156,0.47303603,0.0385729149,0.0110381953,-0.0214266069
93206.949803,-0.0783890616,0.127203325,-0.162741415,0.0308422931,-0.00247335224,-0.0276059397
93206.959828,-0.260347109,-0.230529022,-0.74545421,-0.00974880997,-0.0352187827,-0.0219136998
93206.969854,-0.284695076,-0.173604737,-0.427265628,-0.0191508327,-0.0594996214,-0.0338776819
93206.979879,0.127437389,-0.723588342,0.786958771,-0.00436522998,-0.0307598524,-0.0173498392
93206.989904,0.13912158,-0.588392849,0.726482967,0.00535344426,0.000492344028,-0.00158259366
93206.999930,-0.230008596,0.181443285,-0.365865695,0.0116257211,-0.00696397433,-0.0169964395
93207.009955,-0.0682004067,-0.0927462161,0.0973947908,-0.0335351005,0.00230009761,-0.0138190212
93207.019981,-0.0633658078,0.196881512,0.63085694,-0.00180140464,0.0207057353,0.00435066223
93207.030006,-0.263232382,0.896722995,0.190834707,0.054799024,0.025436841,-0.0196500123
93207.040031,-0.154959584,-0.0385859704,-0.0455360088,0.0112262471,0.0189517774,-0.0268900804
93207.050057,-0.0796716853,-0.456492087,0.00552256281,-0.00630161446,0.0184138194,0.000454990193
93207.060082,-0.325619609,0.480076157,-0.434852137,-0.00117316493,-0.00394208543,-0.0185474642
93207.070108,-0.153041311,0.339629357,-0.159836342,-0.00621106662,-0.0125313122,-0.0289580263
93207.080133,0.00965995488,-0.0867085799,0.297742591,-0.00872961804,0.00052163878,-0.0242144018
93207.090158,-0.0828179474,0.163275961,0.188664961,0.00897720736,0.00819766801,-0.0343269557
93207.100184,-0.112599301,0.0318477756,-0.163258133,0.0220746342,0.0065323934,-0.0367975719
93207.110209,-0.0499429385,-0.489489188,-0.233736275,-0.0256121941,-0.00124297175,-0.0308933444
93207.120235,-0.0538427589,-0.510875675,0.19779344,-0.035229668,-0.00274765771,-0.0160904303
93207.130260,-0.162490217,-0.161309629,0.456661818,0.00591590349,0.0063028289,-0.0140310088
93207.140285,-0.0785924387,-0.448865684,0.17266309,0.00707357936,0.00469587743,-0.00540316477
93207.150311,-0.0360535476,-0.478793972,-0.139932787,-0.0251035318,-0.00332236802,-0.00602900796
93207.160336,-0.118102958,-0.201538654,0.120853408,-0.036175888,-0.00788010098,0.00362335332
93207.170362,-0.147359631,0.495414268,0.143436411,0.0134641016,-0.00135881919,-0.00496720523
93207.180387,-0.140989383,0.450923786,-0.0504845711,0.00804723147,-7.62408599e-05,-0.0145852109
93207.190413,-0.250870785,0.205666292,-0.492080337,-0.0136735104,-0.0199210532,-0.0157181211
93207.200438,-0.2932183,0.333607101,0.00959726491,-0.0282444637,-0.0218869988,-0.0289476402
93207.210463,-0.257274643,0.260531508,0.637596477,0.0257244967,-0.0114937443,-0.0236514099
93207.220489,-0.140388202,-0.0598250985,0.594818827,0.0328580402,0.00642400282,-0.0235470124
93207.230514,-0.125724119,-0.323563773,-0.103663204,0.0119365118,0.00583278108,-0.0156573988
93207.240540,-0.184557928,-0.146187463,-0.433914564,-0.0296966843,-0.00235111313,-0.0131969051
93207.250565,-0.138507321,0.101170784,-0.0875368292,-0.0370435491,-0.00586222438,-0.012448824
93207.260590,-0.0759760274,0.179447855,0.428414213,0.00490346085,0.0176251791,-0.0063684918
93207.270616,-0.200650875,0.107849915,-0.17024843,0.0122748241,0.0120993862,-0.0124993557
93207.280641,-0.159569252,-0.441872318,-0.20062311,-0.0321102142,-0.00219299993,-0.0129188029
93207.290667,-0.129226209,-0.716070075,0.610540713,-0.0319083482,0.00907776412,-0.00222301576
93207.300692,-0.19208931,-0.384304328,0.601427432,0.00621533394,0.0188001655,0.02183678
93207.310717,-0.355489043,0.27478849,-0.652954205,0.0217692591,-0.008591244,0.001358137
93207.320743,-0.176338545,-0.184816871,-0.573528202,-0.0340378098,-0.0249989796,0.00737182098
93207.330768,-0.0867377147,0.126047405,-0.0896674114,-0.0177800134,-0.0265635867,0.010107154
93207.340794,-0.191241534,0.353928954,0.464852139,0.00721322047,-0.0119476262,-0.00673520844
93207.350819,0.000170735191,-0.236175211,0.434766797,-0.00361119746,5.55069419e-05,0.00563890208
93207.360844,-0.0856928635,0.062397561,0.1338409,-0.0176689606,0.00772061711,-0.00463424157
93207.370870,-0.31837921,0.215381046,-0.11560557,-0.000126983941,0.000256309286,-0.00203473028
93207.380895,-0.0729493365,0.186444436,-0.141946465,8.8372617e-06,0.00175380474,-0.00414075796
93207.390921,0.149757102,-0.102669863,0.280181215,-0.0265311617,0.00872409623,-0.0122897653
93207.400946,0.0281556522,-0.152206788,0.543266919,0.00772721041,0.0308901183,0.00357681653
93207.410971,-0.164971823,0.398773218,-0.246303496,0.0203023907,0.0174829662,-0.0199863017
93207.420997,-0.118869467,-0.311854119,-0.289689633,-0.0496687032,0.00369311869,-0.00906973612
93207.431022,-0.105449101,0.0975218969,-0.193059397,-0.00189798605,-0.0114245815,0.0043075881
93207.441048,0.0609417773,0.367894059,-0.0814268218,0.0434207618,-0.0118589429,-0.0275898911
93207.451073,0.341686728,-1.15227706,0.365082435,-0.0411878675,0.00030717568,-0.0024523139
93207.461098,0.151767729,-0.347635078,-0.0248953718,0.00294230925,-0.00396320317,0.0229244158
93207.471124,-0.0286661773,0.672665672,0.227401227,0.00540440157,0.00803433731,-0.0186611116
93207.481149,-0.0146628229,0.252166104,-0.0209860894,0.0087583866,-0.00555630587,-0.00640045013
93207.491175,-0.0800136306,0.429825687,-0.138173376,-0.0228464119,-0.0109721106,-0.0266476646
93207.501200,-0.123377245,-0.0108412462,-0.0846469529,-0.00610285113,-0.0208263397,-0.0135584949
93207.511225,0.0306997107,-0.28617978,-0.159503164,0.00227252417,-0.0197861083,-0.010455112
93207.521251,0.311045359,-0.222378302,-0.232714531,-0.0091822641,-0.0220740307,-0.0178235471
93207.531276,0.568374034,-0.630318741,0.777463213,-0.0375060439,0.0192313325,-0.000997961499
93207.541301,0.126655043,-0.0227294716,0.539272881,0.0144487629,0.0309748072,0.0130472835
93207.551327,0.122641917,0.300528039,0.1315788,0.0165982004,0.0294259116,-0.00344807003
93207.561352,0.371542498,-0.220829228,0.246993232,-0.0197419636,0.0306227375,0.0109231463
93207.571378,0.0943954446,0.305696619,-0.360334364,0.04178771,0.00936671719,0.00967119448
93207.581403,0.0190886948,0.0855772104,-0.364060107,-0.0155176586,-0.00711585302,-0.00485768076
93207.591428,0.197511024,-0.0485692573,-0.0417816247,-0.00142367708,-0.0209842641,0.00953803677
93207.601454,0.00236088391,0.342078248,0.494800118,0.0219660681,-0.0127492379,-0.007288347
93207.611479,0.0676374755,0.0777440508,-0.139061265,0.0297033489,-0.0183717031,0.00646741176
93207.621505,0.00354479647,0.428092324,-0.689765056,-0.00960357673,-0.0360308588,-0.0195894875
93207.631530,0.141525682,0.144861841,0.16071254,0.00202351878,-0.0275268517,-0.011048465
93207.641555,0.129515748,-0.129514095,0.716297674,0.0136836367,-0.0035791751,-0.00377004594
93207.651581,0.132650046,-0.125388348,0.0963683704,0.0166549254,0.00652512396,0.00533370394
93207.661606,0.121356243,-0.0607735446,-0.225047357,-0.0171757415,0.00157430768,-0.00821592752
93207.671632,0.240912176,-0.288548354,0.440552395,0.00903961621,0.0203860793,0.00676648458
93207.681657,0.0699537349,-0.106977826,0.0906026465,0.0258992892,0.0230289996,0.00247346889
93207.691682,0.150736359,-0.263414059,-0.433989383,-0.00589086348,0.00961465761,0.00291475467
93207.701708,0.119690849,-0.42958143,-0.246506325,-0.0359409042,-0.00224466529,0.00788874086
93207.711733,0.0156029716,-0.174197186,-0.0533563271,-0.00701019028,-0.0195861049,0.00906212907
93207.721758,0.126302284,-0.0589624674,0.375464129,-0.021817632,-0.0135599039,0.00321143074
93207.731784,0.339955776,0.508103982,0.258875393,0.00941059459,-0.00798803847,-0.000808077864
93207.741809,0.098707079,0.612324162,0.0815484024,0.0163177699,-0.0110597285,-0.0172704086
93207.751835,0.100333913,-0.131516521,0.0372428122,-0.0037914936,-0.0140169021,0.000123761594
93207.761860,0.0223747673,0.15710246,-0.217329915,-0.00910902768,-0.020948844,-0.0208164081
93207.771885,-0.0590485109,-0.307925291,0.229292155,-0.0108478051,-0.021433007,-0.0120261116
93207.781911,-0.0219647982,-0.407836266,0.131539637,0.00461690454,-0.0192606673,0.00247826288
93207.791936,-0.0267734224,-0.171833471,-0.390717227,0.0197330061,-0.0217509884,-0.00908837933
93207.801962,0.205942223,-0.879512259,-0.077411741,-0.00723709166,-0.0148478094,0.0122366175
93207.811987,0.324400735,-0.658622168,0.279759775,0.00198756601,0.00168589409,0.0174793154
93207.822012,0.149493793,-0.336154922,0.466086064,0.00399132818,0.026773937,0.0359552614
93207.832038,-0.125314789,0.404909528,-0.470599158,0.0238204263,0.00274237012,0.0222397167
93207.842063,0.0541775804,0.212728193,0.272208921,-0.0287256055,0.00688624894,0.015727222
93207.852088,-0.0480073491,0.403523956,0.436370141,0.0406382903,-0.000652893912,0.021935584
93207.862114,-0.138272087,0.433080963,0.489825836,0.0314099044,0.00510033313,0.00107158069
93207.872139,0.0777036001,-0.0499573278,0.0336029944,0.0200616401,0.00136098848,0.013175115
93207.882165,-0.104750451,0.451104732,-0.579009264,0.0230443813,-0.0196361728,-0.0100809382
93207.892190,-0.161012089,-0.103102738,-0.131640175,-0.0285458416,-0.0269968826,-0.00767397415
93207.902215,-0.176596192,0.00126116078,0.138698277,-0.00429136911,-0.0212034434,-0.00367816631
93207.912241,-0.1850806,0.106717385,-0.245755214,0.0192080978,-0.0235571451,-0.0127321156
93207.922266,0.0818643365,-0.864469735,-0.151097739,-0.0603759401,-0.0306139868,0.00520986691
93207.932291,0.32243791,-0.360818239,0.656114131,-0.049770169,0.00195194397,0.0033342028
93207.942317,0.171392613,-0.000670200012,1.33731068,0.035334073,0.0539240614,-0.000514064915
93207.952342,0.167589751,-0.353572359,0.00239361714,0.0437158383,0.0572186634,0.026289586
93207.962368,-0.0155140877,0.230044124,-1.23488257,-0.03998385,0.0259704608,-0.00113857631
93207.972393,-0.00171095037,0.24488888,-0.22409634,-0.0614073835,0.00452695414,0.000349864364
93207.982418,-0.12512124,0.671492682,0.791935975,0.0166674424,0.0145284561,-0.00253540464
93207.992444,-0.0411783981,0.636861587,0.389332495,0.0749267563,0.018168997,-0.00867345836
93208.002469,0.0731415529,0.106229857,-1.0546242,0.0217359699,-0.0135263484,-0.0139691541
93208.012494,0.124829125,-0.188080586,-0.521692801,-0.101583034,-0.0417971313,-0.0288844518
93208.022520,-0.0110623325,0.186500842,1.32321727,-0.0330116935,-0.0111342967,-0.00861034077
93208.032545,-0.273754324,1.11831554,0.994078258,0.124162748,0.01580837,-0.0242835768
93208.042570,-0.149461553,-0.0213346151,-0.89889822,0.0888942331,-0.0119446972,-0.0333409868
93208.052596,0.0590173851,-1.23247829,-0.942622211,-0.0613559857,-0.0304267686,-0.0101347351
93208.062621,0.126686242,-0.487903417,0.00643149435,-0.0530660972,-0.0185631849,0.0128691178
93208.072647,-0.147478398,0.611863157,0.765980865,0.0348959826,0.00878961012,-0.003114908
93208.082672,0.11879158,0.144150405,0.47679509,0.0306551624,0.0337556824,0.00775664765
93208.092697,0.114652361,0.388400475,-0.766194216,-0.0193209182,0.0149979712,-0.0063099023
93208.102723,0.0875907148,0.431067541,-0.0451046316,-0.06239089,0.00409552222,-0.0215389244
93208.112748,0.00232678071,0.0535869256,1.22157593,-0.00481015304,0.0296008829,-0.00433197245
93208.122773,0.13607971,0.252929435,0.296158537,0.0754532591,0.0344614163,-0.00437058881
93208.132799,0.2995054,-0.210499283,-1.01700321,-0.00570231164,-0.000156214344,-0.0321958289
93208.142824,0.212961892,-1.02712822,-0.577722731,-0.0822372958,-0.0241654105,-0.000336431898
93208.152850,0.063732504,-0.00344989386,0.225417944,-0.0520389155,-0.0348058045,0.00241301535
93208.162875,0.243411976,0.712687009,1.44942549,0.0371351689,0.00610780669,-0.0189990662
93208.172900,0.216339241,0.0337991472,0.328421223,0.0794349536,0.0179615375,-0.00526647642
93208.182926,0.0960610397,-0.416297184,-1.14189391,-0.0337137058,-0.0178473275,-0.00724360626
93208.192951,0.117880347,-0.240418657,-0.201392925,-0.134117544,-0.0252368003,-0.0113448752
93208.202976,-0.146541848,0.766860132,0.84511227,0.047502853,-0.00574086327,-0.0129491622
93208.213002,-0.152460023,0.103221424,0.267408828,0.049819272,-0.00285586063,-0.027519051
93208.223027,0.17026171,-1.00138917,-0.767353323,-0.0355909653,-0.0154816415,-0.00899783056
93208.233052,-0.0881552898,-0.815672532,-0.223950794,-0.0535590462,-0.0244567599,-0.0137734106
93208.243078,-0.135518277,-0.790203744,0.937783539,0.00354258553,-0.00417891936,0.00349638937
93208.253103,-0.122837293,-0.601738799,0.45913493,0.0528981537,0.0163852125,0.022094842
93208.263128,-0.115351705,-0.205851841,-1.05442488,-0.0224731285,-0.0133651635,0.011816903
93208.273154,0.0987399584,-0.133594907,-0.205475811,-0.111446679,-0.0137851443,0.0183499046
93208.283179,-0.069462152,0.932305181,0.659217942,0.00506635336,0.00254056579,0.0193637684
93208.293205,0.0202615015,0.587159983,1.01392921,0.0388541445,0.0388365239,0.000329357572
93208.303230,0.270576571,-0.51205725,-0.244289233,-0.0032578893,0.0322470628,0.0180737339
93208.313255,0.267989112,-0.387113723,-0.45089434,-0.0264364462,0.0290331598,0.00527697848
93208.323281,-0.0502869296,-0.499833363,-0.0986409915,-0.0279539153,0.00828926545,0.0210921615
93208.333306,0.00715885878,-0.228495306,0.302526903,-0.0211282335,0.00533502083,0.0280504674
93208.343331,-0.080669866,0.520741017,-0.198321847,0.00236084801,-0.0132141626,0.0225853957
93208.353357,-0.0822730634,0.525455405,-0.356386503,-0.00550772808,-0.0451228246,0.0070828679
93208.363382,0.0860333841,-0.155037673,0.708349929,-0.0201399345,-0.0257331505,0.0189288743
93208.373407,0.0719873048,0.12664844,0.473552747,0.0375771597,-0.00172288867,0.0278776288
93208.383433,-0.268302799,0.229280392,-0.466613303,0.00689754263,-0.0250074379,0.00266415114
93208.393458,-0.205666,-0.464875337,0.0929360579,-0.0703101605,-0.0346739143,0.0152318738
93208.403484,-0.0384170984,0.348431526,1.1373434,0.00383011415,0.0151799284,0.0152236186
93208.413509,-0.342469256,0.683464202,0.367554378,0.0827387795,0.0272019692,0.00245189713
93208.423534,-0.343047787,-0.114767686,-0.932556744,0.0421055965,0.00219009398,0.00221860409
93208.433560,-0.229820435,-0.198133668,-0.539167083,-0.0348672159,-0.00509418454,-0.0152293611
93208.443585,-0.314672647,-0.077753257,0.279632349,0.00119198661,0.00448813569,0.00294857658
93208.453610,-0.672276746,0.28845147,-0.105674543,0.029354915,-0.00916722324,0.00668792147
93208.463636,-0.594397825,0.205982993,-0.592022475,-0.000461037445,-0.0394404382,-0.0165196639
93208.473661,-0.0482278599,-0.488299211,0.541103019,-0.0534070767,-0.00970278494,-0.00128718093
93208.483686,-0.0834564462,0.380238211,0.565189413,0.0322367214,0.0209299587,0.0093452232
93208.493712,-0.412882809,0.628590383,-0.527383121,0.0402802676,0.00570972729,-0.0176485777
93208.503737,-0.121849908,-0.523487027,-0.509879613,-0.0588063709,0.00380956195,-0.000130570494
93208.513762,-0.251961595,-0.0426704815,0.279244227,-0.0553373359,-0.00216497341,-0.00464595947
93208.523788,-0.213996332,0.193309901,1.22482003,0.0365438499,0.0316273458,-0.00432318449
93208.533813,-0.0293144852,-0.420304629,0.166091895,0.0431050807,0.0282102432,0.00180661306
93208.543839,0.322791656,-0.926075858,-0.0451683445,-0.0867964551,0.0286262278,0.00999476854
93208.553864,0.0235194803,0.0291846756,0.707207189,-0.0124077117,0.0517728291,0.0329099372
93208.563889,-0.841487942,1.53697591,-0.254517197,0.121497624,0.0291695129,-0.0140740834
93208.573915,-0.522240425,0.161283928,-1.33285545,0.047698237,-0.0163931772,-0.020403618
93208.583940,-0.217211969,-0.638702466,-1.16534083,-0.0772010908,-0.0509546138,0.00347561622
93208.593965,-0.0433315575,0.134466621,0.896951762,-0.0595376715,-0.0248188861,-0.013815755
93208.603991,0.0211515456,0.161276074,1.80620713,0.113096416,0.0434895977,-0.000874390826
93208.614016,-0.0581528955,-0.488642728,-0.289017433,0.0325794704,0.0356351361,-0.00714799948
93208.624041,-0.123902475,-0.455827559,-1.09255851,-0.0803928897,0.00813107379,-0.00103178341
93208.634067,-0.267309477,0.161221586,-0.0299047244,-0.0332658552,-0.0122221354,-0.00852671824
93208.644092,0.104313411,-0.267421377,1.48055537,0.025252847,0.0303791203,0.0125620551
93208.654118,0.00263602933,-0.22166325,-0.209226103,0.0440534316,0.0132978726,0.0196716301
93208.664143,0.037987347,-0.261696149,-0.624911768,-0.0403064564,-0.003554611,-0.00307149906
93208.674168,0.0264251569,-0.546535529,0.101378892,-0.0250854231,-0.0105294297,0.0227718167
93208.684194,-0.130191255,0.0593354015,0.276746565,0.0137956627,-0.00236417772,0.0129442196
93208.694219,0.0725071639,0.0303569799,-0.530688008,0.0357710011,-0.010903338,0.010521275
93208.704244,0.0634805933,-0.268341268,-0.2591168,-0.0327659808,-0.0169700179,-0.00841646269
93208.714270,0.0633231377,-0.176985593,0.585693272,-0.00674370071,-0.00468379119,0.00535207987
93208.724295,-0.144708148,0.0468450455,0.675813687,0.0405018404,0.0190697405,0.00929835159
93208.734320,-0.136714355,-0.209939147,-0.57885495,0.013275547,-0.00936749298,0.0233854093
93208.744346,0.315181948,-0.200509421,-0.101855277,-0.0655921027,-0.00359881949,0.0109921219
93208.754372,0.225141958,0.148721357,0.762745536,0.0267247763,0.0240458585,0.0263545662
93208.764398,-0.0631812451,0.178637105,0.17716274,0.0665278509,0.0345661454,0.0211334396
93208.774423,-0.144859996,-0.347405069,-0.932932592,0.0199523587,-0.00905403867,0.0175948963
93208.784448,0.103776144,-0.678878117,0.0510351907,-0.0761637911,-0.0139377434,0.0161314905
93208.794474,0.157607889,-0.0742757993,1.03470019,-0.0107554868,0.00640667649,0.0439633876
93208.804499,-0.069843041,0.815935786,0.461041056,0.0434100144,0.0192487054,0.0152361356
93208.814524,-0.0630973844,0.102514755,-0.50438277,0.00739022717,-0.0044595534,0.0117077138
93208.824550,-0.276288902,-0.276568286,-0.633388504,0.00971063972,-0.0202100202,0.0108946506
93208.834575,-0.130047572,-0.28284448,-0.57551733,-0.0058552702,-0.0411182307,0.0141895134
93208.844600,0.0160487791,-0.396743429,-0.0354062444,-0.0142500866,-0.0311460253,0.0136073455
93208.854626,-0.08530865,-0.534770747,0.763317783,0.00577821629,-0.0146277677,0.0170303062
93208.864651,0.169971531,-0.578983545,0.902192586,-0.00639429409,0.0187821202,0.0318800956
93208.874677,0.174847521,0.131631453,0.231689864,-0.0217194539,0.0332556032,0.0403675884
93208.884702,-0.0319178361,0.856547417,-0.392836704,0.0392155349,0.0205675028,0.0228543729
93208.894727,-0.132782714,-0.370001954,0.282385448,-0.0113365883,0.0306281261,0.0173730552
93208.904753,0.0314811617,-0.633131461,-0.00188625214,-5.01117029e-05,0.0217060037,0.0516644493
93208.914778,-0.0919523623,0.443835581,-0.461852372,-0.00296547404,0.00138155813,0.0081073856
93208.924803,0.128479537,-0.384127766,0.237401812,-0.0123153003,0.00880804937,0.0437135845
93208.934829,-0.176826256,0.371210344,-0.579462268,0.0270824395,-0.0184158497,0.0324364267
93208.944854,-0.185600788,-0.011369517,0.278374458,-0.0216619298,-0.020064611,0.0144691449
93208.954879,0.0258863191,-0.570927737,0.785619047,0.00233501545,-0.00383717241,0.0579590946
93208.964905,-0.0600715703,0.482279367,-0.114454062,0.00205964455,-0.00457353657,0.0414650738
93208.974930,-0.0223605561,0.471250315,-0.565025162,0.00323702814,-0.0149340313,0.0286329016
93208.984956,-0.0694678876,-0.0736203676,0.162936646,-0.0246694386,-0.0101485979,0.0253968947
93208.994981,-0.0105255953,0.111471055,0.827011965,0.000998108531,0.0135604599,0.0244820975
93209.005006,-0.0571884892,0.334448009,0.634662762,0.0757692829,0.041814737,0.0166638568
93209.015032,-0.13230178,-0.248687578,-0.612311814,0.0382554643,0.0230125505,0.0259268638
93209.025057,-0.0753051606,-0.0976528938,-1.25619073,-0.0347625539,-0.0133092375,0.0168662556
93209.035082,0.216726451,-0.128514846,0.381221669,-0.0646224469,0.000181804062,0.0100099482
93209.045108,0.317677856,-0.135707214,1.68309337,0.0271455571,0.0474236198,0.0313977972
93209.055133,0.183287798,-0.110139377,0.58473524,0.0567596406,0.0629088357,0.0394714326
93209.065159,-0.000733291844,-0.320528606,-1.21994278,0.0334551185,0.0225156061,0.0367704555
93209.075184,0.0729418747,-0.709842652,-0.808743318,-0.0673423335,-0.00348030869,0.032488361
93209.085209,0.0225355839,-0.336438306,-0.230485164,-0.0572553426,-0.0435065515,0.0472012609
93209.095235,0.275230607,0.476277569,0.998286815,0.0177414026,-0.000472534564,0.0348026454
93209.105260,0.119176396,0.116498921,0.532340452,0.0238735974,-0.00296152523,0.0227302704
93209.115285,0.323951859,-0.607403182,0.251472423,-0.0265256613,0.0126925353,0.0484436229
93209.125311,-0.0678988116,0.601427943,-0.536817305,0.00766080432,-0.00808997452,0.0248655938
93209.135336,-0.18087944,0.271701703,0.101072603,-0.00173749053,-0.00936296489,0.0136507563
93209.145362,-0.00402275271,-0.252098482,0.249801859,0.0118608763,-0.00951609667,0.0378932431
93209.155387,0.0709372295,0.161697569,-0.0286649535,0.0125711411,0.0116927847,0.0208029412
93209.165412,0.0436594926,-0.157817257,-0.838933873,0.000937654753,-0.00816906989,0.0368956253
93209.175438,0.0134856141,-0.105685677,-0.662261547,-0.0561096519,-0.0218036566,0.0282781683
93209.185463,0.334936413,0.011000912,1.23388947,-0.0341436341,0.0148821864,0.0217347816
93209.195488,0.311477577,0.274372164,1.74305655,0.0947072878,0.0794686377,0.0361134559
93209.205514,0.130013816,0.326941725,-0.817645586,0.0946620181,0.044840619,0.0302851256
93209.215539,-0.0307585282,-0.121922699,-1.58060915,-0.0647643954,-0.00939492323,0.0140411751
93209.225565,0.267382232,-0.158515487,0.181125213,-0.0872175023,-0.0210092347,0.0262115542
93209.235590,0.308221717,0.718686468,1.46620243,0.084760651,0.0194969121,0.0254717283
93209.245615,0.241778694,-0.0756382696,0.400457116,0.0971659198,0.0191088896,0.0154537158
93209.255641,0.200518901,-1.1387608,-1.32812667,-0.0285997316,-0.0159111451,0.0454307869
93209.265666,0.106728957,-0.130450837,-0.900417977,-0.110720977,-0.048307877,0.0236553587
93209.275692,0.126707458,0.404682661,1.3070605,-0.0124814948,-0.0238936152,0.0247397982
93209.285717,0.0735916164,0.375614753,1.41471073,0.121015579,0.0180844609,0.0278865881
93209.295742,0.118478788,-0.323079058,-0.700036859,0.022924697,0.00462777494,0.0216462687
93209.305768,-0.0350699069,-0.396760782,-1.13194008,-0.0835724473,-0.029379461,0.0217871517
93209.315793,0.018532851,0.23216961,0.23147476,-0.0129704513,-0.0154908095,0.0242180843
93209.325818,-0.150086973,0.435573656,0.714670365,0.0586123876,-0.00443016831,0.0114266556
93209.335844,0.396273181,-0.190555342,0.411695134,-0.00475912774,0.0205329712,0.0210760869
93209.345869,0.18063838,0.188029001,-0.0141577047,-0.0203231741,0.0272071194,0.010768855
93209.355895,0.0245850272,0.296499496,-0.000642974079,0.0268456694,0.024789501,0.0243565682
93209.365920,0.0571037883,0.16428132,-0.471069114,-0.000942551298,0.00525415037,0.0049927244
93209.375945,0.209919492,-0.64906392,0.0219797766,-0.0246715825,-0.00153637759,0.0144179184
93209.385971,0.223499543,-0.740218136,0.61961483,-0.0231083073,0.0127086043,0.0295547917
93209.395996,0.0373079499,0.0923318723,0.0188368024,0.0261716228,-0.0022823289,0.0189229213
93209.406022,0.0885175564,-0.0555132494,-0.29585517,-0.00120300846,-0.00862810947,0.0189386345
93209.416047,0.157118059,0.214519844,-0.593511252,0.00436938973,-0.0302622989,0.0176155753
93209.426072,-0.0391592677,0.155378924,-0.0442494761,-0.0202230383,-0.0376989096,0.0085523054
93209.436098,0.167299042,-0.203178475,0.686390611,0.0101923915,-0.00573884556,0.0216073878
93209.446123,0.00649595616,0.09808407,0.0886012435,0.0285857785,-0.00298327301,0.0132557144
93209.456149,-0.0234268336,-0.237985567,-0.136013568,-0.0251727905,-0.0139970426,0.0174680352
93209.466174,-0.0576865932,0.157725779,0.273216053,-0.00185521657,-0.00476972153,0.0193466302
93209.476199,-0.101030225,0.661330623,-0.137680624,0.0357254483,-0.00473510055,0.0129118999
93209.486225,0.421450877,0.272046644,-0.44803369,-0.0163824949,-0.0143435197,-0.00174773578
93209.496250,0.265990504,-0.466592406,0.791391785,-0.0140317213,0.0170857757,0.00566224288
93209.506276,-0.0518491283,-0.585421761,1.05046825,0.0338756144,0.0438151248,0.0264138617
93209.516301,-0.0682903408,0.0624539263,-0.615650603,0.0538463928,0.0174887124,0.0129177589
93209.526326,0.0940746608,-0.183370051,-0.987639749,-0.0352163687,-0.0171193331,0.01287142
93209.536352,0.227893924,-0.0675827131,0.119753338,-0.0680504814,-0.0116795599,0.0254010595
93209.546377,-0.074734649,0.908040946,0.553977698,0.0181195568,-0.00738228252,0.00979147479
93209.556403,0.110487351,0.318375008,0.602353899,0.0608611591,0.0191673022,0.00451788306
93209.566428,0.112970765,-0.688229882,-0.407504696,0.0128273237,-0.00414680783,0.0170312785
93209.576453,0.170323505,-0.716783557,-0.211513337,-0.0609470345,-0.00499875331,0.0256071873
93209.586479,0.109134676,0.304568601,0.262825007,0.0263750888,0.00291003613,0.0169082396
93209.596504,0.00256811519,0.140236409,0.387817414,0.0350239724,0.0165491495,0.0164246093
93209.606530,0.01405134,0.0206825033,-0.412296607,-0.0219373163,-0.0183979161,0.0234471001
93209.616555,-0.0383820362,0.667341846,0.0672574267,-0.011150714,-0.0142777395,-0.00254162494
93209.626580,0.052288908,0.0773196057,0.703212567,0.0215875246,0.00300084986,0.0139063243
93209.636606,0.256507001,-0.195186874,0.107235217,0.0119841667,0.00867711101,0.0182558
93209.646631,0.125730439,-0.200121188,0.035702597,-0.0412984975,0.0022567627,0.00837413967
93209.656657,-0.0208634585,-0.0454386996,0.756360804,-0.00133084017,0.0275466722,0.0156293903
93209.666682,-0.031335908,0.174049448,0.499189877,0.0112091871,0.0327563472,0.013953995
93209.676708,0.122604444,-0.0239129366,-0.207950092,0.00227721035,0.0323739164,0.0267875008
93209.686733,-0.11443364,0.214432257,-1.25251058,0.0446710065,0.0159483403,0.0223645233
93209.696758,-0.294588328,0.0443599736,-1.7125223,-0.0752367526,-0.0482298471,2.37980857e-05
93209.706784,0.300636011,-0.238864614,0.551342089,-0.116162352,-0.0312766954,0.0016571153
93209.716809,0.312419644,0.495773858,2.2893811,0.0960550979,0.0533484407,0.0122778015
93209.726835,-0.0704490806,-0.0758441583,0.229051332,0.117775306,0.0460865349,0.00220759073
93209.736860,-0.286276646,-1.02624552,-1.93002055,-0.0575115569,-0.0262411926,0.0138786277
93209.746885,0.139719482,-0.48827426,-0.384850381,-0.156386465,-0.0345603749,0.0156421736
93209.756910,0.117709338,0.657611164,1.59565591,0.0328031592,-0.00548398122,0.0242298022
93209.766935,0.0625590763,0.396118685,1.231694,0.117283955,0.0342605002,0.0221551992
93209.776961,-0.0836673125,-0.278288351,-1.95489488,0.0529451817,-0.0149877388,0.0216934085
93209.786986,-0.152075845,-1.07202506,-0.761339761,-0.17511861,-0.0444548167,0.011705488
93209.797011,-0.17883038,-0.207472081,1.2849346,-0.0133946929,-0.0375748053,0.0647450015
93209.807037,0.0701357495,1.46520042,1.66134039,0.115269005,0.0302777439,0.0178065225
93209.817062,0.406918421,0.291901555,-0.979644074,0.073790811,0.0220397878,0.0175692365
93209.827088,-0.211874261,-0.536385489,-1.58449505,-0.110268243,-0.0205145963,0.0266157277
93209.837113,-0.134049711,0.374559325,-0.261987972,-0.0906042606,-0.0426294878,0.0208065752
93209.847139,0.14538044,0.532346589,2.65742063,0.0581929386,0.0561370365,0.00368165039
93209.857164,0.241240075,-0.592963701,0.784742264,0.138023853,0.0618942603,0.0396473743
93209.867189,0.240614856,-0.678601492,-1.8061136,-0.0508017205,0.0325140022,0.0213131085
93209.877215,-0.100522677,-0.562538241,-1.10169926,-0.132405236,-0.00801984407,0.0333663076
93209.887240,-0.090699942,0.403671767,0.926699835,-0.0276814885,-0.00778388744,0.0297388174
93209.897266,-0.0971505794,0.589627542,1.48056531,0.105234481,0.0216581561,0.0362457186
93209.907291,-0.0129889075,0.0700189091,-0.931059199,0.0510974787,-0.00949230511,0.0310482942
93209.917317,-0.00156770597,0.125368575,-1.40725866,-0.0884244666,-0.0500940606,0.0235488322
93209.927342,0.0562841151,0.845570169,0.00800268919,-0.0798126012,-0.0635520816,0.0100362189
93209.937367,0.212505892,0.730223177,2.41577169,0.0533875301,0.0235258322,0.0154933017
93209.947393,0.181129999,0.202974349,0.521187189,0.0892914683,0.0428425372,0.0218047276
93209.957418,-0.0872413625,0.168864337,-1.56319683,-0.0166248418,0.000747549231,-0.0149974944
93209.967444,-0.0773397717,-0.643592795,-0.260208687,-0.101508573,-0.00306183612,-0.00630813278
93209.977469,-0.322102797,0.305083054,0.314177593,-0.0256103482,-0.0170072131,0.00842021313
93209.987494,-0.181475214,1.20653669,0.838501911,0.0333075635,0.0024522387,-0.0261598676
93209.997520,-0.0490495333,0.152882851,0.200196409,0.0426957384,0.00569410482,-0.0186913013
93210.007545,-0.244874267,-0.401886856,-0.735327953,-0.0153843407,-0.00961667486,-0.00829405244
93210.017571,-0.435880896,0.105476884,-1.07760644,-0.0276652426,-0.0427746288,-0.0265175328
93210.027596,-0.218658095,-0.345969045,0.393836236,-0.030496981,-0.0364951603,-0.0281220861
93210.037622,0.106543335,-0.5245228,1.12389122,0.0168526899,0.00809760764,0.000206490979
93210.047647,-0.00901167444,0.357042848,-0.239268775,0.0300696921,0.00457637571,-0.0213635154
93210.057672,0.102935218,-0.158784732,0.257989842,-0.0441560671,0.018351309,-0.0327866115
93210.067698,0.0752533665,-0.227656407,0.839517226,0.0348266326,0.052230712,0.00776427612
93210.077723,-0.2466522,0.412484202,-0.332781756,0.0287503619,0.0327736586,-0.0178318992
93210.087749,-0.233520915,-0.247320016,-0.900356602,-0.0445478186,-0.00720731309,-0.000734403729
93210.097774,-0.258279016,0.0777533301,-0.270587458,-0.0235748943,-0.0347073823,-0.0159735419
93210.107800,0.00589222724,-0.462982107,1.23186936,-0.00615995005,-0.00546933385,-0.00332539249
93210.117825,0.141008517,-0.111619469,0.275424376,0.0706338957,0.00357635878,0.00287897373
93210.127850,-0.22116858,-0.0714360093,-1.08161859,0.0142470542,-0.0232509952,-0.0107060773
93210.137876,-0.203397799,-0.510669302,-0.789771491,-0.0853823349,-0.0602124743,-0.0042812014
93210.147901,0.0799028454,0.170944322,1.16332073,-0.0223703459,-0.0122880917,0.00669501722
93210.157927,-0.308956899,0.649760816,0.964651088,0.0934337527,0.010523214,-0.00698430929
93210.167952,-0.311743717,-0.745916713,-0.598693038,0.0432502106,-0.00312814908,0.00798292179
93210.177978,-0.095682507,-0.855724703,-1.03372579,-0.0818150267,-0.0273930095,0.0105065331
93210.188003,0.398812636,-0.0602220482,0.584952098,-0.0615385212,0.00683553563,0.00580392312
93210.198028,0.0397588593,0.651201078,1.24999363,0.0773527846,0.051369179,-0.0030082101
93210.208054,-0.0883633248,0.18338503,-0.400516152,0.0567037016,0.0381415263,0.00268269842
93210.218079,0.145690391,-0.120519975,-1.06727793,-0.0801241919,0.00970083009,-0.0192396455
93210.228105,-0.0877562715,-0.464206242,0.377557302,-0.0354744308,-0.00362988841,0.00902981032
93210.238130,-0.26992925,-0.0161313337,0.612045272,0.0494085029,-0.00979324244,0.00932275783
93210.248156,0.354777863,-0.257460082,0.0121685767,0.0208666064,-0.00793542154,-0.00170645677
93210.258181,0.281905701,-0.626046836,-0.028707039,-0.030284727,-0.0099045625,0.0110586062
93210.268206,-0.268001405,0.196975547,-0.306924845,0.0131087247,-0.03416989,0.0288379509
93210.278232,-0.18947478,0.783708172,-0.413529948,0.00437275786,-0.0471591912,-0.00329495221
93210.288257,0.439393982,-0.0899747695,0.723080466,0.0184116121,-0.0155546591,0.0140203889
93210.298283,0.247869211,-0.259057763,0.626587007,0.0309476443,0.0214275923,0.0198804084
93210.308308,0.074843297,-0.186309886,-0.0994055461,0.00737334136,0.0206241161,0.0151831247
93210.318334,-0.0331043881,-0.0190304618,-0.145482822,-0.0473122746,0.0199101232,0.0100389626
93210.328359,0.0183486353,0.848205559,-0.054475102,0.0429369286,0.0150637031,0.0039136922
93210.338384,0.229184822,0.344432154,-0.172769473,0.0396106392,0.0256692097,-0.0191135965
93210.348410,0.483817207,-1.02224388,-0.325813086,-0.0279838499,0.0108841378,0.0163136367
93210.358435,0.332059177,-0.42908634,0.365180051,-0.0690878779,0.0144178867,0.00873507932
93210.368461,0.143535524,0.301928316,1.2289111,0.0556439348,0.0245714542,0.00391422492
93210.378486,0.258861583,0.063098284,0.353800578,0.102079079,0.0361809731,0.0133069269
93210.388512,0.316538915,-0.0944903381,-1.55804836,0.0467151552,-0.00607939949,0.019521147
93210.398537,0.185756417,-0.116549628,-1.46967274,-0.0903103426,-0.0590315647,0.0114198113
93210.408563,0.26046911,0.0402981081,0.827101397,-0.0657408163,-0.0563428365,0.00465804571
93210.418588,0.263099915,0.335982415,2.66315304,0.10070622,0.0361170545,0.0148140099
93210.428613,0.360929188,0.0220462249,0.148619367,0.0960467532,0.0280990768,0.00569055323
93210.438639,0.275959689,-0.437839921,-1.27828157,-0.0524345972,0.00330051989,0.00150859123
93210.448664,0.116081316,-0.200905653,-1.00150402,-0.0584080666,-0.0185405966,0.0177914239
93210.458690,0.172843452,0.318965083,0.499449989,-0.0393930972,-0.00362636195,-0.00764842145
93210.468715,0.105924746,-0.262216958,1.29030226,0.0606743805,0.0232601129,0.0168944709
93210.478741,0.0755548611,-0.458680099,-0.0388444022,0.0446104594,0.0123629905,0.0168079194
93210.488766,0.246872345,-0.297762374,-1.02493751,-0.014605727,-0.00879049674,0.0112799956
93210.498792,0.345229113,0.0521780497,-0.274858559,-0.0645051077,-0.0137450416,0.0134462109
93210.508817,0.261087169,0.965373995,0.331895621,0.0253712516,-0.0104451198,-0.00590458419
93210.518842,0.13681882,-0.0414718783,1.09551443,0.00313811656,0.0197727047,-0.00311998278
93210.528868,0.220775817,-0.414485495,-0.0138584295,0.0170480739,0.0195047911,0.0294600651
93210.538893,-0.0490123248,0.247486038,-0.501066777,-0.0154888313,-0.00309586013,-0.0104394145
93210.548919,0.075312111,-0.291685428,0.00258650936,-0.0146584576,-0.0142300036,0.0153106898
93210.558944,0.0290453037,0.0515323722,0.607098463,-0.00562741142,-0.00213046442,0.00776222628
93210.568970,0.0828060104,0.196574529,0.394780824,0.0447928868,0.00911153667,0.0200881343
93210.578995,-0.113958278,0.100491277,-0.653851447,0.0208017994,-0.0211393088,0.00371368881
93210.589021,0.0312613175,-0.292135784,-0.0773491971,-0.0564114973,-0.0123482142,0.0117074326
93210.599046,-0.172132289,0.545665797,-0.205312729,0.046807833,-0.0248786528,0.0057733776
93210.609071,0.0942613425,-0.150395473,0.403125458,0.0146901105,0.00920048729,-0.0064412104
93210.619097,0.213029898,-0.735700878,-0.274434196,-0.033148516,0.00306589552,0.01962208
93210.629122,-0.0524521814,0.350239013,-0.319182854,-0.0115135303,0.00740178814,0.00464606145
93210.639148,-0.22528597,0.261605,0.35761283,-0.0317125432,0.00246109162,-0.0204393174
93210.649173,0.19653058,-0.202117093,0.759864428,0.0404801629,0.0247112699,0.0175046027
93210.659199,-0.0736444609,0.221405969,-0.232186708,0.013649879,0.00885614008,-0.0215234905
93210.669224,0.099056824,-0.843302882,0.0593026683,-0.0454901382,0.00205868809,0.0112831909
93210.679250,-0.122218869,0.106554212,-0.0517687657,-0.0242298581,-0.0170689337,0.00718591828
93210.689275,0.102883552,0.559957576,0.636100101,0.0215243157,-0.000262523303,-0.0109382253
93210.699301,0.160464922,-0.321921595,0.0924988355,0.0211562663,0.0116306208,0.0187187381
93210.709326,-0.331134098,0.18062689,-1.17478437,-0.00340606924,-0.0326460302,0.00566312252
93210.719352,-0.371819635,0.09945376,-0.256104174,-0.0514356457,-0.0535846017,-0.019225182
93210.729377,0.218171535,-0.608316241,1.74671975,-0.00935450569,-0.00315924361,0.00795210991
93210.739403,0.165523959,-0.120219969,0.968671429,0.0794840232,0.0453073606,0.0283476617
93210.749429,-0.429497661,0.340159335,-1.45852883,0.0160310119,0.00154549675,0.00414671889
93210.759454,-0.0309924009,0.0866204632,-1.03839495,-0.0946741998,-0.0171379093,-0.010883363
93210.769480,-0.00473396972,0.0615838198,0.832610515,-0.0143268937,0.00673759542,0.00321248174
93210.779505,0.0184667361,-0.0459605269,1.06087859,0.05390862,0.0424388684,0.0170241669
93210.789531,0.119580931,-0.341174175,-0.478081623,-0.0208071638,0.0225011129,0.00634755474
93210.799556,0.16428669,-0.521639354,-0.327701092,-0.0546234511,0.0143105611,0.013517051
93210.809582,0.13783397,-0.178145102,0.25437925,-0.0131913219,0.0141467769,0.0224876422
93210.819607,0.279838028,0.282563325,0.120632459,0.0361517258,0.0131422319,0.0124464603
93210.829633,0.388085381,-0.220657762,-0.292618672,0.0143159358,0.0110141002,0.0178071372
93210.839658,0.25612182,-0.511873418,-0.132829092,-0.0680692196,-0.00972420163,0.0310824625
93210.849684,0.233455412,0.450332651,0.661241557,-0.0262325555,0.000320975319,0.0332521424
93210.859709,0.122386289,0.905383856,0.78383684,0.0750708953,0.0201101266,0.00821869168
93210.869735,0.0672920414,-0.212062843,-0.356045727,0.00326568191,-0.00437204726,0.0195962489
93210.879760,0.195251902,-0.0362235887,-0.741577076,-0.0735063255,-0.0397998132,0.0145266559
93210.889786,0.590345956,0.12245571,1.42196757,-0.0173597001,0.0231394731,-0.00151835755
93210.899811,0.204378115,-0.245574451,0.464987748,0.11054793,0.0512190424,0.0388053656
93210.909837,-0.276943658,0.325561084,-3.10797128,0.0214654598,-0.0485150069,0.0091060577
93210.919862,0.347269569,-0.830313125,-0.536935378,-0.215406209,-0.0488633476,-0.0282916501
93210.929888,0.55330864,-0.345706813,2.47556886,0.0340443663,0.0163761079,0.0453668609
93210.939913,-0.111087106,1.31769062,1.08964408,0.149453521,0.0429318175,-0.0100974645
93210.949939,0.0803837151,-0.15208043,-1.87382053,0.0338459611,-0.00526953256,-0.0105070584
93210.959964,0.279458381,-0.876730154,-0.799822929,-0.15659669,-0.0285197273,0.00158688845
93210.969990,0.192940447,0.462178828,1.07590723,-0.00864770263,-0.016865734,0.0259920955
93210.980015,-0.16208423,1.26504726,0.972866543,0.120546766,0.00259930966,0.000569027849
93210.990041,-0.0431593793,-0.279911495,-0.645860448,0.0263385121,-0.028979389,-0.00521429256
93211.000066,0.109266622,-0.671949267,-0.578913402,-0.0816862285,-0.0523587465,0.0129972026
93211.010092,-0.150601663,0.281079881,0.622254531,-0.00128965511,-0.0489677452,0.0142571433
93211.020117,0.0233077921,0.220307688,1.15148416,0.0267853905,-0.0170178004,0.0140313078
93211.030143,0.0604236717,0.0101181104,-0.215604406,0.0247025322,-0.0165568069,0.0108048879
93211.040168,0.03227697,-0.298815609,-0.896917276,0.00282519497,-0.0204692576,-0.00259853527
93211.050194,0.249576161,-1.09255785,0.195352476,-0.126580998,-0.0107527152,0.0145729948
93211.060219,0.118000576,0.166101357,0.605766922,0.0306003671,0.0296881851,0.0357443243
93211.070245,-0.352629489,0.74641721,-0.195142633,0.0604850315,0.0225605015,-0.0090969149
93211.080270,0.274870597,-0.654733271,-0.832403595,0.00123608683,0.00307548279,0.01306751
93211.090296,0.347620721,-0.586166442,0.313014395,-0.113016449,0.00357562443,0.00325642386
93211.100321,0.172766569,0.795494837,1.31064479,0.0568655282,0.0367674008,0.0118523091
93211.110347,-0.0484880818,0.931653,0.438861373,0.12122561,0.0458983146,-0.0181695055
93211.120372,0.264173682,-0.694994846,-0.995011155,0.0285460055,0.00683293678,0.0195674859
93211.130398,-0.0644526441,-0.278514744,-1.19829735,-0.109805748,-0.051752612,0.00957264286
93211.140423,0.220652191,0.491276035,1.06513274,-0.0213677585,-0.0315445438,0.00470491732
93211.150449,0.26157371,0.753405753,1.7693612,0.074173674,0.0258021001,0.00331048621
93211.160474,0.10625006,0.610560952,-1.06916828,0.0913180411,-0.0043014735,0.00570173841
93211.170500,-0.0990850089,0.0531327749,-1.330622,-0.0934523344,-0.0389337502,-0.0413914695
93211.180525,0.37227421,-0.392478465,0.439464599,-0.0583068691,-0.014060894,0.00614515506
93211.190551,-0.0519796137,0.794627771,0.894683817,0.094728224,0.0150408,-0.0334949307
93211.200576,0.0757394421,-0.873553132,0.317927886,0.051584214,0.0193426032,-0.0270205215
93211.210602,0.593512092,-1.16481177,-0.536788663,-0.0782869682,0.0135193355,0.00292645814
93211.220627,0.318178901,0.0745691836,0.52725628,-0.0378628448,0.0326767862,-0.000555092469
93211.230653,-0.145224381,0.50018941,0.416729036,0.0524878241,0.0199098568,-0.00115084089
93211.240679,0.133618836,-0.0296825239,-0.316739553,0.00986952242,0.00549549749,-0.00331332814
93211.250704,0.118523138,0.104968569,-0.713595429,-0.00910709798,-0.0221782085,-0.0217573158
93211.260730,0.285414476,-0.270625287,0.544521888,0.00208776584,-0.0085217841,-0.0119781885
93211.270755,0.298338219,-0.151189601,0.305105229,0.0227285605,-0.00261728559,0.00503827911
93211.280781,0.0559604087,0.288080225,-0.281326294,-0.00866425131,-0.015386343,-0.016515214
93211.290806,0.027532077,-0.17476525,0.118017892,-0.0260214023,-0.00811085384,4.63891774e-06
93211.300832,0.276002158,0.331350189,-0.0844365251,0.0488174185,0.000283962116,-0.00114105362
93211.310857,0.194395413,0.107211288,-0.313664967,0.00244352757,-0.0030638976,-0.0307527408
93211.320883,0.340501938,-0.698082145,0.12476269,-0.0296768565,0.00613599224,0.00916964095
93211.330908,0.226221534,0.18537993,0.23624855,0.000611805532,0.0165710561,-0.00873958413
93211.340934,0.279682746,0.033017888,0.43889586,0.0135563659,0.0199905559,-0.00310247112
93211.350960,0.375036295,0.0134022375,0.179018597,0.0173566975,0.0245530829,-0.00539678428
93211.360985,0.213326817,0.0339142432,0.284553439,-0.000449730491,0.0171090141,-0.0172806084
93211.371011,0.332690863,-0.319301731,0.248664964,-0.00116399024,0.0136836572,0.00556691689
93211.381036,0.120178806,0.100519289,-0.243927414,0.0230806302,0.00422837026,0.000150313601
93211.391062,-0.0477501046,0.0280472874,-0.749857998,0.0158408266,-0.0389736965,-0.0130571006
93211.401087,0.195603601,-0.553272253,0.187548524,-0.0589892082,-0.0358522013,-0.00839816686
93211.411113,0.149655669,0.104164102,0.593004471,0.0113549968,-0.0133436993,0.00618610159
93211.421138,-0.0689818211,0.622923005,-0.109238958,0.0397613384,-0.0127916262,-0.00477307197
93211.431164,0.0247505748,0.00158198109,-0.757950703,-0.0251958221,-0.0372343883,-0.0115851713
93211.441190,0.201514269,-0.534580157,0.639285161,-0.0650311187,-0.00413528737,-0.00426653959
93211.451215,0.0544844909,0.0542594135,0.787592977,0.0533937924,0.0295201447,0.00889400393
93211.461241,-0.157725743,0.128517531,-0.330720147,0.0389884897,0.00929769687,-0.00824929681
93211.471266,-0.0462731822,-0.604015402,-0.498165795,-0.0413268581,-0.00667727459,0.0018619271
93211.481292,0.196978379,-0.231878153,0.462006686,-0.0626172274,0.00722069759,0.0157385953
93211.491317,0.00770721338,0.976383246,0.413988797,0.0556929,0.0135931093,0.00324677071
93211.501343,-0.178156573,0.318527532,-0.218029003,0.0280783176,0.000582502456,-0.0141750956
93211.511369,0.192556617,-0.315216215,-0.607407091,-0.0638950095,-0.014686998,0.00196978496
93211.521394,0.0306451858,0.421414235,0.329697234,-0.0314918011,-0.00851565506,-0.0237829797
93211.531420,-0.0286605696,0.114655795,0.939814753,0.0879725441,0.0181551054,-0.0168371908
93211.541445,0.00362893109,-0.844200708,-0.269943899,0.0102090389,0.00367549784,-0.00540397502
93211.551471,0.088879823,-0.658339625,-0.409290995,-0.0770374462,-0.00854148716,0.0106788548
93211.561497,-0.0692270646,0.348318859,0.334349444,-0.0218421035,0.00638686214,0.00668730866
93211.571522,-0.141747526,0.531493845,0.1667828,0.0534870028,-0.00261542131,0.00228563603
93211.581548,-0.0806495356,-0.20875538,-0.429064201,-0.00852736458,-0.0120853558,-0.00316026248
93211.591573,0.188505478,-0.398872586,0.141755911,-0.0419867896,-0.00796704367,-0.00672410335
93211.601599,0.197102772,-0.0904421861,1.00682259,0.025218349,0.0345218256,0.00888228603
93211.611624,-0.0260500035,0.360962689,-0.421678183,0.0654214323,0.0142807374,0.00420976989
93211.621650,0.0466597521,-0.232948248,-0.689524817,-0.0787855461,-0.00521653052,-0.00657070614
93211.631676,0.363469118,-0.0724127819,0.476067945,-0.0708019212,0.00472957687,0.0285843499
93211.641701,-0.0360485518,1.16667296,1.12793611,0.0937063321,0.0367697999,-0.00837712828
93211.651727,0.0398851982,-0.239127284,-0.114534726,0.0466669127,0.021672342,-0.00650732312
93211.661752,0.17604791,-0.570963941,-1.44377608,-0.0880437568,-0.018959241,0.0101723215
93211.671778,0.00253099805,0.106622008,-0.265650586,-0.0719518736,-0.0277775005,-0.00358050875
93211.681804,-0.0710633492,0.0634747572,0.826374251,0.0732649714,-0.0196974687,-0.000796706416
93211.691829,0.179662046,-0.969626465,0.634435967,0.0332488418,0.00859542191,0.00388859259
93211.701855,0.130992853,-0.679078461,-1.17170628,-0.0629210994,-0.0356628522,0.0204329491
93211.711881,-0.086874164,0.252368312,-0.103587216,-0.0830729678,-0.0383055061,0.00170373544
93211.721906,-0.288856909,0.466189707,1.41337685,0.0487218089,-0.0140505023,0.0102479551
93211.731932,-0.0203016325,0.113187659,0.817429897,0.0499388725,0.0115744332,0.00522203743
93211.741957,-0.0602172441,-0.190396754,-0.776647805,-0.0315740928,-0.00530042034,0.00490698544
93211.751983,-0.336283846,-0.0493400681,-0.495987282,-0.0302654151,-0.0194612462,0.00758053269
93211.762009,-0.369399239,-0.0408182413,0.291969853,0.00477885362,-0.0155400075,0.00186512293
93211.772034,-0.125406121,-0.312945494,0.357518722,0.0348699093,0.010315557,0.0127662402
93211.782060,0.0422509775,0.0225514482,-0.737486592,0.0238287114,-0.00323780207,0.00208243681
93211.792086,0.207008098,-0.352241147,0.072471362,-0.0731260628,0.00965509377,0.00193702849
93211.802111,0.218445,0.223699011,0.97313893,0.00195270707,0.0415041,0.0236772113
93211.812137,0.0450313655,0.836099234,0.680133304,0.0766455904,0.0677245185,0.00284436718
93211.822162,-0.00868264341,-0.108972863,-0.872679491,0.0187428724,0.0303220227,0.0157601647
93211.832188,-0.124136384,0.100786917,-1.3238392,-0.0396384113,-0.0226618331,0.00541618187
93211.842214,-0.0886634677,0.147474361,0.456898549,-0.0625474527,-0.0338665545,-0.0104080541
93211.852239,0.236445278,0.444026099,1.33312083,0.0121723218,-0.00696276501,0.0154850613
93211.862265,0.0180018312,1.48308956,-0.145129771,0.064244844,-0.0239348244,-0.0352244526
93211.872291,0.272577919,-0.0324427093,-0.347886386,-0.00934202503,-0.0209574103,-0.0384040028
93211.882316,0.0661306512,-0.556809378,-0.42876668,-0.0456795283,-0.0398285687,-0.0150344977
93211.892342,-0.132458907,0.0256485922,0.50385027,-0.00364632276,-0.023601396,-0.0441276692
93211.902367,0.1528149,-0.932127997,1.3132465,0.0258125011,0.0233911462,-0.0144850882
93211.912393,-0.000889751914,-0.427916675,-0.50852703,0.0332610942,0.00887638517,-0.0106528001
93211.922419,-0.164677991,-0.0681245193,-0.966581179,-0.062219888,-0.0140736718,-0.0214473903
93211.932444,0.0656657919,0.0718690396,-0.0610644173,-0.0395537242,-0.0181757379,-0.00503672566
93211.942470,-0.0659038749,0.488231955,0.827186737,0.04045083,0.0100548342,-0.0220319554
93211.952496,0.131792278,-0.346692354,0.329544089,0.0237983521,0.0119832288,-0.0108520044
93211.962521,0.257681835,-0.342786286,-0.0593570289,-0.0538527705,0.0129198628,-0.020769082
93211.972547,0.0540826869,0.220752236,0.229419581,-0.0228375923,0.011800536,-0.00501488708
93211.982573,-0.218178275,0.804258866,0.122299515,0.0410489775,0.00362569676,-0.0228950828
93211.992598,0.0557837917,0.0533661635,-0.417242831,0.0512251817,-0.0073182974,-0.0199845172
93212.002624,0.314336802,-0.519958378,-0.502857752,-0.0499190129,-0.0206522122,-0.0259952694
93212.012650,0.0971025299,-0.0212431055,0.257827929,0.00557460589,-0.0172063485,-0.0199693367
93212.022675,0.183754831,0.27563285,0.498035446,0.0573611036,0.00909769349,-0.0310299769
93212.032701,0.415031073,-0.472229353,0.0638110857,-0.0387558416,0.00980769284,-0.00328516401
93212.042727,0.209062145,0.652397375,-0.220510298,0.00316258101,0.0107533811,-0.0139689678
93212.052752,0.117529506,0.577888589,0.598960165,0.0400478952,0.0286293179,-0.0378564559
93212.062778,0.296740885,-0.489064862,0.22868133,0.0126847131,0.0369303897,-0.0102671729
93212.072804,0.100693211,0.10159195,-0.793293819,0.0123086749,0.00466752518,-0.0295836143
93212.082829,0.317612609,-0.367208195,0.0485427894,-0.0634420067,-0.00377283106,-0.0265537351
93212.092855,0.358620034,-0.13728714,0.928538156,0.00890915003,0.0146530475,-0.0104623837
93212.102881,0.0816002056,0.32910241,0.232345113,0.0668478161,0.0183271449,-0.0303178467
93212.112906,0.120466317,-0.561004455,-0.851904998,-0.0087018013,-0.0218069591,-0.0172806084
93212.122932,0.209970346,-0.303082509,-0.554514289,-0.0520016067,-0.0446773842,-0.0252855383
93212.132958,0.412131443,-0.319859219,1.3021061,-0.0280134473,-0.00251528644,-0.0140696345
93212.142983,-0.0305771438,0.0508743011,0.603632833,0.0685546398,0.011892681,0.00821836013
93212.153009,-0.193457675,0.414281899,-1.3453613,0.0269190446,-0.0282858964,-0.0225685798
93212.163035,0.165166926,-0.561248895,-0.348126624,-0.107480042,-0.0381614342,-0.0175684951
93212.173060,0.060240552,0.214122899,0.787674811,0.0179263484,-0.0133476937,0.000605181791
93212.183086,0.00183468635,0.54931504,1.12412678,0.0564566925,0.0270910747,-0.0295418017
93212.193112,0.32938846,-0.466043906,0.0292868848,-0.0321394838,0.0266684312,-0.00975584704
93212.203137,0.150410214,0.165003479,0.321062092,-0.0709409416,0.030594198,-0.0172816738
93212.213163,0.101152582,0.57492689,1.02561204,0.0237117987,0.0678922981,-0.0107822297
93212.223189,-0.0790387942,0.270040437,-0.961737246,0.0780671835,0.0402345732,-0.0126014343
93212.233214,-0.107147219,-0.618472967,-1.99719381,-0.0467378683,-0.0301202834,-0.0273340419
93212.243240,0.348925922,-1.17950928,0.0496878678,-0.156690732,-0.0309394691,-0.0210138261
93212.253266,0.202482657,-0.0961774235,1.91259069,0.0398492217,0.018774556,0.00170693127
93212.263291,0.0835788853,0.389656686,0.610015812,0.144576699,0.0405251235,-0.0137529848
93212.273317,0.149521996,-0.350715472,-2.05597917,-0.00064052135,-0.0155446837,-0.0134960311
93212.283343,0.0942907969,-0.425792852,-1.11084995,-0.148133039,-0.043702282,-0.0106315343
93212.293369,0.0568641526,0.429147898,0.94920159,-0.0346642695,-0.031573981,0.0101906564
93212.303394,0.201528151,0.969178429,1.58085816,0.098637864,0.0212362334,-0.00439654198
93212.313420,0.180207404,-0.204042033,-0.330645913,0.0456822366,0.00888928771,-0.00701496284
93212.323446,0.190827674,-0.544464933,-0.789311472,-0.0889898241,-0.0130945742,0.0056558256
93212.333471,0.133508836,0.538040344,0.504359973,-0.0358304679,-0.00941222161,-0.0132145351
93212.343497,0.0858652883,0.421901324,1.51519472,0.0509984381,0.0311850049,0.00487631839
93212.353523,0.12661041,0.534045721,-0.896864669,0.0688125864,0.00307693821,-0.00799181033
93212.363548,0.337075544,0.0683759733,-1.16757429,-0.0785267949,-0.0161465574,-0.0430493951
93212.373574,0.422967455,-0.691097401,0.356816127,-0.070844911,-0.0148048559,-0.00440373272
93212.383600,0.0803672846,0.0274734056,1.38707454,0.0534964837,0.0300789941,-0.0103130201
93212.393625,0.271734381,-0.342349758,0.153736271,0.0765322894,0.0318385437,-0.0155370766
93212.403651,0.425230395,-1.02078346,-0.66219725,-0.0647215024,0.0165637191,0.000499946065
93212.413677,0.0892074292,-0.0441086611,-0.7161305,-0.0484317467,-0.0139622325,0.0157236401
93212.423703,-0.14170903,0.515844404,0.36120121,-0.00834717695,-0.0173282027,-0.00784799922
93212.433728,0.282678275,-0.0363165185,0.77585344,0.0426760577,0.000797005952,0.0151230972
93212.443754,0.150548225,0.0121244727,-0.208894679,-0.000134787057,-0.00974138826,0.00135934819
93212.453780,-0.0456288382,0.018894524,-0.632408261,-0.0168266818,-0.0328184776,0.00620896416
93212.463805,-0.00504080718,0.129435915,0.121388245,-0.0386169329,-0.0292868614,-0.00894921552
93212.473831,-0.0530894564,0.03648782,1.23434306,0.0103218481,6.31343573e-06,0.00620257296
93212.483857,-0.272057475,0.354107745,0.0497264462,0.0683598518,0.00244816579,0.00559963286
93212.493883,-0.295328589,0.164395156,-1.169232,-0.0390608832,-0.0446793959,-0.0161645189
93212.503908,0.0594352087,-0.252948779,0.169143099,-0.0535838977,-0.0309643876,-0.00177998655
93212.513934,0.0976631229,0.146442077,1.20792559,0.0547883809,0.0183903798,-0.00784720015
93212.523960,-0.0973418185,-0.381834248,0.0198994632,0.044329349,0.0232426599,0.00613785814
93212.533985,0.101915867,-0.272481765,-1.25617787,-0.0228771158,0.00396456942,0.000394218601
93212.544011,0.365481737,-0.391183932,0.260053789,-0.0883924812,0.0197805502,0.00220037438
93212.554037,0.122357255,0.185278022,0.802507638,0.036694333,0.0440659188,0.0221200213
93212.564062,0.182171763,0.284214672,0.0954465794,0.0461038128,0.0413921028,-0.00543144625
93212.574088,0.387499179,-1.05668822,-0.26363457,-0.0572609231,0.0293602068,0.0253001004
93212.584114,0.188679574,-0.378629461,-0.291501651,-0.0264755804,-0.00133938179,0.0365958996
93212.594140,0.2567504,0.0903945658,0.183147075,0.0137370862,-0.000995567767,0.0172387119
93212.604165,0.32348625,-0.504395008,0.0634217941,-0.0194557533,-0.0149345519,0.04457606
93212.614191,0.0145391874,0.618132337,-0.41143619,-0.00604993431,-0.0438599437,0.01424665
93212.624217,0.0331204898,0.35443873,0.530759904,0.00934766419,-0.0400556177,0.0114364829
93212.634243,0.0903384608,-0.147455985,0.56633566,0.01612035,-0.0342536531,0.0354491398
93212.644268,0.071871953,0.743517835,-0.396165556,0.0190090816,-0.0337761492,0.0141558368
93212.654294,-0.0528845266,0.369065769,-0.38873979,-0.0169372018,-0.037490461,-0.00704771932
93212.664320,0.122176966,-0.179843138,0.321964009,-0.031158749,-0.0115488758,0.0282479525
93212.674345,0.0963700874,1.04336843,-0.151338562,0.0370914117,0.002390109,-0.0131918984
93212.684371,0.274601607,-0.287398782,0.393543391,-2.45322008e-05,0.0266842619,-0.0124320975
93212.694397,0.339004759,-0.849856322,0.2514204,-0.0381554067,0.0413561501,0.0255211443
93212.704423,0.133474295,0.493516727,0.25371991,0.0100462111,0.0445362329,-0.00705464277
93212.714448,0.18500843,-0.0680268676,0.540519666,0.0325280838,0.0465442538,0.00256043347
93212.724474,0.333573564,-0.309868753,-0.184849787,-0.00846222509,0.0211579371,0.0216920488
93212.734500,0.0212437266,0.396347598,-0.793289143,-0.0124279391,-0.0213881917,0.00424275221
93212.744526,0.159319953,-0.0191521976,-0.0304699571,0.0168668348,-0.0311073978,0.0122194523
93212.754550,0.305095584,-0.32441838,-0.0116530284,0.00537076592,-0.0347559266,0.0173183419
93212.764576,0.248627573,-0.108596587,-0.409460506,-0.0174810197,-0.0483977012,0.00903670862
93212.774602,0.263961098,-0.205198437,0.424956182,-0.0599959902,-0.0306850206,0.0160626601
93212.784627,0.171878187,0.456269896,0.670313921,0.0330452695,-0.00748435967,0.0178967789
93212.794653,0.0353021265,0.389272545,0.255562907,0.0390901119,0.00406683516,-0.00506126694
93212.804679,0.198529974,-0.427060168,-0.220424374,-0.0109874345,-0.00686783809,0.0142296068
93212.814705,0.224445519,0.0859104609,0.100528997,-0.0115613462,0.00915160868,0.00121154264
93212.824730,0.0874566766,0.151316488,0.133473235,0.0196359884,0.0118991919,0.00790593028
93212.834756,0.109247835,0.0936917899,-0.29850247,0.0124595677,0.000751465908,0.00108930375
93212.844782,0.230963997,-0.199013848,-0.0384229619,-0.00496522849,0.00356243248,-0.00369320158
93212.854808,0.199801638,-0.358993142,0.328933264,-0.00824730843,0.00319837825,0.00830300804
93212.864833,0.0858288379,0.194814826,0.338973012,0.0204144306,0.00652200356,0.00504889153
93212.874859,0.0573882678,0.399795072,-0.154354111,0.0244797468,-0.00279346784,0.00348348543
93212.884885,0.108683443,0.267681617,-0.3816548,0.00242131483,-0.0188608523,-0.00874362048
93212.894911,0.119906848,-0.242840715,0.374708342,-0.0314445049,-0.016862683,0.0105038444
93212.904936,0.0130912262,0.203125668,0.356273691,0.0228006225,-0.0119227841,0.007061176
93212.914962,0.0260392994,0.126432505,0.0544727639,0.0322910622,-0.00379295205,-0.00414860155
93212.924988,0.109089539,-0.587120053,-0.422866516,0.00568075757,-0.0148495985,0.00809394941
93212.935014,0.147509889,-0.381503409,-0.289278714,-0.0358499102,-0.0154205794,0.00892698672
93212.945039,0.0424342434,0.188671428,0.229915256,-0.00982842688,-0.00843244512,0.00486992672
93212.955065,-0.0267426802,0.131977353,0.567213027,0.0346543528,0.00655396096,0.00677648373
93212.965091,0.166867062,-0.213824628,0.127915017,0.00492948014,0.00670176651,0.0109371403
93212.975117,0.262264158,-0.180116219,0.126566525,-0.0205958523,0.00599496346,0.00610137265
93212.985142,0.114978177,0.0200636499,0.349850964,0.0303671956,0.0267854631,0.019436352
93212.995168,-0.023362043,0.235207864,-0.608800006,0.0455291048,2.25587282e-05,0.00809661299
93213.005194,0.264050695,-0.296397186,-0.376729619,-0.061427705,-0.00826999173,0.00722256349
93213.015220,0.314933745,0.199258909,0.461180172,-0.0231796522,0.00261434703,0.0197021365
93213.025245,0.094258703,0.896693769,0.58227791,0.0543875769,0.0186212752,-0.00604051165
93213.035271,0.149741137,-0.179712022,-0.082191961,0.024978023,0.0069795344,0.00382516859
93213.045297,0.248625162,-0.499032312,-0.402561979,-0.01614438,-0.00487499405,0.0112340832
93213.055323,0.252526243,-0.188478535,0.0310720146,0.00142982008,-0.00421586167,0.00923617929
93213.065348,0.17743752,-0.327657033,0.224703658,0.00902329106,-0.00509656966,0.0185378008
93213.075374,0.172766349,-0.136051479,0.0668149436,-0.0275248643,-0.0132407825,0.0197881572
93213.085400,0.187614502,0.169609128,0.424113886,-0.00604993431,-0.00199771533,0.0200755112
93213.095426,0.158003628,0.205369939,0.312962372,0.0358794071,0.00594383106,0.0163366999
93213.105452,0.164277028,-0.31598625,-0.159866737,0.00146044639,0.00191846304,0.0161233805
93213.115477,0.100103703,-0.478743082,-0.242041162,-0.0407935344,-0.00755173713,0.0218939185
93213.125503,0.17131352,-0.00185171968,0.362744348,-0.0239034984,-0.00151728094,0.0218398552
93213.135529,0.16988451,0.167227183,0.676568305,0.0384687968,0.02475347,0.0150583815
93213.145555,0.0244946455,-0.230684742,-0.48304246,0.041494146,0.0132627301,0.0265701637
93213.155580,0.0458457323,-0.197482109,-1.02503687,-0.0649539977,-0.0138245467,0.0117267678
93213.165606,0.142165898,-0.00986754235,0.143832132,-0.053631302,-0.0140567748,0.0278940201
93213.175632,-0.128495374,0.861591987,0.659038494,0.0688906163,0.00384712429,0.00920262374
93213.185658,-0.190520526,-0.0561462227,0.122051093,0.0503630079,-0.0118905595,-0.000321639702
93213.195683,0.120104032,-0.987041491,-0.00621054508,-0.0346221924,-0.0184177011,0.0289126784
93213.205709,0.0227858323,0.0879997705,0.4221458,-0.0144242439,-0.00770859793,0.0329036936
93213.215735,-0.218672397,0.914933775,0.220744107,0.0540802479,-0.00404595211,0.0103962524
93213.225761,-0.17059191,0.241079916,-0.553298484,0.0291954055,-0.0168389808,0.0052097463
93213.235787,0.102579993,-0.37449079,-0.437524571,-0.0440228842,-0.0201034825,0.00613173284
93213.245812,0.17782999,-0.61324756,0.76851126,-0.0187542774,0.0125900162,0.0153350849
93213.255838,0.128397795,-0.598762487,0.715003542,0.029826574,0.0474268273,0.0321015492
93213.265864,0.0170890272,-0.0317498956,-0.678937957,-0.0105442852,0.0278752279,0.0185742863
93213.275890,0.0309339944,0.111227109,-0.324304435,-0.060513746,0.00978698768,0.0164019391
93213.285915,0.0583137303,0.335515272,0.831339765,0.0119537953,0.0235595256,0.0211010873
93213.295941,-0.0513571161,0.0647552712,0.451343253,0.0602986924,0.0257308017,0.0214294549
93213.305967,-0.0924028278,-0.471298319,-0.864992443,-0.0280111972,-0.0188406613,0.0196707025
93213.315993,-0.079375424,-0.116125055,-0.407362657,-0.0638829097,-0.046750322,0.0169473551
93213.326019,-0.0711866559,0.474271271,0.54484922,0.0314313546,-0.0292972978,0.0177412443
93213.336044,0.0344265675,0.0389866145,0.354221434,0.0491147451,-0.0162001364,0.0215905756
93213.346070,0.0228729078,-0.209382426,-0.612599983,-0.00542732514,-0.0254418384,0.0180594921
93213.356096,0.0860687659,-0.149755056,0.167694069,-0.0486381799,-0.0129380319,0.0191535167
93213.366122,-0.110379488,0.323504955,0.685424396,0.0157059226,0.0135492366,0.0261512399
93213.376148,-0.189959038,0.401720815,0.112526309,0.0353749655,0.0177296009,0.0149276135
93213.386173,0.00931210956,-0.309975648,-0.217256265,-0.0420055762,0.00946953893,0.0203783065
93213.396199,0.0582363177,0.055938891,0.255284675,-0.0122639257,0.0210534912,0.0184696168
93213.406225,-0.130102919,0.232679533,0.184272279,0.0487056859,0.0232985355,0.00722814864
93213.416251,-0.0461366598,-0.482763278,-0.567463203,-0.000392352755,-0.00337781617,0.0204787068
93213.426277,0.148704926,-0.406811197,-0.215256031,-0.0555722527,-0.00643752189,0.0196222328
93213.436302,-0.0788644971,-0.0278236803,0.398818701,-5.22670452e-05,-0.00575948087,0.0300032366
93213.446328,-0.229171104,0.168989918,0.229125566,0.0194050539,-0.0140357874,0.0208928287
93213.456354,-0.13771122,-0.323935528,0.0416086062,-0.0033873436,-0.0263409223,0.0277821589
93213.466380,-0.143070829,-0.163797939,0.364016852,-0.02270112,-0.0251816474,0.0278652497
93213.476406,-0.329751887,0.27924061,0.438225998,0.0632002056,-0.00922505185,0.0259602908
93213.486431,-0.499260677,-0.282173522,-0.526636102,-0.000817126944,-0.0332502276,0.0338064954
93213.496457,-0.360259801,0.0455030746,-0.718883014,-0.0701477304,-0.048530113,0.0336483046
93213.506483,-0.484353214,0.804165561,0.185240248,-0.0146650318,-0.0384907946,0.010786132
93213.516509,-0.160915497,0.103874782,1.12839204,0.0240586605,0.0136131514,0.0156820863
93213.526535,-0.0423095941,-0.432038906,0.170628369,0.0109886657,0.0310536604,0.0266615022
93213.536560,-0.281843687,-0.202091411,-0.54278352,-0.00550908409,0.029733533,0.0159028638
93213.546586,-0.275602126,-0.522768248,-0.305876798,-0.0116697745,0.0225581769,0.034003038
93213.556612,-0.139072827,-0.254120745,-0.141270173,-0.0302517153,0.00654725265,0.033694908
93213.566638,-0.234440642,-0.117838152,0.611517449,-0.0382166989,0.00378768519,0.0340661556
93213.576664,-0.2704315,0.418391964,0.52429743,0.0420885272,0.00779387821,0.0346435271
93213.586689,-0.350622095,0.405863724,-0.174181093,0.0249159336,-0.0139649473,0.0147869987
93213.596715,-0.259047991,-0.123006494,-0.492514637,-0.0213061571,-0.0466949306,0.0280860271
93213.606741,-0.39151583,0.227495189,0.0571475361,0.00213365536,-0.0439065993,0.0175180696
93213.616767,-0.379741075,-0.0905637666,0.517373769,0.0137631474,-0.0349583775,0.021033708
93213.626793,-0.199895399,-0.207074405,0.413022583,-0.0130966967,-0.0161564611,0.0249541495
93213.636819,-0.352013476,0.177857572,0.109237204,0.00899342541,-0.00382416183,0.0202992093
93213.646844,-0.348953394,-0.0702237748,-0.0329155967,-0.00884256326,0.00407317607,0.0299414508
93213.656870,-0.242647585,0.0398530404,0.137829677,-0.00384886935,0.0239925552,0.0274383463
93213.666896,-0.198906059,0.423525053,0.0906318726,0.0579697564,0.0324792527,0.0148091037
93213.676922,-0.12877684,-0.0413911275,0.137442724,0.0436749719,0.0435201861,0.0035777539
93213.686948,-0.0584646101,-0.469740313,-0.540276505,0.0501275472,0.0470978767,0.0269754883
93213.696974,-0.117558147,0.144880144,-1.42296301,-0.0723650828,-0.00810359605,0.0268670972
93213.706999,0.0501935157,0.723798258,0.110424953,-0.0377359949,-0.0168819055,0.0149326734
93213.717025,0.112674284,0.437400799,1.72115568,0.0651501715,0.0296294019,0.0161795653
93213.727051,0.285613872,-0.0483514498,0.199907655,0.0505448617,0.0230548568,0.0210121386
93213.737077,0.109851025,0.18797634,-1.11705348,-0.0716244578,-0.0168560743,0.00783108827
93213.747103,0.0826003409,0.917484628,-0.121654787,-0.0671271756,-0.0464877337,-0.00913324766
93213.757129,0.105878468,0.90714597,1.95901693,0.0665856153,0.0189389419,-0.0177831948
93213.767154,-0.0999161443,0.204625916,-0.335401583,0.110791422,-0.0104620904,-0.0127450265
93213.777180,-0.18561109,-0.0794257842,-2.06915781,-0.0947380289,-0.0735864639,-0.0307727642
93213.787206,0.04072638,0.28287893,-0.139691379,-0.0898628458,-0.0803367794,-0.0399084724
93213.797232,-0.0669525985,0.804362326,2.50698282,0.0404560119,-0.00700584007,-0.0446632802
93213.807258,0.261319772,1.04385095,1.21377958,0.100675412,0.0353008695,-0.0497357994
93213.817284,-0.10562864,1.43715652,-1.85878136,0.0227129664,-0.00203691446,-0.0879361853
93213.827309,-0.0351397207,0.0997479664,-0.966266706,-0.118790902,-0.0238735024,-0.0760768577
93213.837335,0.187281416,0.690661932,0.533425909,-0.0275624543,-0.00624790462,-0.0612513125
93213.847361,0.0291283515,1.55449037,1.11363286,0.0880794525,0.0299511123,-0.122648627
93213.857387,0.339348348,-0.454371223,0.351366045,0.0293226652,0.0371728055,-0.126716331
93213.867413,0.436041858,-0.487624746,-0.705786216,-0.0584695041,0.0223802775,-0.0913506225
93213.877439,0.102267932,1.30121353,-0.337404155,-0.028129708,0.000661666738,-0.125202864
93213.887465,0.0661634757,1.06424229,0.8214064,0.0332931727,0.0124413613,-0.118132964
93213.897491,0.151258848,0.784736857,0.203776021,0.0637022108,0.0114759654,-0.123009488
93213.907516,0.0622381738,0.333439489,-0.507110733,0.0062277331,-0.00932625309,-0.144950196
93213.917542,0.20573448,-0.121058867,0.151067344,-0.0880281925,-0.0221885219,-0.120372415
93213.927568,0.0802680072,1.41143522,0.652879387,0.0317541324,-0.00920534506,-0.139845982
93213.937594,0.226653331,1.51696071,0.480575193,0.0682687312,0.0319354348,-0.174704641
93213.947620,0.0414045167,0.46537872,-1.26562667,0.0308079086,-0.00783434883,-0.18324779
93213.957646,0.174406956,-0.385206903,-0.858800019,-0.0503782891,-0.0122053958,-0.175587475
93213.967672,0.228409326,-0.298357947,0.0766594613,-0.0462064482,-0.0234913398,-0.188760802
93213.977697,0.700276951,-0.535896719,2.11651869,0.0166223161,0.0554578044,-0.161542222
93213.987723,0.556170971,-0.267106959,0.596986819,0.112436727,0.0673584044,-0.154763952
93213.997749,0.485124235,-0.862052225,-0.968368647,0.0076554534,0.0418245494,-0.146392301
93214.007775,0.560972928,-1.05876532,-0.56898822,-0.0945279077,0.0151244961,-0.124770626
93214.017801,0.550594266,-0.184195378,0.81153967,-0.0285454281,0.0137750711,-0.111048162
93214.027827,0.458400844,0.450858794,0.716897978,0.105136469,0.0376843996,-0.108720824
93214.037853,0.264187162,-0.142103683,-1.19746616,0.075284563,-0.0180036295,-0.128149912
93214.047879,0.43576348,-1.17370841,-0.982803415,-0.0940882191,-0.042500183,-0.120260566
93214.057905,0.410210302,-0.362474408,0.0360597399,-0.0762559548,-0.0635071993,-0.100976884
93214.067930,0.367455667,0.717630603,1.39618548,0.0830663219,-0.0110338721,-0.114952356
93214.077956,0.555909397,-0.574913409,0.789471631,0.0674135908,0.0122528095,-0.106755145
93214.087982,0.670489424,-1.02295262,-0.912152839,0.00296962168,0.00940668955,-0.0683792606
93214.098008,0.371420552,-0.055266056,-0.496207646,-0.103349626,-0.00213172287,-0.0969909281
93214.108034,0.478819216,0.282764546,0.672905107,0.0468894094,0.0224870704,-0.073477082
93214.118060,0.481798817,0.272592076,0.545807836,0.0419726819,0.0381043814,-0.0876248628
93214.128086,0.624469285,-0.246305724,-0.257536837,-0.0146993874,0.018230008,-0.0796319172
93214.138112,0.533339728,0.164328831,0.0173521168,-0.0419642963,0.017597774,-0.0960092917
93214.148138,0.570547652,0.374175221,0.418246455,0.0009602668,0.0161271766,-0.0917405114
93214.158164,0.61624908,0.259107758,0.0139624744,0.0141724749,0.0124584045,-0.0922654197
93214.168189,0.65335906,-0.0280314642,-0.566459579,0.0171674658,-0.000471508363,-0.101221628
93214.178215,0.660111749,-0.74644176,0.0157464352,-0.0573437847,-0.0124285687,-0.10021282
93214.188241,0.654068669,-0.45318552,0.621881022,-0.0137206754,-0.00381990056,-0.0746595263
93214.198267,0.287370232,0.326907786,0.420035676,0.0457596965,0.00269845221,-0.0865920857
93214.208293,0.226344758,-0.148810734,-0.71240242,0.0443588719,-0.03071969,-0.0723769292
93214.218319,0.278651759,-0.332014571,-0.778921595,-0.054136008,-0.0505493209,-0.0828953534
93214.228345,0.438490896,-0.155172734,0.245067817,-0.0328882448,-0.0442120656,-0.0660255551
93214.238371,0.251983806,0.34035442,0.917783538,0.016950151,-0.0134560168,-0.0716754571
93214.248397,0.418125057,0.28310841,0.460948117,0.0126355644,0.00694646034,-0.063900888
93214.258423,0.3378226,0.507075077,-0.129641694,0.0173850451,0.0163543429,-0.0814010501
93214.268449,0.268044879,0.0351610147,0.0713695382,0.0102938469,0.0194385499,-0.0806311294
93214.278475,0.298953355,-0.38750791,-0.072979896,0.0110348184,0.0238444954,-0.0682352483
93214.288500,0.185414289,-0.20484597,-0.22662732,-0.0156793501,0.0127332546,-0.0682672113
93214.298526,0.140976414,-0.140230966,0.0765308665,-0.0251048096,-0.00349578215,-0.0640359819
93214.308552,0.192579413,-0.029192247,0.479638204,0.00067565497,0.00443457859,-0.0547846928
93214.318578,0.181796975,0.00102470797,-0.0930085386,0.0400185324,-0.0094237132,-0.0521518886
93214.328604,0.177550387,-0.605743907,-0.509458758,0.00213613268,-0.0214212537,-0.0466745645
93214.338630,0.247151948,-0.924659269,-0.261724352,-0.0474599153,-0.0309689511,-0.0323619395
93214.348656,0.23632589,-0.429614419,0.318189751,-0.0291267149,-0.0180179998,-0.0257900581
93214.358682,0.123821172,-0.00718362333,0.398673739,0.0233106595,-0.00679011224,-0.0264774188
93214.368708,0.244308084,-0.37516478,0.216423906,-0.00773567287,0.003564524,-0.0150527256
93214.378734,0.279170851,-0.217540343,-0.0747720401,-0.0150425881,0.00494936761,-0.011135214
93214.388760,0.205445635,-0.137961341,0.131884505,0.00086101098,0.0127471033,-0.0112249637
93214.398786,0.205379712,-0.457196108,0.162584764,-0.00261041941,0.0134784067,-0.00127645861
93214.408812,0.154364358,-0.388471421,-0.106897948,-0.00738573354,0.00500849029,-0.000262859277
93214.418838,0.130841608,-0.378427545,-0.0612684154,-0.0202842224,-0.00157457788,0.0111724874
93214.428864,0.0667207991,-0.267866253,-0.112460843,0.0163275842,-0.0162033215,0.0228094365
93214.438890,0.004154398,-0.581410845,-0.116674661,0.011215914,-0.027023213,0.0261716768
93214.448916,0.147951222,-1.20485123,0.199610134,-0.00112810405,-0.0266008358,0.0510005951
93214.458942,0.137301452,-0.858839401,0.334688466,0.00856313854,-0.014551363,0.0650407746
93214.468968,0.0332407187,-0.544883195,-0.0124818804,0.02658475,-0.012030948,0.0759672001
93214.478994,-0.0378045925,-0.511995729,-0.294429521,-0.028225502,-0.0259646066,0.0859045163
93214.489020,-0.0534431286,-0.143708853,0.197505855,-0.039024353,-0.0213666596,0.0838767886
93214.499045,-0.0693584358,-0.0350162222,0.899280498,0.0158317052,0.00878431927,0.091954954
93214.509071,-0.127774951,-0.260968054,0.0980173066,0.0375998504,0.00350486906,0.100112215
93214.519097,-0.103852443,-0.615394436,-0.36436815,-0.0475009307,-0.00463934336,0.105758384
93214.529123,-0.0319165209,-0.318028862,0.127892805,-0.0290955566,-0.00187658041,0.119143963
93214.539149,0.0454797668,0.24446501,0.265154911,0.0601368509,0.0274498835,0.118856341
93214.549175,-0.103014695,-0.254613041,-0.86003979,0.0545045324,-0.00586865842,0.119958356
93214.559201,0.0247501729,-1.04872725,-0.344120896,-0.0822479874,-0.0106812576,0.129781961
93214.569227,0.0484637511,-0.554786604,0.560664044,-0.0281139147,-0.00631100964,0.155656695
93214.579253,-0.104078561,-0.0438686692,0.887056391,0.0654216334,0.0169599578,0.155461743
93214.589279,-0.0722862329,-0.958704819,-0.383159944,0.0435461551,-0.00969029497,0.176302314
93214.599305,0.0370902885,-1.12357762,-0.688005645,-0.0450936966,-0.0256753862,0.18334052
93214.609331,-0.0040964938,-0.841666002,0.21883915,-0.0434918068,-0.0337261222,0.196167365
93214.619357,-0.0511216817,-0.437330802,1.21016197,0.0521220677,0.00545696635,0.216489688
93214.629383,-0.19210869,0.0228974303,-0.268053555,0.059403684,-0.00790597778,0.219088659
93214.639409,-0.205642674,0.0938113885,-0.942663712,-0.0528413653,-0.0346664824,0.20080632
93214.649435,-0.0969053999,0.218613908,0.319119726,-0.0377167426,-0.0255760513,0.209390759
93214.659461,-0.250648357,0.811140734,0.995313352,0.0452282093,0.00652276352,0.194085047
93214.669487,-0.291962656,0.023638668,0.306450214,0.0410012379,0.0144033227,0.196534619
93214.679513,-0.316875673,-0.105993501,-0.801601629,-0.0216898378,-0.00535413576,0.193336427
93214.689539,-0.153554247,0.678292353,-0.545320929,-0.0311267488,-0.0174536761,0.171644986
93214.699565,-0.136623059,0.843435642,0.423685431,0.00677456008,-0.00633604359,0.150939971
93214.709591,-0.0332183607,0.406051611,0.913031375,0.0247522295,0.0188241694,0.149466708
93214.719617,-0.125400842,0.328825383,0.0556774636,0.0256084353,0.0261241607,0.140027925
93214.729643,-0.283737501,0.259761583,-0.547476061,-0.00668239268,-0.00078122213,0.123964816
93214.739669,-0.325541137,0.0917187819,-0.276821968,-0.0341726057,-0.0179817807,0.128152639
93214.749695,-0.407672052,0.479992936,0.115313309,0.000967537402,-0.0294051431,0.111075915
93214.759721,-0.242988416,0.0755523129,0.5783961,0.0139674917,-0.0185500998,0.116032861
93214.769747,-0.148052326,0.156491488,-0.0881108297,0.0346687771,-0.0256018844,0.10644947
93214.779773,-0.142385514,-0.185055064,-0.129597271,-0.0130481469,-0.0215056762,0.0978242904
93214.789799,-0.12712509,-0.39967298,0.21078327,-0.0106225396,-0.00767081929,0.119431585
93214.799826,-0.175194252,0.353287989,0.273320682,-0.0175105389,0.00648787618,0.0983928815
93214.809852,-0.187998917,0.34445495,0.230085936,-0.00078721944,0.0107334871,0.10697598
93214.819878,-0.374319927,0.444643938,0.204081726,0.0186804887,0.0152845634,0.0900318846
93214.829904,-0.225955229,0.108611054,0.160299283,0.0208357833,0.0219049156,0.0857543126
93214.839930,-0.202738458,-0.1035072,-0.131755326,0.00235717464,0.0111156506,0.083074905
93214.849956,-0.114545887,-0.167686471,-0.165558226,-0.00416357489,0.00638294732,0.0910345614
93214.859982,0.069615315,0.102185624,-0.179773799,-0.0156441964,-0.000486676581,0.0810533017
93214.870008,0.268054122,0.084323347,0.613479689,0.0112811616,0.0304952078,0.0751706436
93214.880034,0.0578961625,-0.227836842,0.028344051,0.0673982278,0.0259366743,0.0926207453
93214.890060,0.256966837,-0.577415674,-0.529883706,0.00470847962,0.018102454,0.0850232765
93214.900086,0.392684509,-0.927896497,-0.0688496643,-0.0582643598,0.00782291871,0.103459544
93214.910112,0.240827256,-0.0737954593,0.491092495,0.00770826451,0.015762601,0.109274022
93214.920138,0.11096949,0.310887794,0.394485056,0.049342528,0.0152496751,0.0965614244
93214.930164,0.226365034,-0.237363507,-0.434168247,0.0130982362,-0.00982584991,0.104305625
93214.940190,0.211652874,0.0494943727,-0.281750657,-0.0611866489,-0.0261435714,0.0927032977
93214.950216,0.070417279,0.643587096,0.14390286,0.0434249826,-0.0321663059,0.0848704129
93214.960242,0.195835273,-0.240352478,0.782690592,0.00232761353,-0.00555387279,0.0815864652
93214.970268,0.255146161,-0.340175044,-0.3511147,0.0398901701,-0.0155702885,0.101079211
93214.980294,0.00202434543,-0.139140084,-0.230666366,-0.00801610388,-0.0106500983,0.0720131993
93214.990320,0.0532521178,-0.507612984,0.229439455,-0.00793913845,-0.0062375064,0.103912279
93215.000347,-0.0948294704,0.548217089,0.105396311,0.0258933939,-0.00164382008,0.0789139867
93215.010373,0.179405185,0.212745583,0.343342313,-5.21869515e-05,0.01668006,0.0847873241
93215.020399,0.159889241,0.425261923,-0.0747118344,0.0195627939,0.00939791184,0.0824975371
93215.030425,0.125573787,0.353971843,0.342525151,0.00963879004,0.0305673797,0.0663864762
93215.040451,0.158070063,-0.186190242,0.136245623,0.00940576289,0.0307708438,0.0861580521
93215.050477,-0.0287274608,0.298325359,-0.369176427,0.0143821463,0.0154155903,0.0676906258
93215.060503,-0.118185559,-0.260390199,-0.141274849,-0.0220027603,-0.00924048759,0.0757770464
93215.070529,0.0166226883,-0.140986607,0.176212307,-0.0157717615,-0.0172163881,0.0862414092
93215.080555,0.256139154,0.316535554,0.506745992,0.0303770918,-0.00157963776,0.0752513409
93215.090581,0.233870405,-0.235801062,0.0801642546,0.0634069517,0.00314001599,0.07475546
93215.100607,0.188527197,-0.807289246,-0.484693734,-0.0147666847,-0.000664575724,0.0870494097
93215.110633,0.0959399889,-0.23178315,-0.483249965,-0.0590396076,-0.022946978,0.0866762996
93215.120660,0.0726499517,0.35143911,0.957583049,0.0173142869,0.0138166286,0.0745943412
93215.130686,0.0056098575,0.02888256,0.557390722,0.0896606594,0.0290352628,0.0844110176
93215.140712,0.161214626,-0.364467153,-0.841508692,-0.00355291227,0.0081603406,0.0801837817
93215.150738,0.134324719,-0.297824662,-0.494847464,-0.107570656,-0.0137846386,0.0746899471
93215.160764,0.104575935,0.103717866,0.867390152,-0.0229423232,0.00166009762,0.0873452872
93215.170790,0.0755051767,0.240887005,0.922347485,0.0349204428,0.0207283311,0.080996044
93215.180816,0.189103846,-0.392128556,-0.22937808,-0.0189286731,0.00235172035,0.0832344294
93215.190842,0.279364054,-0.418208826,0.00416413394,-0.0976413265,0.000726393308,0.0853218138
93215.200868,0.0944633222,0.565224374,0.214516611,0.00771705247,0.00368809467,0.0914396271
93215.210895,-0.124096938,0.695444636,-0.230327928,0.0472181216,-0.00912703667,0.0623192973
93215.220921,0.0678699509,-0.426648519,-0.501050995,-0.0266044363,-0.0235525817,0.0692371204
93215.230947,0.194816013,-0.181663814,0.0212497088,-0.0465722829,-0.0207219068,0.0725764632
93215.240973,-0.0602621245,0.416750225,0.313609438,0.0228853524,-0.0103153391,0.0645512864
93215.250999,-0.134118036,-0.0450970511,-0.0592903934,0.0157574024,-0.0116282776,0.0684472248
93215.261025,-0.165869704,-0.0767182423,-0.303543971,-0.0249601994,-0.0315274149,0.0596305691
93215.271051,-0.261175413,0.049600226,0.50158291,-0.00166046992,-0.0203634463,0.0601315089
93215.281077,-0.177763281,-0.0303712368,0.321267844,0.0754436925,-0.0188057534,0.068421863
93215.291104,0.0905263116,-0.484156084,-0.177181444,-0.0183190182,-0.0149590829,0.0646620095
93215.301130,0.174552228,0.00977504176,-0.278698283,-0.0605610125,-0.012439467,0.074222222
93215.311156,-0.339223625,1.0559621,0.325494521,0.01838094,-0.00520578865,0.0451461002
93215.321182,-0.165920776,0.213547528,0.887882321,0.0266061127,0.0242306646,0.0536064282
93215.331208,0.124056478,0.164567133,-0.350145563,0.0223506466,0.0259715728,0.0587601811
93215.341234,0.076272179,0.482478067,-0.420135045,-0.0189573783,0.0161367841,0.0230360031
93215.351261,0.151606675,-0.402200854,0.660427318,-0.0220280029,0.0385443531,0.0552645102
93215.361287,-0.177663529,0.281298967,0.13228198,0.0288048182,0.0238580871,0.0439455435
93215.371313,-0.147962437,-0.0448870433,-0.0243564426,-0.0173975639,0.00913187116,0.0322883576
93215.381339,0.0299611856,-0.514870006,-0.216943546,-0.00490627391,-0.00682445755,0.0534508973
93215.391365,-0.0748710618,-0.0519162205,-0.25619536,-0.0328987613,-0.0287041906,0.0322611928
93215.401391,-0.0588477276,-0.276776869,0.424877856,-0.0125783077,-0.0215666518,0.0431146398
93215.411417,-0.0339152752,0.00696329967,0.346904389,0.0444748588,-0.0103227869,0.0373371765
93215.421444,-0.0832235508,-0.388282657,-0.185819509,-0.00693347212,-0.018901892,0.0393955335
93215.431470,-0.0439712985,-0.18939512,-0.373678414,-0.0430776291,-0.0232010335,0.0425774828
93215.441496,-0.209406921,0.787429311,0.0826531488,-0.00429028459,-0.0131752985,0.0144531671
93215.451522,-0.134079421,0.381344638,0.841326906,0.0166850388,0.0154310465,0.00789433438
93215.461548,-0.146741736,0.196483398,0.0650660542,0.0344680287,0.0196833163,0.0171653293
93215.471574,-0.268309996,0.619634339,-0.669924629,-0.00834068656,-0.00324916421,-0.0211341213
93215.481601,0.0190391383,-0.0474325357,0.324400296,-0.0275447406,0.00939525757,-0.0154349562
93215.491627,0.119141635,-0.0383228625,0.652892246,0.0217421148,0.0301322285,-0.00871393643
93215.501653,0.00833846048,-0.121858932,0.125652917,0.0185846705,0.0290698931,-0.013961697
93215.511679,-0.109623518,-0.36186709,-0.507872365,-0.0156153766,0.0117702652,-0.0156826302
93215.521705,-0.0300800262,-0.0297265548,-0.143377374,-0.0437554009,-0.00416209549,-0.0221810099
93215.531732,-0.0374289459,0.634363268,0.247457342,0.0225932617,0.00110057672,-0.0283225272
93215.541758,-0.0108104036,0.393089327,0.0394902989,0.0373152159,-0.00284915743,-0.0346094519
93215.551784,0.120805568,-0.335252968,-0.296755918,-0.0191075802,-0.0137643898,-0.0287110824
93215.561810,0.113398872,-0.149197806,-0.0286631999,-0.0256099533,-0.0183226559,-0.0273004044
93215.571836,0.109374183,0.0740467672,0.47395256,0.0302120317,0.000501099217,-0.0343551189
93215.581863,0.317947248,-0.437178096,0.139102181,0.0173782595,0.0102738347,-0.0269291606
93215.591889,0.256895526,-0.299000701,-0.343478506,-0.04561482,0.00129232439,-0.0245248582
93215.601915,0.151890278,0.208164392,0.250258955,-0.0132249231,0.00780348713,-0.0140948538
93215.611941,0.172799265,0.470868038,0.392612832,0.0537823401,0.0204737429,-0.0256284717
93215.621967,0.320159371,-0.197537803,-0.0351461322,0.00393675221,0.00795289036,-0.0256905239
93215.631994,0.399919282,-0.188963981,-0.0807920311,-0.0382037759,0.00645246543,-0.0184179638
93215.642020,0.1948703,0.542834592,0.150391637,0.00706969528,-0.000459503033,-0.0252028983
93215.652046,0.217684153,0.164935784,0.300196999,0.0186888017,0.00561836315,-0.018087998
93215.662072,0.223643025,-0.0281423909,-0.539110969,0.0189271532,-0.0138408225,-0.0154032651
93215.672098,0.147497669,-0.147269441,-0.354674439,-0.062659584,-0.033233162,-0.0305790212
93215.682125,0.212673668,0.0952606192,0.669188132,-0.0311972667,-0.0191295929,-0.0251919795
93215.692151,0.149658921,0.735271619,0.802228821,0.0556721203,0.0108315004,-0.0404915735
93215.702177,-0.0534358952,0.180915425,-0.59668053,0.043432232,-0.014307675,-0.0389067307
93215.712203,0.136461658,-0.29638166,-0.609744594,-0.0546687692,-0.0232266001,-0.0501628444
93215.722230,0.489936896,-0.291891564,0.898978884,-0.0501283482,0.0151777798,-0.0325148776
93215.732256,-0.00606414061,0.647754737,0.552639143,0.0760484934,0.0337213688,-0.0398372337
93215.742282,-0.121986211,0.110122901,-0.818401373,0.0338341966,0.00496216025,-0.0499231592
93215.752308,0.340336847,-0.558784368,-0.654258274,-0.0629472062,-0.00699516619,-0.0519650057
93215.762334,0.32563751,-0.324021599,0.649624184,-0.0188950598,0.00416720659,-0.040862821
93215.772361,0.67202489,-0.244620054,1.23943132,0.0686022937,0.05130063,-0.0315888897
93215.782387,0.605909582,-0.673315076,0.0411199459,0.0158314947,0.0521011762,-0.0175364576
93215.792413,0.351419017,-0.241279165,-0.781680539,-0.0395649187,0.0175051168,-0.0170035586
93215.802439,0.285770816,0.259482309,0.0633218408,-0.00516859535,0.00849724002,-0.015744416
93215.812466,0.325459231,0.400042726,0.304717691,0.036783915,0.00330913626,-0.021207625
93215.822492,0.424796899,0.226912128,-0.210166014,0.0305084419,-0.00818932801,-0.0235136542
93215.832518,0.466256014,-0.0825794442,-0.353090969,-0.0122805666,-0.0186158698,-0.0310008656
93215.842544,0.416553168,-0.31753231,0.236278945,-0.0207198579,-0.0182709899,-0.019930372
93215.852571,0.200104457,-0.0224899181,0.33410979,0.0181503091,-0.0134424139,-0.0232508015
93215.862597,0.346301272,-0.0525169217,0.0254003987,0.00454901299,-0.00997764058,-0.0267789569
93215.872623,0.419166419,-0.136898278,-0.00514379263,-0.0187563095,-0.0050153723,-0.0257680211
93215.882649,0.30240629,0.203789264,0.0437847812,0.0214414448,0.00132774445,-0.0249893125
93215.892676,0.3999564,0.0589223409,0.221433843,0.0111499242,0.0156693999,-0.0265275557
93215.902702,0.444446041,0.074395535,-0.111472416,0.00511759799,0.0138970651,-0.0254412536
93215.912728,0.597376111,0.180733273,0.0354997679,-0.0112864086,0.0209230185,-0.0259232838
93215.922755,0.739309058,0.128137089,0.477719219,-0.0135785909,0.0357126147,-0.0201748516
93215.932781,0.580684942,0.488015755,0.258580794,0.0291909762,0.0416701064,-0.0281217229
93215.942807,0.454647848,-0.0744455618,-0.0937362683,0.012715064,0.0268727858,-0.0252588261
93215.952833,0.507420968,-0.392159791,-0.322648484,-0.00212593353,0.000290176831,-0.0152429435
93215.962860,0.345018648,-0.229417206,0.114417237,-0.0169203263,-0.0149753289,-0.0176565666
93215.972886,0.23437534,-0.0445011721,0.185318573,0.0358347632,-0.0250913464,-0.00976668485
93215.982912,0.242443459,0.0350753868,-0.337696416,0.0212345161,-0.0389246047,-0.0145657007
93215.992938,0.218816628,-0.0625443308,-0.79568276,-0.0305802114,-0.0636581779,-0.01209056
93216.002965,0.216245828,0.00188502373,0.101380061,-0.0657752231,-0.0588700846,-0.0164645351
93216.012991,0.167625571,0.134186827,1.31918583,0.0171633419,-0.0157138221,-0.0135313291
93216.023017,0.0865837845,0.0219597111,0.711547849,0.0483934321,0.0142094539,-0.0162176602
93216.033044,-0.00636062107,-0.261637514,-0.642944853,-0.016037222,-0.00243024202,-0.0232249703
93216.043070,0.104745501,-0.477331791,-0.111316349,-0.0628196448,0.00124625163,-0.0133805946
93216.053096,0.12579344,-0.0242844003,0.412725061,0.0279512759,0.0303466134,0.00204549963
93216.063123,-0.104124592,0.10107821,-0.440115172,0.0737587065,0.0113601377,-0.0186461974
93216.073149,0.22184604,-0.974763024,-0.303323606,-0.0378953815,0.00620505773,-0.0107400697
93216.083175,0.178099655,-0.644204936,0.256296482,-0.0282874964,0.00295360433,0.0130161252
93216.093201,-0.0716774899,0.3631427,0.600043284,0.0455254763,0.0141668431,-0.000691164285
93216.103228,-0.0931606421,-0.0202371205,-0.10351415,0.0265126359,-0.00890784897,0.00630016578
93216.113254,-0.0655259267,-0.149045629,-0.536756514,-0.0293522272,-0.0328917466,0.0102224695
93216.123280,-0.108880482,0.0652508909,0.12020225,-0.0252741296,-0.0387621522,0.0076248222
93216.133307,-0.0559061212,-0.145040905,0.706871089,0.0168978255,-0.0245065149,0.0167914219
93216.143333,-0.0221993011,-0.0583774067,0.179074711,0.00625370257,-0.0134256361,0.012111716
93216.153359,-0.127083407,0.0739619202,-0.0540869795,-0.0106347334,-0.0142671941,-0.00545582641
93216.163386,-0.136692325,-0.0520334947,0.433127213,0.00459961314,0.0121087525,0.0102552259
93216.173412,-0.297986063,0.250712617,-0.272224704,0.04586263,0.00612276606,0.00373154692
93216.183438,-0.237955318,-0.267003626,-0.581063858,-0.0226770155,-0.00646812702,0.0033642971
93216.193465,-0.142296849,-0.316464389,-0.00187748431,-0.0706919506,-0.0111933742,0.0138180032
93216.203491,-0.245673144,0.673293083,0.856423353,0.0276814979,0.0162395816,0.000678232871
93216.213517,-0.225843184,0.282203515,0.297006678,0.0644634739,0.0163434464,-0.00335405953
93216.223544,0.139392086,-0.562745381,-0.666320467,-0.0314798281,0.00221590861,0.00908583216
93216.233570,-0.0111423755,-0.120638176,-0.126187755,-0.0882826596,-0.00583882211,0.00856065657
93216.243596,-0.328420127,0.763663893,0.872934342,0.0454956479,0.0153676625,9.5134601e-06
93216.253623,-0.164987733,0.325164997,0.323546894,0.0550231077,0.0167109612,-0.00819222443
93216.263649,0.0989976777,-0.471755561,-0.708783645,-0.0178705417,-0.00538528571,0.00725411018
93216.273675,-0.0703119554,-0.231231928,-0.309451734,-0.0484247208,-0.0169383436,0.000744812191
93216.283702,-0.140277563,0.0210500261,0.514241316,-0.0249913801,-0.014205697,0.00196768343
93216.293728,0.0962551923,0.16397377,0.962267992,0.0357430726,0.0203176588,0.00816805474
93216.303754,-0.0699951446,0.207324727,-0.18089082,0.0477544628,0.0134781282,-0.00516186468
93216.313781,-0.139981667,-0.295228599,-0.485247861,-0.0342402719,-0.0111419968,-0.00108696241
93216.323807,-0.0574098768,0.0998060076,0.164743987,0.00273505598,0.00354054291,0.00329047581
93216.333834,-0.0762854952,0.240473474,0.109859136,0.0353782214,0.00129443279,-0.00800905004
93216.343860,0.128232339,-0.529073632,-0.197190213,-0.0272281691,0.00454668514,0.0110029895
93216.353886,0.0306997107,-0.00235235355,-0.164897717,-0.051792901,-0.00156287279,0.00129896356
93216.363913,-0.0299977364,-0.0143212704,0.644777329,-0.0186448004,0.0144616337,0.00506520597
93216.373939,0.0949694086,-0.0940488231,0.541861144,0.00998924021,0.0250607487,0.00796911679
93216.383965,0.0907082257,-0.112157074,-0.196385326,0.0231710896,0.01981299,0.00428037252
93216.393992,-0.0513170764,-0.348874666,-0.7115648,-0.0103921983,-0.00316263363,0.0096258698
93216.404018,0.117106732,-0.0645524695,-0.1949135,-0.0382685699,-0.0203386899,0.000449415296
93216.414045,0.235243903,0.0303489428,0.831429197,0.0191158932,0.00841013249,0.014305044
93216.424071,0.0722790908,-0.109884224,0.119953244,0.0387082361,0.00609424803,0.0221688263
93216.434097,0.103767139,-0.338492425,-0.425190575,-0.0534389988,-0.0130461566,0.0163996201
93216.444124,0.0551704456,0.195910512,0.265471722,-0.0192922149,-0.0116117783,0.0167125408
93216.454150,-0.0552088231,0.605723229,0.448646854,0.0591168404,0.00348248566,0.00778376125
93216.464176,0.197394284,-0.138198163,-0.363863123,-0.00348875159,-0.0102554299,0.0116306972
93216.474203,0.223301938,-0.246172764,-0.108029582,-0.0567935184,-0.00863196701,0.0153974723
93216.484229,-0.00140862469,0.235683427,0.48466217,0.0168045368,0.00787563622,0.0217610952
93216.494256,-0.00584459784,0.202541036,0.130361825,0.0324950814,0.00534776365,0.0122911613
93216.504282,0.099217257,-0.265166693,-0.37466158,-0.0113165816,-0.0104658203,0.0131079527
93216.514308,0.237047847,-0.246987752,0.297622764,-0.0388595238,0.000282964145,0.0137910536
93216.524335,0.0464070195,0.186859154,0.418243532,0.0367340371,0.0109103089,0.0196124576
93216.534361,0.0499095294,-0.0783521088,-0.0963268693,0.00668239314,0.00377676496,0.018000979
93216.544388,0.137080064,-0.208140938,-0.333368031,-0.0129275275,-0.0114171011,0.0232407488
93216.554414,0.134175392,-0.0070351776,0.4212357,0.00136912067,0.00115062203,0.0164153315
93216.564440,0.181418607,-0.253151663,0.597234072,0.0232477877,0.0131763928,0.0298704207
93216.574467,0.0546885804,0.00711508357,-0.19670506,0.0236595124,0.00523351412,0.0257417224
93216.584493,0.0216329177,0.106196695,-0.647404755,0.000926769571,-0.00912358705,0.0230149105
93216.594520,0.112319589,0.19706803,-0.222027717,-0.0281352419,-0.01779617,0.0185631718
93216.604546,0.144230393,0.385755367,0.409703083,-0.00470874552,-0.0101651493,0.0133716054
93216.614573,0.21947648,0.112907143,0.745041537,-0.00170390098,0.0116482703,0.0186744928
93216.624599,0.274979537,0.0193004105,0.611304683,0.00591913145,0.0281777121,0.012493561
93216.634625,0.239227639,0.036067841,0.0117938982,0.0390592404,0.0433558635,0.015263781
93216.644652,0.0595949475,-0.112511641,-1.73962248,0.0454811901,0.00380978826,0.0174957775
93216.654678,0.18757576,-0.541193547,-1.58304953,-0.17751728,-0.0508310869,0.0100285392
93216.664705,0.685213457,0.0323977468,1.04421679,-0.108985879,-0.02363302,0.0205445625
93216.674731,0.343710233,0.75041417,3.00587576,0.115458407,0.0814457238,0.00510222418
93216.684758,0.223046685,-0.419877307,-0.144973119,0.105761841,0.0394133218,0.0113462713
93216.694784,0.40607196,-0.723329472,-1.85095988,-0.109842621,-0.0192244239,0.00247022184
93216.704810,0.35399464,0.11489281,-0.45333998,-0.0745208487,-0.0368524231,0.0178784728
93216.714837,-0.125315758,0.964560121,0.676964611,0.0782537833,-0.0259318613,-0.00162651855
93216.724863,0.172882304,-0.0629216443,0.163563253,0.0477249026,-0.0396386199,-0.0013306411
93216.734890,0.436743285,-0.513578979,-0.322390126,-0.0547415502,-0.0387781523,0.00135355862
93216.744916,0.126165543,0.188928873,0.390527842,-0.00569065288,-0.0301646907,0.00184517819
93216.754943,0.0821897325,0.389822982,0.843768454,0.0387050398,-0.000217443798,-0.00264597684
93216.764969,0.123974426,0.0944665828,0.112519295,0.0204187129,0.00394880539,0.00347263599
93216.774996,0.0494573104,0.28898912,-0.495444845,0.00148576696,-0.00572805665,-0.00815419294
93216.785022,0.135326298,0.118693106,0.213377378,-0.00533032743,0.00618532812,-0.0103025641
93216.795048,0.257082426,0.0939491895,0.474701917,0.0397793613,0.0331945717,0.000296549872
93216.805075,0.0407921752,0.322781244,-0.479603133,0.0242206417,0.0167186633,-0.0157948025
93216.815101,0.129529685,-0.0781385574,-0.300031579,-0.0363652073,0.003612448,-0.0144278016
93216.825128,0.191419594,0.177565366,0.503659131,-0.00951468665,0.011021629,-0.0143207423
93216.835154,0.15216409,0.3304623,0.613828648,0.0202120505,0.0178883225,-0.0165657867
93216.845181,0.134977795,0.115820702,-0.0147585932,0.00764059881,0.00847165193,-0.0193634368
93216.855207,0.0371912647,0.159857531,-0.317328751,-0.00171135785,-0.015098922,-0.0306512471
93216.865234,0.132157952,0.101870247,-0.0789858584,0.0129573327,-0.0200015344,-0.0294823851
93216.875260,0.237087193,-0.0892960756,0.121933604,-0.0163257197,-0.0250492897,-0.0298176762
93216.885287,0.159050872,0.0335210517,0.241435013,-0.0234060008,-0.0149923954,-0.0234495271
93216.895313,-0.00560030423,0.499081448,-0.0179132578,0.0190937892,-0.00885940157,-0.0370588079
93216.905340,0.12384216,0.0163565025,-0.269756268,0.000797872548,-0.0129612014,-0.0381698832
93216.915366,0.289018291,-0.297910203,-0.0185609081,-0.0508171171,-0.00520101702,-0.0331570134
93216.925393,0.239024335,0.0299687935,0.677690003,0.000113972754,0.0183783453,-0.0371722654
93216.935419,0.0548797373,-0.2528786,0.73598554,0.0438220389,0.0405443646,-0.031982027
93216.945446,0.0291803922,-0.47197041,-0.447245755,0.0393420681,0.0210822523,-0.0238367487
93216.955472,0.0565389027,-0.238961481,-0.755775113,-0.0205132738,0.000115984003,-0.0296549555
93216.965498,0.0621600853,-0.0268228693,-0.0269371068,-0.0364067517,-0.0164728463,-0.0207181871
93216.975525,0.0849997484,0.616415158,0.626655397,0.0149991782,-0.00330431387,-0.027009638
93216.985551,0.243104681,0.328383082,0.545872718,0.0189001784,0.0142605649,-0.0266900603
93216.995578,0.285072275,0.0840362189,-0.183262225,0.0213476233,0.0148057146,-0.0272194948
93217.005604,0.178825924,-0.0256629084,-0.43148646,-0.0102742203,0.00638746191,-0.0397584587
93217.015631,0.228879994,-0.305139314,-0.0421311688,-0.0167073514,0.00183825032,-0.0271662343
93217.025657,0.268099842,0.0392144228,0.345728331,-0.00813969597,0.0125489514,-0.0370692015
93217.035684,0.328887306,-0.0412726796,0.337689402,0.0230736174,0.0176526345,-0.0260658134
93217.045710,0.342605742,-0.161505499,0.0228916308,-0.000615999685,0.0171801895,-0.0304536391
93217.055737,0.446506006,0.0387478054,-0.102770639,0.00826138072,0.0124107338,-0.0294727962
93217.065763,0.45171194,0.0782910537,-0.0214864401,0.00682194298,0.0177016351,-0.027257314
93217.075790,0.481885143,-0.0854169966,-0.135783266,0.00468795188,0.00742529565,-0.0168430228
93217.085816,0.407605161,-0.292994045,0.0300210443,-0.011022036,0.00361511111,-0.012648277
93217.095843,0.44225255,-0.258835353,0.275716053,-0.0182091072,-0.00279884599,-0.00651235413
93217.105869,0.535287173,-0.0384934972,0.531298834,0.00598863978,0.0121316342,-0.00763061456
93217.115896,0.423621682,0.118881688,0.0274976633,0.0100438343,0.0078857569,-0.00471578538
93217.125923,0.267400955,0.339397155,-0.663231854,-0.00763955433,-0.017509615,-0.0141055584
93217.135949,0.358171414,0.295257515,-0.244753928,-0.0320780501,-0.027062906,-0.0289497506
93217.145976,0.436898,0.128616644,0.596760609,0.00690316921,-0.00981307868,-0.0242042672
93217.156002,0.315019122,0.0535860671,0.383096231,0.035384614,0.00193199352,-0.0330180004
93217.166029,0.385218886,-0.25369841,-0.174144853,-0.0113493381,-0.00249258243,-0.0302589629
93217.176055,0.367295216,0.171949243,-0.0891699833,-0.0184637047,-0.00144223159,-0.0424887314
93217.186082,0.244617753,0.561640634,0.175394561,0.0265530366,0.00658586714,-0.0509426668
93217.196108,0.328681262,0.279490037,0.0693336485,0.0161592532,0.00681623071,-0.0569185317
93217.206135,0.380332319,0.156174677,-0.111866384,-0.00835487992,0.00248672999,-0.0653074905
93217.216161,0.352044419,0.27878156,0.155083594,-0.00613406952,0.00260843639,-0.0732463747
93217.226188,0.306014928,0.149833766,0.519619502,0.0190751478,0.0118719758,-0.0742562488
93217.236214,0.289566573,0.00842135756,0.119974871,0.0186868589,0.0101433182,-0.0759345666
93217.246241,0.391093367,0.0789871188,-0.311274273,-0.0235332996,-0.00333014643,-0.0756826326
93217.256267,0.402353524,0.257259646,-0.0483826304,-0.0110904789,-0.00414960133,-0.0774533674
93217.266294,0.321427783,-0.090001758,0.345609673,-0.00258700503,0.00364041142,-0.0714894906
93217.276320,0.33269258,-0.253206973,0.0689274058,-0.0131019643,-0.00140308321,-0.0696652234
93217.286347,0.369901161,-0.39542873,0.110516723,-0.0123454258,0.00393900089,-0.0697258264
93217.296374,0.383093199,-0.654233724,-0.0201116447,-0.00199638191,0.00234536547,-0.0523260683
93217.306400,0.392972057,-0.57964073,-0.163026662,-0.0332453847,-0.00073910784,-0.0499108471
93217.316427,0.469610768,-0.395804212,0.145505034,-0.0285358466,0.00886718091,-0.0369479097
93217.326453,0.380729429,0.0845475842,0.205078336,0.0130065363,0.0162417404,-0.0335417278
93217.336480,0.272470988,0.186170733,-0.299011588,0.0221475698,0.00422875304,-0.0328394547
93217.346506,0.324183585,0.055898833,-0.296324541,-0.0265475307,-0.00795574207,-0.0359660052
93217.356533,0.284926145,0.422755128,0.185320327,-0.012036765,-0.0113880234,-0.0385716408
93217.366559,0.233921824,0.555833117,0.42668169,0.0289474186,-0.00214845268,-0.0416747555
93217.376586,0.229393807,0.24466899,-0.203582544,0.0151794087,-0.0147044575,-0.0438036881
93217.386613,0.254933395,0.0460087956,-0.208565594,-0.0284460988,-0.0234454852,-0.0517638773
93217.396639,0.275129321,0.0444627079,0.497223545,-0.00741591444,-0.00914484356,-0.0446758717
93217.406666,0.167207473,0.0407406277,0.596143938,0.0339072868,0.00678165909,-0.0408920534
93217.416692,0.146704948,-0.0788344033,-0.30718788,0.018092908,-0.00360893039,-0.0399298519
93217.426719,0.158315598,-0.0620668038,-0.507121839,-0.021012418,-0.0121584758,-0.0427959487
93217.436745,0.161378676,0.00978973701,0.131488199,-0.0200531464,-0.0102007864,-0.0402246639
93217.446772,0.225067322,0.261465555,0.568725186,0.0101915747,0.0113705518,-0.0395516828
93217.456798,0.226171758,0.36903826,0.0984586207,0.0260714721,0.0183767974,-0.0489731506
93217.466825,0.292726772,0.12666593,-0.339489729,-0.0027212943,0.012069365,-0.0529196858
93217.476852,0.404911611,0.154114603,-0.0427577762,-0.0315859653,0.00814865995,-0.0583389513
93217.486878,0.465585421,0.354548292,0.652175038,0.00308386423,0.0266200788,-0.0585200451
93217.496905,0.514432637,0.224468644,0.549601383,0.0311945956,0.0404493399,-0.0571615733
93217.506931,0.592295775,0.0373713888,-0.324950332,0.00615422288,0.025266394,-0.0563120209
93217.516958,0.739082337,0.0547663401,-0.397502358,-0.0320142023,0.0149058979,-0.0571357347
93217.526985,0.877065962,0.331164603,0.219604874,-0.0254250094,0.0197890718,-0.0568028428
93217.537011,1.05172702,0.521701276,0.650160775,0.0066229389,0.0451828428,-0.0622122549
93217.547038,1.1596953,0.460790844,0.108862526,0.00577312429,0.0515808202,-0.0657097846
93217.557064,1.28551415,0.421042077,-0.410596817,-0.00528804865,0.0462094918,-0.0754146129
93217.567091,1.3735411,0.244691932,-0.152718034,-0.0218001809,0.0385395885,-0.0858787
93217.577117,1.52755531,0.0566721098,0.237587105,-0.00544251222,0.0405428186,-0.0803302675
93217.587144,1.55601685,0.0876026335,0.0905529621,0.00390518317,0.0341871828,-0.0850208998
93217.597171,1.55632241,-0.0796061184,-0.170825938,-0.00531388167,0.0145453066,-0.0815414786
93217.607197,1.51751133,-0.231470687,-0.144937463,-0.0108268913,-0.00358682591,-0.0719527602
93217.617224,1.38851904,-0.246402645,-0.0647562575,0.00257653184,-0.0233522747,-0.0623922832
93217.627250,1.34276018,-0.390104941,0.0342623351,-0.0002810398,-0.0334408619,-0.0549793728
93217.637277,1.30509856,-0.406454822,0.0195405668,-0.0042246487,-0.0404606871,-0.0431365669
93217.647304,1.18627307,-0.18159126,0.0289034384,-0.00381532079,-0.0377975293,-0.0398773886
93217.657330,1.1105791,-0.115268292,0.141676416,0.00201247446,-0.0303265583,-0.0346165821
93217.667357,1.03853107,-0.0545397465,0.131012983,0.00113229977,-0.0202805847,-0.0341502614
93217.677384,1.02101507,-0.081736454,0.0941769978,-0.00153272552,-0.00910303183,-0.0344623849
93217.687410,1.01506325,-0.145837115,0.163003281,-0.00334926788,0.00380397867,-0.0356687941
93217.697437,1.00673915,-0.192242601,0.158527013,-0.000198748137,0.014618543,-0.0367159508
93217.707463,0.990671006,-0.384950334,0.123539286,0.00438268809,0.0166707747,-0.03178351
93217.717490,0.983375662,-0.626221389,0.0381277783,0.00629936485,0.0136110689,-0.0212054346
93217.727517,0.974867873,-0.813094425,-0.0336789822,-0.00194578175,0.00486791134,-0.00949524902
93217.737543,0.927687677,-0.765799371,-0.0348801747,-0.0165518895,-0.00219505792,0.00702780206
93217.747570,0.484785906,-0.056294947,-0.350215121,-0.0245504268,-0.0429821685,0.0153014446
93217.757597,0.323909079,0.521964494,-0.0609153642,-0.00249226252,-0.0631273836,-0.00624725688
93217.767623,0.170079412,0.0483122046,0.344789004,0.0138667375,-0.0725333989,0.00634336937
93217.777650,0.0726032265,0.180283575,-0.316429756,0.0144973733,-0.0863530785,-0.00612022448
93217.787676,0.0500295208,-0.119366749,0.0350514396,-0.0293989778,-0.0817689747,-0.00952374376
93217.797703,-0.0454514175,0.0166629564,0.253819278,0.00183164596,-0.0634914339,-0.0030157771
93217.807730,-0.0342705915,0.218662168,0.489713608,0.00569642521,-0.0280450303,-0.0149621852
93217.817756,-0.00264487022,0.0303199541,0.140737089,0.0058122729,-0.00433144579,-0.00911175273
93217.827783,-0.0153283924,0.170208975,0.101692196,-0.0101320725,0.0186588261,-0.0182671677
93217.837810,-0.00251724352,0.0453738131,0.304054258,0.00340104662,0.0366346277,-0.00984305702
93217.847836,0.016653467,-0.0297858016,0.202844293,0.0116198277,0.0465671532,-0.0103357416
93217.857863,0.0252216994,-0.228521317,-0.0629722967,-0.00136228325,0.0396035202,-0.00460754894
93217.867890,0.0128420555,-0.234462471,-0.0995779801,-0.00999918114,0.0237904713,-0.00044742506
93217.877916,0.00765964791,-0.0124339953,-0.0141138655,-0.00493517984,0.00718273083,0.00275422726
93217.887943,0.0353234798,0.164204711,0.0131184248,0.00223511457,-0.00741512049,0.00396436779
93217.897970,0.0415281248,0.279645903,-0.0698059422,0.00130620424,-0.0218475871,0.000305184163
93217.907996,0.115355742,0.19310846,0.0342997445,0.00481891353,-0.0224531908,-0.00251217373
93217.918023,0.161100462,-0.0254920225,0.160112821,0.00685889507,-0.0147193717,-0.00265891384
93217.928050,0.149624123,-0.121002497,0.0947030675,0.00227239914,-0.00946548767,-0.00114970002
93217.938076,0.0669806008,-0.0560215004,-0.000185877961,-0.00469762599,-0.00806999113,-0.00054782629
93217.948103,0.0398070732,0.00615043979,0.143002111,0.00121618935,-0.00334820664,-0.00112919416
93217.958130,0.0178189854,-0.0414619186,0.175173612,0.00601094449,-0.000269592507,-0.00037658494
93217.968156,0.0301045578,-0.0858547761,0.03152385,0.000482222182,9.39290039e-05,0.000459647737
93217.978183,0.09993684,-0.00485890214,0.0358610025,-0.00605051173,0.00288332393,0.00160960061
93217.988210,0.171302414,0.154932788,0.131189508,0.00139435485,0.00967145525,-0.000826392323
93217.998236,0.149089359,0.0937373004,0.100991354,0.00777475629,0.0137591409,-0.00128871761
93218.008263,0.0904078545,-0.0780862975,-0.0053752633,0.00164016464,0.00861311518,-0.00275265705
93218.018290,0.101387806,-0.139009507,0.0236626151,-0.00377057958,0.00433474686,-0.000802956522
93218.028316,0.0730053775,-0.0919729302,0.0688514179,0.00142764428,-0.00257828692,-0.00229778886
93218.038343,0.0639419272,-0.0584520885,0.0600111088,-0.00718342047,-0.00988466945,-0.000772596337
93218.048370,0.0639679932,0.187854302,-0.0247083248,0.00503516244,-0.0107400771,-0.000709213316
93218.058396,0.2189678,-0.00882576908,0.0626741906,0.0127918851,-0.00544837583,-0.00890615769
93218.068423,0.263039636,-0.582556873,0.21231121,-0.0155377565,0.00341302669,0.00905366894
93218.078450,0.103306079,0.125773228,-0.0857727421,-0.0101262135,0.00148969167,-0.0123336446
93218.088477,0.0866652157,0.0936255014,0.297445069,-0.00822737999,0.00570787257,-0.000222121365
93218.098503,0.00519603427,0.527552048,-0.0898071122,0.0120613798,-0.00499190995,-0.0111389514
93218.108530,0.0372956749,0.207311721,0.00865092397,-0.00105894916,-0.00527287321,-0.0111405496
93218.118557,0.0847734106,-0.203471029,0.0530780947,0.00321249478,-0.00924231485,-0.00591755752
93218.128583,0.0720968113,-0.263864835,0.167687055,-0.000602749642,-0.00438470906,-0.000802423805
93218.138610,0.0505909723,-0.117956125,-0.0332914442,-0.00641909335,-0.00862419512,0.00513083208
93218.148637,0.0735163775,0.293067877,0.0400116924,-0.00668487698,-0.00595011516,-0.000638106838
93218.158663,0.130973016,0.370748718,0.197577167,0.0070786057,0.00414619502,7.26906583e-05
93218.168690,0.132917556,0.150915844,0.143137136,0.0147628905,0.0117447255,-0.00273641199
93218.178717,0.100532742,-0.207001486,-0.0211392341,-0.000422719982,0.00790258404,0.000313973054
93218.188744,0.0898789536,-0.150862606,-0.00317395386,-0.00463584065,0.00421277387,0.00254889764
93218.198770,0.0641119683,-0.00832148195,0.0970849942,0.000936291064,0.0019251185,0.00376676116
93218.208797,0.103350484,-0.0111355073,0.0911059198,0.00763866864,-0.000670664595,0.00242159842
93218.218824,0.127653735,-0.0286639945,-0.0278565597,-0.00018543232,-0.00323848473,0.000214104541
93218.228851,0.140277107,-0.0151254446,-0.00527180292,-0.00552560296,-0.00366432406,0.00086977426
93218.238877,0.110685175,0.0414415517,0.105750531,0.00151233294,-0.00284540188,0.00126312347
93218.248904,0.121373395,0.0454230864,0.0807587133,0.0032851994,-0.00366166094,-0.0012282636
93218.258931,0.0637441579,0.0266048335,-0.00259644623,0.00243858015,-0.00673095416,-0.00118059292
93218.268957,0.084280275,-0.0191474393,0.076251465,-0.000644561311,-0.0056126928,0.00122131174
93218.278984,0.114755876,-0.0537783611,0.107967623,0.00320503814,-0.00235697813,0.00171080092
93218.289011,0.0932473706,0.0104147644,0.0503553918,0.00119963556,-0.00131906895,0.00200230954
93218.299038,0.102862664,0.00472616087,0.0297048179,-0.00120413373,-0.000599749153,0.00277542509
93218.309064,0.129573178,0.0256317872,0.0814805979,0.000536508393,0.00213851314,0.0016483753
93218.319091,0.101645489,0.0168575565,0.0955547159,0.00350406906,0.0030277425,0.00426599663
93218.329118,0.085263587,0.0716414414,0.0225356569,0.00157274434,0.000844216789,0.00231096987
93218.339145,0.092811573,0.0431288928,0.0603922171,0.000476320973,-0.00142692705,0.00425614277
93218.349171,0.0922799138,0.0145463843,0.0820908387,0.00461380789,-0.000656740856,0.00246250397
93218.359198,0.10105567,-0.0830606884,0.0621931291,0.00438797195,-0.000539295375,0.00250378298
93218.369225,0.102038342,-0.151484346,0.0159527714,-5.47133968e-05,-0.00217926991,0.00209711818
93218.379252,0.148209105,-0.08988152,0.0385416198,-0.00321375486,-0.000724118785,0.00486467499
93218.389278,0.139809142,0.0277737403,0.0596399374,0.00342577184,-0.000853015808,0.00211283099
93218.399305,0.096080128,-0.0480502657,0.122789344,0.0025498583,0.00116539397,0.00580849964
