t,ax,ay,az,gx,gy,gz
86724.650511,0.13714301,-0.018042291,0.0938648631,0.187654182,-0.0340700746,-0.000185693614
86724.660538,0.122769471,0.048924336,-0.310657018,0.280827552,-0.0343278684,0.00141912699
86724.670566,0.0926578985,0.00995426165,0.00817804576,0.243212521,-0.0375923738,-0.00242408086
86724.680593,0.121274191,0.0331565658,0.248103823,0.253595144,-0.0229393933,-0.00426166225
86724.690620,0.0979854502,0.0515228281,0.169257081,0.262604356,-0.00696016103,7.79591501e-05
86724.700648,0.136539053,-0.0304009835,0.336212899,0.202405438,0.0221777502,0.00346283661
86724.710675,0.121209674,0.0471564496,0.488514169,0.112412967,0.0519311205,0.00293979188
86724.720702,0.0987336382,0.0957408861,0.442035911,0.0475383624,0.0731410682,0.00493263546
86724.730730,0.0974189024,0.019557664,0.280855169,0.0612152889,0.0769664273,0.0152766192
86724.740757,0.115466527,-0.152588416,0.0648176323,0.109956734,0.070807606,0.0401044711
86724.750785,0.115184788,-0.321187472,-0.0456499905,0.0802976415,0.0627459511,0.0624606423
86724.760812,0.116765992,-0.271292537,-0.0674579177,-0.0670633167,0.0546976104,0.0717542768
86724.770839,0.10708894,0.0760500972,-0.00783610045,-0.173683241,0.0465507358,0.0553225726
86724.780867,0.0817325999,0.265564661,-0.0762228235,-0.282541573,0.0417149812,0.0290133376
86724.790894,0.0250143951,0.184415926,0.0732961224,-0.193951264,0.0231924318,0.042001307
86724.800921,0.0987247973,-0.295904854,-0.212253342,-0.0489756986,0.006172169,0.0758362338
86724.810949,0.0677994246,-0.197278768,-0.117968792,0.0159598943,-0.0134702418,0.0938623697
86724.820976,0.0715626496,-0.198310888,-0.118123691,-0.0378095955,-0.017021833,0.109276749
86724.831003,0.0861878988,-0.118046826,0.0465080687,-0.200291455,-0.0137024699,0.119267598
86724.841031,0.098989878,-0.0637863896,0.0840793822,-0.358636588,-0.0127551835,0.117211103
86724.851058,0.0900190744,0.0983833635,-0.0123883569,-0.3850272,0.0329555795,0.120419949
86724.861086,0.117037941,0.340105523,-0.213899356,-0.311644047,0.201436728,0.15283221
86724.871113,-0.160649704,0.672973496,-0.2443547,-0.168571606,0.399971396,0.202418149
86724.881140,-0.0639024172,0.737352152,-0.214863232,-0.0144896246,0.537062943,0.247021034
86724.891168,-0.272531651,0.618037498,-0.0502139375,0.0787271336,0.591573298,0.27379781
86724.901195,0.294072086,0.253934137,0.0772761319,0.0660949647,0.59634012,0.244884372
86724.911222,-0.000817015471,0.206950413,0.0641980391,-0.00187130133,0.543135703,0.126811013
86724.921250,-0.123940487,-0.10644582,0.101255558,0.000862167217,0.501981616,0.0836584717
86724.931277,0.248897969,-0.379677947,-0.0906786343,0.0390737355,0.492927969,0.0757898986
86724.941304,0.097418537,-0.257874691,-0.254283973,0.0234684106,0.478954375,0.0235882122
86724.951332,-0.490401627,-0.175721747,0.00649111558,-0.0431135446,0.456281543,0.01507382
86724.961359,-0.557560452,-0.33138431,0.347281406,-0.0239302646,0.421270847,0.0194043852
86724.971386,-0.458786884,-0.316630978,0.434255925,-0.0521568432,0.340367198,0.0636565387
86724.981414,-0.614643837,-0.536552516,0.497864766,-0.107122093,0.248430341,0.0596266389
86724.991441,-0.216657715,-0.0288007087,0.459596118,-0.0283415243,0.00645046961,0.111686908
86725.001468,0.23330698,-0.236787479,0.611337416,-0.226898029,-0.117489316,0.0950264409
86725.011496,0.0450425992,-0.4313339,1.09616501,-0.397209555,-0.148060277,-0.00558272284
86725.021523,-0.284041435,-0.176896198,0.680732439,-0.502435327,-0.118129537,-0.0644756034
86725.031550,-0.15845508,-0.28025092,0.25684944,-0.569591701,-0.0391385891,-0.0358996168
86725.041578,0.115852092,-0.162420951,-0.215413267,-0.515940726,0.0492900796,0.061395511
86725.051605,0.229860091,0.203151898,-0.681138682,-0.360380709,0.145456284,0.17764622
86725.061632,0.181496348,0.50382499,-0.648496641,-0.166905791,0.223888785,0.286687762
86725.071660,0.14547884,0.774598764,-0.401545495,-0.017120827,0.248946458,0.375974238
86725.081687,0.195770336,0.979849826,-0.1664958,0.0493167862,0.208040044,0.435617596
86725.091714,0.326674123,1.02803036,-0.010641221,0.0590857938,0.121110477,0.467564344
86725.101742,0.337932124,0.844784499,0.123055886,0.018088825,0.0428974256,0.45366025
86725.111769,0.122134351,0.586372194,0.247278478,-0.0452225059,-0.0132121816,0.361892253
86725.121796,-0.189516902,0.397003906,0.152501761,-0.130807176,-0.0627134144,0.255512804
86725.131824,-0.37725536,0.0464167371,0.170955702,-0.169366032,-0.116264261,0.15160051
86725.141851,-0.29945535,-0.124021516,-0.0791132842,-0.217585757,-0.17620191,0.0956698582
86725.151878,-0.25719734,-0.187201757,-0.0387543858,-0.268065423,-0.195230186,0.0839191973
86725.161906,-0.361729033,-0.0727839351,-0.0106225163,-0.280511975,-0.155601293,0.0782040507
86725.171933,-0.395990309,-0.0586719692,-0.00122866501,-0.242876202,-0.0875676349,0.0723634735
86725.181960,-0.412002008,-0.118139327,-0.11084347,-0.1991335,-0.00191931333,0.0793934166
86725.191988,-0.382621928,-0.244156255,-0.134635265,-0.139159113,0.0795960575,0.0880497545
86725.202015,-0.365593965,-0.403277288,-0.146493461,-0.0772715211,0.138234332,0.0936405286
86725.212042,-0.456152115,-0.417300406,-0.0948445218,-0.0433745384,0.16411972,0.096218735
86725.222070,-0.481779673,-0.382190953,-0.0206511584,-0.0469250605,0.156072974,0.0961162075
86725.232097,-0.471045733,-0.440616838,0.0777618696,-0.0746405795,0.133537844,0.0878904983
86725.242124,-0.492876968,-0.474921113,0.0327133521,-0.126771167,0.116488293,0.0710225701
86725.252152,-0.421425341,-0.419903867,0.000842296043,-0.159469455,0.115740746,0.0488088802
86725.262179,-0.390031656,-0.356721727,-0.0536602785,-0.167397156,0.124291092,0.0258146152
86725.272206,-0.484006227,-0.269925779,-0.0924497356,-0.18184559,0.131872565,0.0119555248
86725.282234,-0.474348829,-0.241632435,-0.101086047,-0.176093429,0.137490511,0.00570934638
86725.292261,-0.318387795,-0.271646027,-0.149699563,-0.167107671,0.138920352,0.00608485239
86725.302288,-0.32000155,-0.340036257,-0.124308517,-0.17391178,0.137249485,0.0019090157
86725.312315,-0.386127415,-0.283216199,-0.122649059,-0.178702533,0.145534053,-0.0128480922
86725.322343,-0.395194702,-0.223443283,-0.105976741,-0.160551235,0.156211197,-0.0206634048
86725.332370,-0.352590399,-0.207973181,-0.101867552,-0.143505394,0.159564391,-0.0255465787
86725.342397,-0.330486083,-0.221790986,-0.115468208,-0.137130857,0.151474759,-0.0244504195
86725.352425,-0.327158363,-0.167796069,-0.0776642544,-0.150007769,0.134679809,-0.0243063439
86725.362452,-0.258342601,-0.113224228,-0.0437584777,-0.192348838,0.121423133,-0.0289088171
86725.372479,-0.196595791,-0.0506957296,-0.0585153173,-0.21529223,0.132520244,-0.0296486448
86725.382507,-0.119748442,-0.0174073541,-0.153750884,-0.198731378,0.159990221,-0.0283777844
86725.392534,-0.091221235,0.0275565538,-0.242026549,-0.154218495,0.184847638,-0.0233750362
86725.402561,-0.0917206542,0.0461025566,-0.341478272,-0.114239655,0.200800776,-0.0188175682
86725.412588,-0.178373905,-0.0293061009,-0.238803495,-0.0774883032,0.218596011,-0.0253811944
86725.422616,-0.269648222,-0.0253474995,-0.0673667323,-0.0606762916,0.224397972,-0.023382226
86725.432643,-0.292331014,-0.0331374958,0.0846902076,-0.0720996559,0.227247819,-0.0148800835
86725.442670,-0.234913009,-0.112905591,0.250720143,-0.101885252,0.233402655,-0.00159756839
86725.452698,-0.135967975,-0.186408926,0.325391061,-0.138201445,0.238500208,0.0108963856
86725.462725,-0.104012245,-0.159000329,0.278053556,-0.157923222,0.236146241,0.040509671
86725.472752,0.0115661904,-0.188107766,0.218723415,-0.170948207,0.238179833,0.0768666118
86725.482780,0.0442008603,-0.268912656,0.180287594,-0.161756307,0.239801958,0.102900878
86725.492807,-0.163843184,-0.25712,0.0640723669,-0.142995134,0.229285672,0.120531
86725.502834,-0.290744184,-0.159773286,-0.0508721091,-0.134571299,0.203463659,0.130170316
86725.512861,-0.308452968,-0.0880532542,-0.154601364,-0.125355422,0.182773039,0.127154812
86725.522889,-0.273040057,-0.0372029916,-0.191448455,-0.113359749,0.168149889,0.111961484
86725.532916,-0.220763506,0.0230857651,-0.194448805,-0.115064971,0.148778588,0.0983332843
86725.542943,-0.125418432,0.0366739993,-0.118800567,-0.128437504,0.124174707,0.0890399218
86725.552971,-0.0412767759,0.0390806221,-0.0393704719,-0.126816168,0.0907267407,0.0733304694
86725.562998,-0.109218189,0.062685808,-0.00934007528,-0.126857713,0.0549247935,0.0610514283
86725.573025,-0.139762161,-0.000554345947,-0.0222293675,-0.102962501,0.0255157724,0.0482733175
86725.583052,-0.187839489,0.00245316531,-0.122895727,-0.0496915504,0.014511059,0.0409456342
86725.593080,-0.220352331,0.106033001,-0.142275551,0.039057754,-0.00393612497,0.0569163412
86725.603107,-0.257510753,0.13788623,-0.108541039,0.0324216932,0.00119312305,0.0518307686
86725.613134,-0.193753352,0.325191812,0.192880533,0.0103773754,0.00706912205,-0.0092962347
86725.623162,-0.146079354,0.369585519,0.339727629,-0.0245609004,-0.0228722654,-0.0523686036
86725.633189,-0.258267965,0.31348245,0.343393751,-0.067143254,-0.0919546634,-0.0604760647
86725.643216,-0.22591086,0.421425889,0.240783271,-0.0760459304,-0.151078701,-0.0489943773
86725.653243,-0.0701247577,0.414867334,0.265145559,-0.0160425138,-0.194788098,-0.0349856168
86725.663271,-0.136320387,0.307027356,0.187131176,-0.0303034745,-0.175372601,-0.0415111631
86725.673298,-0.140009332,0.294143982,0.274131998,-0.0381776467,-0.152005494,-0.0970015898
86725.683325,-0.149606405,0.144756042,0.0888052417,-0.0472339913,-0.156494245,-0.12499088
86725.693352,-0.117733157,-0.0780374717,0.11066636,-0.0557928532,-0.173087344,-0.128744066
86725.703380,-0.0650895857,-0.0103551706,0.158711137,-0.0519166216,-0.172397852,-0.140780762
86725.713407,-0.154274634,0.142866575,0.261628491,-0.0788110942,-0.138875574,-0.129974723
86725.723434,-0.163604426,0.117106038,0.544350623,-0.0839917362,-0.0634862706,-0.177945435
86725.733462,0.00255305462,0.0966306015,0.45459261,-0.0939354524,-0.0415812396,-0.216378585
86725.743489,0.0285845086,-0.145822502,0.34783261,-0.11578349,-0.0533497483,-0.20692037
86725.753516,0.032012693,-0.199093124,0.240116916,-0.120310597,-0.0525928773,-0.19500725
86725.763543,0.0861803365,-0.0484804647,0.219130242,-0.135640547,-0.0305831842,-0.182296515
86725.773571,0.206109542,-0.0714995943,0.186054487,-0.123538353,-0.0159573685,-0.164384097
86725.783598,0.237249215,-0.13374007,0.0702840811,-0.0873365104,-0.0139502343,-0.127507925
86725.793625,0.275283835,-0.220461856,-0.0700923579,-0.0443051532,-0.0196619146,-0.087510705
86725.803652,0.289231112,-0.237725418,-0.0882464387,-0.0148473978,-0.0239112545,-0.0569115207
86725.813680,0.465856384,-0.272538446,-0.0398100323,0.0218150076,-0.00754746236,-0.0166165605
86725.823707,0.601888327,-0.321727059,0.0514320811,0.0506059118,0.0303647667,-0.00212949608
86725.833734,0.525063154,-0.156578144,0.107143447,0.044228971,0.0740326196,-0.0041827932
86725.843761,0.496282027,-0.01857764,0.248184487,0.0197665039,0.106455006,-0.0077937739
86725.853789,0.447887048,0.0514431139,0.308044205,-0.00445760833,0.122075774,-0.0191723965
86725.863816,0.38099334,0.152620127,0.319852132,-0.0429557301,0.122590296,-0.0331824869
86725.873843,0.338439124,0.204091298,0.318999899,-0.0887533128,0.117171831,-0.0470149443
86725.883870,0.257232667,0.208894095,0.293872472,-0.137293696,0.120064557,-0.0497747771
86725.893898,0.159118731,0.243607096,0.234966694,-0.167526156,0.137328237,-0.0395881869
86725.903925,0.162003457,0.213931504,0.118545715,-0.167721108,0.144084945,-0.030642096
86725.913952,0.188418037,0.195225781,-0.0977145243,-0.137029245,0.118806481,-0.00697884616
86725.923980,0.236826789,0.104028457,-0.300465879,-0.121317916,0.0803983733,0.0175075885
86725.934007,0.278145764,0.0868238586,-0.292598214,-0.119169012,0.0362863019,0.0432073586
86725.944034,0.249560689,0.0186764973,-0.346965179,-0.0878779292,-0.0103424499,0.0695638657
86725.954061,0.170983412,-0.0553570725,-0.341569458,-0.0617278218,-0.0424255542,0.091909118
86725.964089,0.139835208,-0.132119483,-0.109428927,-0.025606038,-0.050254181,0.0887527391
86725.974116,-0.0636899663,-0.107524701,0.1286445,-0.01467882,-0.0560790449,0.0653182566
86725.984143,-0.275193125,-0.0674330025,0.287455006,-0.0784434155,-0.0785670429,0.027906701
86725.994170,-0.348628729,0.0636887744,0.49499301,-0.190177679,-0.123565145,-0.0164317377
86726.004198,-0.457345161,0.184774311,0.497452678,-0.297623456,-0.185209587,-0.0614700466
86726.014225,-0.548968894,0.120469158,0.33812487,-0.373536319,-0.249753967,-0.0820469633
86726.024252,-0.471223391,-0.00400273284,0.0126017074,-0.36433351,-0.307548851,-0.0768567324
86726.034279,-0.371402798,-0.319927243,-0.415583373,-0.273582011,-0.333350867,-0.052065894
86726.044307,-0.322887079,-0.739658383,-0.598173983,-0.162383333,-0.327205628,-0.0232462324
86726.054334,-0.282890328,-0.978361852,-0.67371993,-0.0413019061,-0.304805785,0.0051571792
86726.064361,-0.12755771,-0.992686292,-0.722345137,0.0664061829,-0.253502369,0.034817338
86726.074388,0.047802602,-0.787054341,-0.452813326,0.108533129,-0.163289919,0.0356120244
86726.084416,0.108073001,-0.363258216,0.0655447776,0.0934455171,-0.026309697,0.00115817599
86726.094443,0.0368758969,0.135652406,0.590846417,0.00718440069,0.132854134,-0.0651404187
86726.104470,-0.0562826081,0.463109606,1.01908469,-0.101365514,0.272078842,-0.150555179
86726.114497,-0.1164336,0.433823525,1.09882224,-0.229156241,0.352006972,-0.23422718
86726.124524,-0.202844184,0.335189876,0.862720407,-0.327999473,0.373255521,-0.280214906
86726.134552,-0.212857994,0.26828488,0.363587813,-0.388801813,0.369228035,-0.296692163
86726.144579,-0.141649929,0.188938043,-0.0340074835,-0.336939156,0.337991029,-0.29802081
86726.154606,-0.00951944358,0.178936179,-0.325216874,-0.294879049,0.303179771,-0.237854674
86726.164633,0.202497398,0.0872565509,-0.436411057,-0.193983868,0.253461748,-0.162904263
86726.174661,0.301882924,0.00364142524,-0.465209866,-0.119911499,0.228223786,-0.110745721
86726.184688,0.275661911,0.0617605463,-0.270051451,-0.0762284696,0.22980091,-0.101204947
86726.194715,0.163917218,0.138782338,0.0447059877,-0.111977406,0.245831817,-0.121839121
86726.204742,0.179660201,0.269792252,0.305174202,-0.173767015,0.258318841,-0.157824814
86726.214770,0.301459127,0.26192846,0.42462242,-0.283732116,0.282382339,-0.158153445
86726.224797,0.389634729,0.300886771,0.522628036,-0.309441745,0.296280861,-0.151816726
86726.234824,0.341743061,0.363354625,0.233078104,-0.326166421,0.306781173,-0.124076977
86726.244851,0.281175652,0.281503514,0.15868951,-0.308849722,0.299866527,-0.109410681
86726.254879,0.126581576,0.0653970762,-0.175684484,-0.292618036,0.258108437,-0.07187289
86726.264906,0.0287064545,-0.109334089,-0.398418888,-0.204384044,0.191861257,-0.0397820659
86726.274933,-0.149952442,-0.187493872,-0.692020726,-0.108941138,0.0906573981,0.00931091141
86726.284960,-0.0848291228,-0.300185984,-0.663558017,-0.0356924906,0.00884322915,0.0673763454
86726.294987,-0.101811986,-0.454505151,-0.514941573,0.0335678048,-0.0196227673,0.0905794054
86726.305015,-0.186886444,-0.263133452,-0.351477688,0.0949286371,-0.0237538628,0.0870483145
86726.315042,-0.230126104,-0.0506662113,-0.0780026926,0.115206741,-0.0143550346,0.0721239597
86726.325069,-0.216426171,-0.0250112533,0.298402516,0.0670341551,0.00803123135,0.0248512551
86726.335096,-0.217166504,0.0461015337,0.571365471,-0.0192874204,0.0327962302,-0.0442601703
86726.345124,-0.141634184,0.0328678851,0.670941698,-0.124288939,0.0480004847,-0.118318692
86726.355151,-0.112686431,-0.104534123,0.652081514,-0.231557339,0.0578113012,-0.191617936
86726.365178,-0.151887995,-0.276884512,0.562817423,-0.279612482,0.0881825238,-0.244898736
86726.375205,-0.184981998,-0.470230288,0.35907355,-0.256054968,0.120090388,-0.27447179
86726.385233,-0.188904506,-0.566523146,0.00574994183,-0.208222464,0.148617119,-0.276103526
86726.395260,-0.11727617,-0.641802843,-0.151627901,-0.138665751,0.157614872,-0.250658095
86726.405287,-0.134531914,-0.62716773,-0.0941202992,-0.0817486644,0.152927175,-0.211145297
86726.415314,-0.204067223,-0.514636745,0.0937917979,-0.0839532316,0.167364702,-0.189846396
86726.425341,-0.298124978,-0.359857248,0.274292742,-0.0562747307,0.164941758,-0.17551966
86726.435369,-0.287469582,-0.244583558,0.313680165,-0.0217098333,0.133043751,-0.137255624
86726.445396,-0.183238224,-0.289226326,0.407071565,-0.061883349,0.0971192941,-0.101837978
86726.455423,-0.133501037,-0.235986958,0.54042322,-0.106165059,0.0770616978,-0.0943382531
86726.465450,-0.19585838,-0.00597394158,0.374873177,-0.113840558,0.062367972,-0.0822805241
86726.475478,-0.248439083,0.0704746306,0.101941787,-0.0974703729,0.0402943604,-0.0516826659
86726.485505,-0.234902579,-0.000399420247,-0.0176788646,-0.0594002195,0.0107079735,-0.0255740993
86726.495532,-0.270491596,0.0186941517,-0.107394207,-0.0199385639,-0.031234948,-0.00284189172
86726.505559,-0.342423152,0.0108218291,-0.170909524,0.0432183035,-0.0764594227,0.026249148
86726.515586,-0.355538545,-0.0416668894,-0.15752748,0.110481761,-0.117797002,0.0563663058
86726.525614,-0.402839956,0.0236047292,-0.0847644418,0.136106685,-0.161858991,0.0697020814
86726.535641,-0.424424596,0.1104254,0.026875732,0.129445061,-0.200270563,0.0653214455
86726.545668,-0.448373699,0.188585192,0.0518237107,0.107774124,-0.227206051,0.0494066663
86726.555695,-0.455623159,0.178800168,0.0580810176,0.0760100707,-0.223437935,0.0268448964
86726.565722,-0.437663797,0.213619881,0.0951028805,0.0453376472,-0.204670638,-0.00923374388
86726.575750,-0.464024419,0.195368587,0.0261117619,0.00355131621,-0.182070524,-0.0442367345
86726.585777,-0.456003135,0.0633439887,-0.00313654446,-0.0258100349,-0.155992314,-0.0882028639
86726.595804,-0.49561158,-0.00194102367,0.00973988825,-0.0346224345,-0.133079544,-0.102942921
86726.605831,-0.522834664,-0.0752721169,0.0779044929,-0.0432340316,-0.105595998,-0.10765592
86726.615859,-0.538602069,-0.0596146843,0.177104872,-0.0492698178,-0.0741571188,-0.112334564
86726.625886,-0.467317944,-0.034936508,0.246440274,-0.0394387618,-0.045273006,-0.11090631
86726.635913,-0.338066272,-0.00939272791,0.205872117,-0.0320215896,-0.0314184427,-0.100929573
86726.645940,-0.193132097,0.0644608,0.139392689,-0.0414478481,-0.0289145354,-0.0905067623
86726.655967,-0.126628831,0.0641902577,0.106600426,-0.049394723,-0.0387562476,-0.0838435292
86726.665995,-0.0913412812,0.0703358752,0.00933072293,-0.0484037586,-0.0409115441,-0.0806413442
86726.676022,-0.064116133,0.023720702,0.0218786543,-0.0598351136,-0.0278902836,-0.0825953111
86726.686049,-0.0684964487,-0.00341102315,0.103396662,-0.0780458078,-0.020056596,-0.0915895998
86726.696076,-0.102343225,-0.0476944517,0.143600662,-0.0945701897,-0.00918024685,-0.107902266
86726.706104,-0.0819817888,-0.0734740773,0.113597738,-0.119841456,0.00449242257,-0.135880634
86726.716131,-0.0340332025,-0.0697005364,0.155826522,-0.16156441,0.0328031555,-0.156588316
86726.726158,0.14528087,-0.0796134431,0.195730662,-0.18739894,0.058878433,-0.172158211
86726.736185,0.249644221,-0.0312416241,0.030707273,-0.196235567,0.0689736754,-0.182096601
86726.746212,0.282226969,-0.00941452761,-0.158457455,-0.192644298,0.0656822771,-0.175648555
86726.756240,0.377140026,-0.0893780822,-0.312485402,-0.161044821,0.0623658411,-0.15991886
86726.766267,0.390176947,-0.16361354,-0.396048652,-0.0966644958,0.0596001484,-0.129705027
86726.776294,0.400255419,-0.237221304,-0.426311688,-0.0122023467,0.0487991646,-0.0751128942
86726.786321,0.447985065,-0.319123452,-0.405731257,0.0622498579,0.0140621122,-0.0137227215
86726.796348,0.424584133,-0.29021594,-0.234505506,0.0884518996,-0.0161458571,0.0280039515
86726.806376,0.304977072,-0.0957752907,-0.0029132571,0.103679322,-0.0355611034,0.0554456934
86726.816403,0.212925853,0.00887013908,0.165579269,0.113224089,-0.0581074245,0.0738281682
86726.826430,0.212835562,-0.0133704313,0.220552384,0.0984845608,-0.0853185356,0.0832059532
86726.836457,0.214901939,-0.0154692828,0.211373637,0.075367257,-0.104722865,0.0855748355
86726.846484,0.229023988,-0.0186438805,0.169302089,0.0517370328,-0.121217154,0.0944767222
86726.856512,0.182612968,-0.057267765,0.124855629,0.0259163529,-0.132570997,0.101672314
86726.866539,0.0976736078,-0.116746886,0.0660398676,0.0232257601,-0.131846622,0.101837434
86726.876566,0.0225565719,-0.137427489,-0.00806874017,0.0389706381,-0.123423047,0.106862813
86726.886593,0.0580018331,-0.144564977,-0.0829699596,0.0534704849,-0.107904278,0.100958854
86726.896620,0.139130823,-0.0732537993,-0.12904139,0.0678102747,-0.0873867497,0.0834965035
86726.906648,0.155795323,-0.0835004132,-0.145842303,0.0885214061,-0.0625993758,0.0656860843
86726.916675,0.18411592,-0.104744825,-0.107326987,0.0858073831,-0.0507906564,0.0400185362
86726.926702,0.151932126,-0.0103842917,-0.0631429771,0.0775859356,-0.0459029563,0.0137685575
86726.936729,0.159143702,-0.00804792571,0.0336976869,0.072120063,-0.0363323539,-0.0129376221
86726.946756,0.154474395,0.0498748919,0.11210896,0.0742181018,-0.0233355928,-0.0397724286
86726.956784,0.117355044,0.106844427,0.0682329937,0.0879821181,-0.00742267398,-0.0596579909
86726.966811,0.0755057978,0.047439897,0.0907575448,0.0978113115,0.00161183404,-0.0787624419
86726.976838,0.0535817151,-0.00391957546,0.190330264,0.0770296007,0.00641564373,-0.102352984
86726.986865,0.00700103787,-0.0170501565,0.268517081,0.0507380813,0.0108719114,-0.134080037
86726.996893,-0.0673099241,0.0630913748,0.235536603,0.0396468155,0.0106063941,-0.154450014
86727.006920,-0.0642061494,0.104944978,0.190740014,0.0405435003,0.00619193818,-0.156906515
86727.016947,0.0217862085,0.0745070325,0.105692664,0.0576833375,-0.00281220907,-0.154997304
86727.026974,0.0987677049,0.0428005377,-0.000333177477,0.109462641,-0.0118879955,-0.151265949
86727.037001,0.122365657,-0.0276024479,-0.068265727,0.172383815,-0.0252634548,-0.146021649
86727.047029,0.132794414,0.00602243863,-0.070441902,0.232753158,-0.0505072959,-0.141213045
86727.057056,0.223338288,0.0582849244,-0.049666825,0.272399634,-0.0755375475,-0.129555583
86727.067083,0.32141339,0.101047943,0.0572106645,0.284747124,-0.0874823555,-0.123311527
86727.077110,0.295593816,0.262523394,0.222358557,0.28438893,-0.0878930166,-0.127461538
86727.087137,0.212286148,0.366926639,0.36827977,0.265456796,-0.0697198734,-0.144059688
86727.097165,0.161834238,0.366114409,0.542460864,0.223135948,-0.0440749638,-0.176115632
86727.107192,0.103686055,0.349107343,0.575886163,0.170111343,-0.0169272292,-0.211651251
86727.117219,0.0958570325,0.281372763,0.596277209,0.0925707445,0.0147574637,-0.249467075
86727.127246,0.0685402696,0.249426267,0.662806906,0.0228446629,0.0264292993,-0.293621212
86727.137273,0.00864633912,0.359999616,0.515125697,-0.0486958325,0.0239522941,-0.329433024
86727.147301,0.0490514787,0.314569442,0.452598806,-0.0679398403,0.0135625033,-0.339597493
86727.157328,0.185297677,0.169440109,0.278878901,-0.0379206836,0.000781726732,-0.325563699
86727.167355,0.200845155,0.144548647,0.104631756,-0.00625809468,-0.0195728131,-0.297799736
86727.177382,0.216982526,0.0820184311,0.0923474443,0.0458202884,-0.0440451354,-0.26202628
86727.187409,0.227163363,0.0143485146,0.151291216,0.0971015841,-0.0621775314,-0.227917582
86727.197437,0.218922445,0.0756613171,0.306376564,0.106706537,-0.0846740529,-0.212833703
86727.207464,0.207877977,0.18556484,0.468801169,0.0918407738,-0.0889684036,-0.214340776
86727.217491,0.3175478,0.281834134,0.636108285,0.0324320458,-0.0811469629,-0.23583515
86727.227518,0.444962503,0.437918174,0.70990768,-0.0906858966,-0.101696976,-0.275859803
86727.237545,0.584049633,0.554551114,0.485907202,-0.212320447,-0.135428831,-0.301418692
86727.247573,0.712820061,0.500440242,0.211460146,-0.28890577,-0.146072686,-0.310486764
86727.257600,0.63785374,0.318877514,-0.0876373669,-0.306369185,-0.130088404,-0.316479653
86727.267627,0.540621264,0.152109547,-0.576639612,-0.248226523,-0.0912230313,-0.285794467
86727.277654,0.609530513,-0.120135834,-1.02345282,-0.118076243,-0.0401534587,-0.241901845
86727.287681,0.542464955,-0.24220492,-1.30795482,0.0228539836,0.0010301997,-0.196123168
86727.297709,0.369860463,-0.27996202,-1.29361708,0.127394512,0.0292578433,-0.154568255
86727.307736,0.294746551,-0.348827612,-1.00638478,0.17797406,0.0501974784,-0.118734621
86727.317763,0.291404054,-0.393706144,-0.607935498,0.188514322,0.0707853138,-0.0944884047
86727.327790,0.2936073,-0.383878541,-0.282082081,0.162219867,0.0869067535,-0.0940148979
86727.337817,0.25394769,-0.324200974,-0.152841368,0.155342519,0.110354289,-0.099776648
86727.347845,0.342159021,-0.267053347,-0.109898883,0.197356552,0.128868863,-0.0983942002
86727.357872,0.475422194,-0.120747646,-0.0315484,0.241172731,0.129142895,-0.0813433081
86727.367899,0.54122628,-0.0144958506,0.103519411,0.243669987,0.128884301,-0.0723705888
86727.377926,0.444146218,0.0667511942,0.359577408,0.234853327,0.133775473,-0.0804159939
86727.387953,0.226601528,0.125896772,0.599005758,0.214244977,0.138742,-0.0976908579
86727.397981,-0.104909185,0.127196164,0.761730222,0.176750869,0.12221548,-0.12036448
86727.408008,-0.333100832,0.110591359,0.866895647,0.120984808,0.067276597,-0.135353282
86727.418035,-0.354171969,-0.0185629904,0.816317552,0.0732572377,-0.0222932324,-0.132575348
86727.428062,-0.357192997,-0.191631373,0.53975745,0.0633007437,-0.116177388,-0.107985571
86727.438089,-0.310004399,-0.293550765,0.265976749,0.0854659602,-0.202240884,-0.0690349787
86727.448117,-0.257484304,-0.340360447,0.128577865,0.125440538,-0.263687462,-0.0311943907
86727.458144,-0.180001982,-0.320771073,0.0976712697,0.155751839,-0.297593504,0.00255185505
86727.468171,-0.145719133,-0.14513273,0.0686620328,0.170946777,-0.299034536,0.0187167097
86727.478198,-0.195349846,0.136495433,0.0861854145,0.170740381,-0.257275909,0.0111631863
86727.488225,-0.21852318,0.276603905,0.186488786,0.171549186,-0.184746057,-0.00789998658
86727.498253,-0.20835659,0.460480134,0.21421792,0.140890613,-0.10379608,-0.0349204168
86727.508280,-0.210685618,0.578731579,0.363572031,0.0690465122,-0.0236056373,-0.0740997791
86727.518307,-0.11262555,0.444314524,0.4651444,-0.000883835717,0.0535514615,-0.0928795934
86727.528334,0.0762526067,0.140224938,0.47042497,-0.0654029101,0.140184104,-0.0949936062
86727.538361,0.193728364,-0.0776467553,0.445454195,-0.105209179,0.221171901,-0.101220079
86727.548389,0.175195805,-0.158421908,0.364741075,-0.123887524,0.286589235,-0.115856282
86727.558416,0.0947348509,-0.0708756537,0.283381473,-0.130906284,0.306915283,-0.125480682
86727.568443,-0.0676888221,0.00587835398,0.217214179,-0.134900227,0.273512334,-0.126944885
86727.578470,-0.169739275,0.111455355,0.270715468,-0.126056403,0.195580781,-0.0786101073
86727.588497,0.0107954434,0.246109581,0.378423563,-0.128972039,0.108455457,0.0107839517
86727.598525,0.130831443,0.34934053,0.421000722,-0.132775024,0.0249517784,0.0974418819
86727.608552,0.0480318716,0.3506823,0.272582431,-0.125470504,-0.0502492338,0.172728375
86727.618579,0.122575738,0.175564145,-0.0610328531,-0.129147798,-0.0947645009,0.243227571
86727.628606,0.352008215,-0.0356372767,-0.385987276,-0.104281068,-0.100604817,0.287335902
86727.638633,0.610781316,-0.14080208,-0.703198538,-0.0682929754,-0.066960834,0.310834855
86727.648661,0.734978043,-0.140492393,-0.860969764,-0.0273908116,0.00445848703,0.310181051
86727.658688,0.61160162,-0.0680532533,-0.860886762,0.0280884262,0.112209983,0.255912483
86727.668715,0.292441964,0.0802697242,-0.72769585,0.0815780163,0.207801491,0.179930627
86727.678742,0.122323754,0.0618400048,-0.458173976,0.0904519334,0.26084581,0.104454257
86727.688769,0.0817012549,0.0621786621,-0.0883253492,0.0725384504,0.263733745,0.0396326445
86727.698797,0.0496766522,0.259439895,0.145579853,0.0425118431,0.225808725,-0.000554722734
86727.708824,0.0962506075,0.327326084,0.235367091,0.0352017321,0.16822505,-0.0144393798
86727.718851,0.111685054,0.270929513,0.122670102,0.0353231728,0.0965308845,-0.0278902072
86727.728878,0.109276459,0.155727701,-0.0685971509,0.0444074795,0.0324975774,-0.0382941142
86727.738905,0.0514897113,-0.00281162335,-0.10340426,0.0476014093,-0.0119950548,-0.0577429086
86727.748933,-0.106159386,-0.0646419105,-0.0856020617,0.0403107405,-0.0267058238,-0.0904087126
86727.758960,-0.142542312,-0.0631003436,-0.0701660076,0.0320855677,-0.00530279754,-0.123930715
86727.768986,-0.0125981272,-0.144634206,-0.013911621,0.0200376902,0.0342688449,-0.166699767
86727.779014,0.110118846,-0.162948081,-0.0512847816,0.0548936762,0.0568705611,-0.196389213
86727.789041,0.214410155,-0.0810872146,-0.0983785412,0.0403391309,0.0600511953,-0.190030813
86727.799069,0.339594724,0.0620714024,0.212337513,-0.0180477463,0.0723552629,-0.197600588
86727.809096,0.311898433,0.244662414,0.364112714,-0.0819689333,0.0745611638,-0.225330487
86727.819123,0.272302153,0.233868523,0.402443321,-0.147118911,0.0771391019,-0.224863365
86727.829150,0.313582404,0.107497046,0.47839668,-0.183885455,0.083863318,-0.209491327
86727.839177,0.393545948,0.106345611,0.393375048,-0.18927969,0.0862566978,-0.187161252
86727.849205,0.41638015,0.139582439,0.202183784,-0.187697232,0.105985664,-0.164816007
86727.859231,0.356274019,0.160923772,0.0982119524,-0.167953625,0.143506944,-0.157661691
86727.869259,0.307281148,0.169182883,-0.00136368957,-0.168894514,0.183491901,-0.167401135
86727.879286,0.262010658,0.134842588,0.0629664515,-0.198727518,0.203262955,-0.175910473
86727.889313,0.222658014,0.170360987,0.0376461323,-0.208269626,0.192433476,-0.163600534
86727.899341,0.170472229,0.149848726,0.0296954656,-0.196012422,0.155184641,-0.129946709
86727.909368,0.176326033,0.122505723,-0.00453121369,-0.163358867,0.0981525108,-0.091532737
86727.919395,0.130858084,0.140456226,-0.195683316,-0.0730300322,0.0277672932,-0.0434043556
86727.929422,0.0630651627,0.14196137,-0.4382599,0.0173517894,-0.0578930154,0.0327671096
86727.939449,0.0526073719,0.0737382584,-0.502007857,0.0778068826,-0.154105306,0.112535976
86727.949476,0.124843427,0.026382359,-0.491358453,0.140938431,-0.249716237,0.192884877
86727.959504,0.254040118,-0.114346218,-0.502269723,0.163685024,-0.333304346,0.272952795
86727.969531,0.378243421,-0.347958611,-0.399969624,0.160510004,-0.389519155,0.326040775
86727.979558,0.417922885,-0.391825335,-0.342568406,0.133217663,-0.403799295,0.341509759
86727.989584,0.352079746,-0.439400485,-0.362945423,0.116916731,-0.371369183,0.318606049
86727.999613,0.262787177,-0.519723985,-0.504652819,0.135673106,-0.313447297,0.279998183
86728.009640,0.155335286,-0.526177837,-0.653743894,0.166205972,-0.242159262,0.247210696
86728.019667,0.0979404146,-0.479851664,-0.6748691,0.161170468,-0.170384675,0.209717646
86728.029694,0.0841299342,-0.332019101,-0.643653293,0.110892132,-0.114321671,0.150022104
86728.039721,0.0312719394,-0.205079103,-0.661237465,0.0634897277,-0.0846332833,0.0829019174
86728.049749,-0.0824847791,-0.245005601,-0.776287155,0.0432254635,-0.0793256015,0.0343024246
86728.059776,-0.159167722,-0.39874991,-0.89744919,0.0578792393,-0.0861728564,0.000907182693
86728.069803,-0.153844189,-0.568052218,-1.05367085,0.124138422,-0.086126782,-0.0154411634
86728.079829,-0.216807791,-0.677791856,-1.08157885,0.207337171,-0.0632568896,-0.00814596657
86728.089857,-0.295693568,-0.663790511,-0.814894241,0.303344667,-0.0230785776,0.0141098034
86728.099884,-0.313636326,-0.500271718,-0.33310675,0.362490535,0.0346952379,0.0600597188
86728.109912,-0.300290741,-0.264578828,0.338377968,0.359945625,0.10362903,0.100365594
86728.119939,-0.31872963,0.114828522,0.9533213,0.304076761,0.146223634,0.0909095109
86728.129966,-0.318664529,0.447070581,1.20298112,0.195380375,0.143695757,0.0385277942
86728.139993,-0.169092209,0.360163684,1.37360014,0.0202245414,0.170177162,-0.0427540094
86728.150021,-0.188039176,0.155139343,1.3425252,-0.121415943,0.22323826,-0.145246834
86728.160048,-0.33744624,0.0641929611,0.946704512,-0.208755121,0.293396294,-0.213022143
86728.170074,-0.241345453,-0.200732635,0.607808073,-0.22759752,0.385230899,-0.234564722
86728.180102,-0.280853763,-0.255413416,0.366180168,-0.202425852,0.481175244,-0.230108991
86728.190129,-0.449072057,-0.0547296613,0.211376559,-0.14937675,0.556394398,-0.190323755
86728.200157,-0.526661091,0.16376674,0.0939496188,-0.0572787747,0.606378734,-0.11934492
86728.210184,-0.517995773,0.322272235,0.12440847,0.0407468602,0.622359574,-0.0347514786
86728.220211,-0.502048591,0.58753225,0.292826178,0.0973462239,0.580518901,0.0289497375
86728.230237,-0.444586838,0.803765821,0.449966704,0.0794497877,0.476993561,0.0623548329
86728.240265,-0.316480354,0.811723941,0.652328182,0.0169792138,0.360216618,0.05887115
86728.250293,-0.145924282,0.723209791,0.737184394,-0.0251911432,0.243650049,0.0456032827
86728.260320,-0.0500082588,0.68366462,0.719324328,-0.0661755949,0.141735137,0.033855278
86728.270347,-0.0174644181,0.653603755,0.63501932,-0.0826520398,0.0553073063,0.0220082067
86728.280374,0.0718143594,0.546157818,0.525301639,-0.072459586,-0.00761067215,0.0184169337
86728.290401,0.145106536,0.282817775,0.443745638,-0.0711391941,-0.0633287951,0.0260932297
86728.300429,0.105244262,0.0875006984,0.316943551,-0.0897927731,-0.114874542,0.0252434164
86728.310456,0.0328947731,-0.0076036434,0.180158414,-0.0989327356,-0.150893793,0.0318576433
86728.320482,0.0902681173,-0.15709519,0.165592713,-0.088812992,-0.161748305,0.0518910065
86728.330510,0.148482041,-0.204700333,0.146875153,-0.0593597665,-0.16106841,0.079479754
86728.340537,0.143800203,-0.223357431,0.0662730919,-0.0181984808,-0.150294051,0.120798968
86728.350565,0.168222441,-0.294816292,0.0270657016,0.0343227834,-0.124626234,0.175361544
86728.360592,0.213149085,-0.307769224,0.00938975964,0.0875623077,-0.0890362859,0.224770099
86728.370619,0.121758394,-0.198201144,0.0247042331,0.125071853,-0.0742909014,0.253934383
86728.380646,-0.0506131294,0.0390561087,-0.0162806882,0.149099961,-0.0909556299,0.281534851
86728.390673,-0.091724417,0.311973946,0.112414665,0.130055696,-0.144764259,0.342220008
86728.400701,0.077387666,0.359964179,0.305856339,0.114182465,-0.216677606,0.420328677
86728.410727,0.292408537,0.371583634,0.288320098,0.121841453,-0.284944832,0.493480384
86728.420755,0.442297741,0.379546612,0.0881406403,0.1479588,-0.331636667,0.561029613
86728.430782,0.508210182,0.248343075,-0.100863344,0.187466785,-0.341678381,0.616226792
86728.440810,0.503067595,0.15691534,-0.301933613,0.25779742,-0.309533536,0.645403326
86728.450837,0.381141882,0.19543767,-0.383124288,0.29714188,-0.238411129,0.649628162
86728.460864,0.247539577,0.207903257,-0.242639713,0.284158707,-0.12193805,0.601680875
86728.470891,0.0378485961,0.245419114,-0.0185375272,0.24029246,0.0261169318,0.500913024
86728.480918,-0.166650351,0.224520338,0.124108026,0.159846619,0.155375585,0.370635957
86728.490946,-0.255808991,0.061578212,0.180568749,0.0645778924,0.243137389,0.24355711
86728.500972,-0.196085284,-0.228356847,0.0781827254,0.0404206216,0.269777536,0.14020516
86728.511000,-0.0692351565,-0.457947547,-0.231473006,0.0489653759,0.229859143,0.0619982332
86728.521027,0.0702592754,-0.454417765,-0.363977105,0.0615117922,0.143883243,0.00962557271
86728.531054,0.171430918,-0.209940316,-0.33487902,0.0952865407,0.0428008363,-0.0260767639
86728.541082,0.229935896,0.0468152349,-0.159036716,0.102034986,-0.060265895,-0.0497498699
86728.551109,0.250812388,0.209432878,0.0580249035,0.106454767,-0.161687329,-0.072481811
86728.561136,0.25372791,0.290101648,0.207169171,0.0967933536,-0.24924247,-0.0822673291
86728.571163,0.245414767,0.263133781,0.434568644,0.0535145849,-0.319012523,-0.0765633732
86728.581190,0.183641763,0.134982617,0.612822686,-0.0141872279,-0.348409295,-0.0827413723
86728.591218,0.0488345389,0.123824898,0.689176442,-0.0779025555,-0.335604787,-0.10199976
86728.601245,0.0730821325,0.0828911222,0.621540245,-0.129521012,-0.280722618,-0.106875204
86728.611272,0.278191046,-0.0650666387,0.473918658,-0.159620598,-0.196262613,-0.100144863
86728.621299,0.415702506,-0.13330935,0.23597324,-0.180985272,-0.0908893198,-0.105158798
86728.631327,0.569173076,-0.0408021121,-0.00383563264,-0.130983889,0.00988523103,-0.096579425
86728.641354,0.447193586,-0.0915050752,-0.0913257,-0.121755227,0.118943006,-0.083846584
86728.651380,0.398743882,-0.028885026,-0.0788245304,-0.0889461488,0.232943878,-0.0941538215
86728.661408,0.616232202,0.172305801,-0.109592594,-0.0304053463,0.293868721,-0.0903673321
86728.671435,0.550983412,0.113714788,-0.0553682515,-0.00681346748,0.286404431,-0.112913124
86728.681463,0.434376008,0.171522103,0.0622118338,-0.0345891751,0.22031197,-0.166721761
86728.691490,0.504789378,0.240782029,0.223834474,-0.0838304833,0.118865244,-0.212023988
86728.701517,0.543502262,0.233610238,0.37489422,-0.123592012,-0.00260605942,-0.229949206
86728.711544,0.521360464,0.166402349,0.392965299,-0.15170382,-0.117226385,-0.215585172
86728.721570,0.34694779,0.085658395,0.400161348,-0.127183557,-0.208113149,-0.188049152
86728.731599,0.196963619,0.0312424027,0.289434782,-0.0460892357,-0.285395145,-0.135974228
86728.741626,0.16608647,-0.045410775,0.0550438418,0.0744459704,-0.378348768,-0.053588815
86728.751653,0.19569307,-0.131588006,-0.0548065259,0.143693209,-0.461414397,0.0273414515
86728.761680,0.197809368,-0.159060462,0.0986485903,0.172886252,-0.527988613,0.0724969506
86728.771708,0.121097455,-0.254976485,0.0562836128,0.194663182,-0.580860615,0.0875885487
86728.781735,0.0478713747,-0.330722997,0.0124082307,0.174150988,-0.610156178,0.0842750445
86728.791762,-0.047883056,-0.387107878,0.062045245,0.136990637,-0.62082082,0.0669890642
86728.801789,-0.268489901,-0.334935208,-0.0249029706,0.097276248,-0.622688532,0.0227579549
86728.811816,-0.468411804,-0.252451059,-0.228200268,0.0590649471,-0.583842039,-0.0243688095
86728.821844,-0.526579769,-0.395307697,-0.0772720403,0.0227314401,-0.491676688,-0.0722937211
86728.831871,-0.699605482,-0.444036803,0.124043144,-0.0224906318,-0.376524806,-0.129873931
86728.841898,-0.911189839,-0.358247621,0.123058224,-0.0789877251,-0.273145944,-0.181179196
86728.851925,-0.933690132,-0.299281491,0.0183031339,-0.158797875,-0.197874635,-0.241019905
86728.861953,-0.734010002,-0.304131781,-0.216653038,-0.204632744,-0.154711187,-0.302493364
86728.871980,-0.493856224,-0.400639194,-0.604581512,-0.223116145,-0.140339971,-0.335856408
86728.882007,-0.326082477,-0.502302529,-1.00904085,-0.186651617,-0.123117581,-0.327501267
86728.892034,-0.139135682,-0.543827768,-1.21056938,-0.0941885188,-0.0979760066,-0.287548244
86728.902061,-0.0149143683,-0.548941019,-1.33133394,0.0157390442,-0.0719603896,-0.226830035
86728.912089,0.127273869,-0.554895836,-1.2779028,0.107176818,-0.026525259,-0.177683532
86728.922116,0.224959862,-0.516996533,-1.06367202,0.217360839,0.0396678783,-0.145363942
86728.932143,0.140377023,-0.429843954,-0.756576492,0.301759869,0.111992404,-0.114057146
86728.942170,0.071565006,-0.219937175,-0.191640178,0.318979084,0.171733499,-0.0987767279
86728.952198,0.0655052128,0.0728405606,0.413562096,0.274718672,0.221007839,-0.106515341
86728.962225,0.0280557538,0.275426568,0.897583046,0.207458943,0.268176675,-0.126092777
86728.972252,0.0148386727,0.356757382,1.18413438,0.148900554,0.296574503,-0.130586863
86728.982279,-0.0121721752,0.346028848,1.23696815,0.11319077,0.306224197,-0.115058497
86728.992306,-0.0677801719,0.301235913,1.16750766,0.0977987647,0.307869494,-0.0941169932
86729.002334,-0.0573270026,0.187633134,1.07311789,0.0596303381,0.295073271,-0.0828353167
86729.012361,-0.0396616368,0.160539522,0.919385712,0.000695913506,0.263439178,-0.0931207091
86729.022388,-0.0665677183,0.19654417,0.649283408,-0.0502088107,0.251733005,-0.0947620124
86729.032415,-0.00958152391,0.165944084,0.495521418,-0.0206527859,0.248056233,-0.0738801658
86729.042443,0.0872917958,0.160873284,0.26041853,0.00769363577,0.248372361,-0.031864807
86729.052470,0.22741942,0.216706084,0.260678643,0.00999966729,0.254583925,0.00150033832
86729.062497,0.233289591,0.348643342,0.373445775,0.00132761523,0.273893416,0.0179501511
86729.072524,0.166993557,0.488253107,0.536748331,-0.00415103976,0.294612288,0.0233033709
86729.082551,0.137976438,0.681737817,0.678105013,-0.0303195268,0.308146209,0.0301961657
86729.092579,0.205834853,0.765656529,0.777324681,-0.0769525394,0.319757044,0.0263588168
86729.102606,0.3130746,0.828280742,0.717651426,-0.0928747803,0.308067918,0.0130880177
86729.112633,0.383501889,0.781481217,0.507190813,-0.109342702,0.263815492,0.0192742757
86729.122660,0.381565222,0.566635081,0.3697288,-0.143825054,0.218201146,0.0190210082
86729.132688,0.293196326,0.416692503,0.26477731,-0.125948325,0.153866366,0.0252751764
86729.142715,0.0897085289,0.166382768,0.214329564,-0.125545919,0.119320892,0.0405281633
86729.152742,0.0707695082,0.0380085359,0.188026079,-0.0963305011,0.100130685,0.0437324792
86729.162769,0.0702438038,-0.0595462678,0.0339285731,-0.0440177619,0.0654398128,0.0605628565
86729.172797,0.252166689,-0.303538126,-0.0627162762,-0.029853208,0.0225980785,0.0835366175
86729.182824,0.142604015,-0.269268484,-0.0964326678,-0.0362381339,-0.0232208092,0.0814252645
86729.192851,-0.204924296,0.060267714,-0.139560446,-0.0439583734,-0.0599055849,0.0814079568
86729.202878,-0.376805753,0.194220038,-0.0293710559,-0.0361182913,-0.104166791,0.107229166
86729.212905,-0.284481306,0.230761716,0.0412917953,-0.0124763474,-0.155442223,0.174936041
86729.222933,0.00363828344,0.182650377,0.134469261,0.00041921105,-0.197480753,0.288264453
86729.232960,0.353753342,0.121731798,0.37641573,0.031899374,-0.218016386,0.401813388
86729.242987,0.502620363,0.281481996,0.423493123,0.0793345347,-0.215460017,0.519292891
86729.253014,0.677157357,0.362966978,0.37848786,0.143556118,-0.192632735,0.654010236
86729.263042,0.772586547,0.284149973,0.312160408,0.222086087,-0.150286883,0.776581943
86729.273069,0.679623455,0.220900978,0.188046537,0.299948663,-0.0785269439,0.858590305
86729.283096,0.529613803,0.116996221,0.215658182,0.322270215,0.0158490967,0.868379235
86729.293123,0.288794255,0.0624264994,0.331038127,0.280013293,0.113376983,0.777325809
86729.303151,0.00387182733,0.0155029088,0.520922985,0.151273698,0.20779857,0.633815765
86729.313178,-0.168654658,-0.0251202666,0.677144059,0.00581104681,0.29058212,0.490388274
86729.323205,-0.229434943,-0.0252613556,0.577115997,-0.0710046366,0.353632718,0.337615222
86729.333232,-0.164658574,0.116038482,0.34425066,-0.178315654,0.372742504,0.205282748
86729.343260,0.00314626214,0.0132315298,0.154137253,-0.242831796,0.331780434,0.0766155943
86729.353287,0.198003356,-0.218371167,-0.306451967,-0.234193295,0.224497378,-0.0232486855
86729.363314,0.231222575,-0.477648419,-0.729424282,-0.223100707,0.0821873695,-0.0882572457
86729.373341,0.236148433,-0.591473316,-0.924221462,-0.184403107,-0.0747340694,-0.128271505
86729.383368,0.394181835,-0.614275442,-1.04125327,-0.135489359,-0.225664988,-0.137063667
86729.393396,0.622814649,-0.699597226,-0.896640797,-0.101428054,-0.356595039,-0.0999117717
86729.403423,0.766554427,-0.707105701,-0.809103968,-0.0484114438,-0.462839991,-0.0176009182
86729.413450,0.79513784,-0.697739907,-0.76187986,0.0501896963,-0.525367022,0.0907178372
86729.423477,0.649648369,-0.592896408,-0.674205083,0.139345139,-0.548088849,0.199645102
86729.433505,0.431433524,-0.410299295,-0.474492658,0.178264841,-0.51410985,0.274602979
86729.443532,0.313022066,-0.268836157,-0.177259186,0.185283333,-0.440302461,0.320867419
86729.453559,0.353179159,-0.230890238,0.0204746328,0.167483553,-0.363764018,0.333512098
86729.463586,0.467350239,-0.268595699,0.035421442,0.145113543,-0.292800337,0.323403805
86729.473614,0.460657135,-0.336924701,0.0422533338,0.13411814,-0.225628242,0.28906554
86729.483641,0.371594302,-0.230422328,0.0775666393,0.101398289,-0.152409151,0.231127396
86729.493668,0.222419109,-0.136611607,0.257613994,0.0483633019,-0.0738837197,0.156465679
86729.503695,-0.0187515718,-0.112095151,0.443115523,0.0184663869,0.00694215298,0.0638992637
86729.513723,-0.249198249,-0.0981783424,0.517094952,-0.0131373433,0.0697669163,-0.0141036548
86729.523750,-0.435060885,-0.0888903627,0.528944964,-0.00797906704,0.0691474676,-0.0869568214
86729.533777,-0.536131661,-0.168301753,0.66423314,-0.0826216117,0.0456251018,-0.13505511
86729.543804,-0.455418905,-0.191653476,0.946304699,-0.17602694,0.0182483364,-0.187108994
86729.553832,-0.370327168,0.0311616657,0.828522954,-0.239926293,-0.0254730452,-0.228638336
86729.563859,-0.198962849,0.0294319193,0.60856386,-0.282576025,-0.0662249997,-0.234354272
86729.573886,-0.0681352325,-0.0742373487,0.524399137,-0.279552251,-0.0905351341,-0.206358597
86729.583913,-0.0435258745,-0.148260397,0.2832143,-0.224100724,-0.0924068093,-0.163319513
86729.593941,-0.0126893857,-0.303678484,0.0465180055,-0.131236553,-0.0649725199,-0.104992017
86729.603968,0.0294638305,-0.513479465,-0.0251098913,-0.0306289867,-0.0271883868,-0.0488445908
86729.613995,-0.0131494592,-0.545825664,0.0482470213,0.00327118998,-0.00579468114,-0.0176682957
86729.624022,0.0247798557,-0.419464672,0.179870829,-0.0366594456,-0.00371182291,-0.0241419096
86729.634050,0.0687829923,-0.278306142,0.288141819,-0.113667943,-0.0106099425,-0.0649660379
86729.644077,0.0416932705,-0.163614691,0.294185191,-0.193367302,-0.0137383575,-0.106543839
86729.654104,-0.00797247672,-0.121806909,0.128718734,-0.243738338,-0.0197312683,-0.150111303
86729.664131,0.0399047066,-0.151945077,-0.236796247,-0.258877337,-0.0301972274,-0.165336326
86729.674159,0.18163088,-0.321995281,-0.577879967,-0.239251703,-0.0490809008,-0.163411394
86729.684186,0.211697115,-0.418483625,-0.858843858,-0.184822291,-0.0739332587,-0.142755643
86729.694213,0.218517462,-0.522776066,-1.08198684,-0.101793975,-0.101104423,-0.0980233178
86729.704240,0.209455108,-0.62449873,-1.14084235,-0.00562749617,-0.110045724,-0.0435345173
86729.714268,0.263850076,-0.595125884,-1.0284762,0.0745176747,-0.0943554416,0.00440797769
86729.724295,0.277554338,-0.495719205,-0.80841014,0.123251393,-0.0566879548,0.0334340371
86729.734322,0.199863433,-0.338757469,-0.618286212,0.153107822,-0.0209198371,0.0361043885
86729.744349,0.102847558,-0.178940198,-0.544836361,0.179845154,0.0200779289,0.0268978402
86729.754377,0.064724255,-0.129748589,-0.378452205,0.20989041,0.0584056117,0.0185672063
86729.764404,0.0778431364,-0.158738975,-0.0858265181,0.205288202,0.0822155997,0.0171288326
86729.774431,-0.0110364309,-0.127747844,0.278749721,0.176558286,0.0939377695,0.011057891
86729.784458,-0.268296168,-0.0188269386,0.528306081,0.135439336,0.0780248493,-0.00276950747
86729.794486,-0.515539064,0.0679141371,0.607234657,0.0871571228,0.0438918136,-0.0272802897
86729.804513,-0.637146688,0.0700086251,0.587034749,0.0402841531,-0.00131694064,-0.0534495749
86729.814540,-0.523474789,0.0170412242,0.508402527,-0.0266325623,-0.0208059531,-0.0792385563
86729.824567,-0.380010284,-0.0934226723,0.449770305,-0.0689424649,-0.0320535488,-0.114174172
86729.834595,-0.466030681,-0.188701713,0.136143331,-0.0763130337,-0.0361399055,-0.143373862
86729.844622,-0.681782094,-0.219130242,-0.0685170714,-0.0755846575,-0.0267317537,-0.173133358
86729.854649,-0.797200472,-0.201344264,-0.139471015,-0.0496318862,-0.0092507638,-0.196219236
86729.864676,-0.734706314,-0.104842842,-0.204166482,-0.021702785,0.0171789788,-0.212740153
86729.874704,-0.68062138,0.0506422459,-0.121603349,-0.0417164378,0.0700339377,-0.237665221
86729.884731,-0.609355156,0.341565293,0.0900210472,-0.0739681199,0.131500229,-0.281702459
86729.894758,-0.432505647,0.674755776,0.094180505,-0.0921431258,0.173335552,-0.296060622
86729.904785,-0.150870379,0.720032622,0.137251585,-0.108692273,0.208323896,-0.29561615
86729.914813,0.0274562809,0.765536336,0.193158766,-0.12345311,0.248637766,-0.296624422
86729.924840,0.0825183343,0.744225399,0.301944134,-0.135957718,0.284391761,-0.293443531
86729.934867,0.0639577367,0.543671774,0.416375985,-0.128867313,0.299158454,-0.279791653
86729.944895,0.0392952969,0.274723096,0.342220615,-0.108849406,0.283557147,-0.244353488
86729.954922,0.0291161861,-0.124538307,0.323968335,-0.102621332,0.26097247,-0.215265095
86729.964949,-0.0791705491,-0.321615123,0.258432325,-0.0839661583,0.235663906,-0.19349882
86729.974976,-0.13286557,-0.431482661,0.0847562585,-0.0424879566,0.194919139,-0.144758716
86729.985004,-0.115410797,-0.519535404,-0.0172059863,-0.0125359176,0.145686343,-0.0781429335
86729.995031,-0.0779488435,-0.513637651,-0.0305967983,0.0164246261,0.0921467021,-0.0174257942
86730.005058,-0.0327802113,-0.467141492,-0.0977665467,0.0589150973,0.0608936995,0.0450152121
86730.015085,-0.0111998641,-0.474817433,-0.0606996756,0.0847783834,0.0557452776,0.0940101892
86730.025113,-0.135079492,-0.304072817,0.0223141231,0.102652989,0.0500186831,0.13143453
86730.035140,-0.19652742,-0.144134842,0.0670703797,0.110396929,0.0414944366,0.154373929
86730.045167,-0.160157902,-0.0206084883,0.0839987182,0.0983354747,0.0463027731,0.17277132
86730.055195,-0.0503623695,0.0752738522,0.183491358,0.0724711195,0.0727823228,0.186871156
86730.065222,0.0149948222,0.0830886906,0.188835057,0.0492635332,0.103250481,0.197643638
86730.075249,0.0330560554,0.0580832826,0.0937666635,0.0164166372,0.142117709,0.209523737
86730.085276,-0.0883041146,-0.0440293305,0.00978840356,-0.0176928639,0.187121406,0.207713053
86730.095304,-0.212189812,-0.104374713,-0.0730307494,-0.0455718972,0.243950337,0.172777176
86730.105331,-0.327189196,-0.13256182,-0.162106625,-0.0702367648,0.303650945,0.113819048
86730.115358,-0.460595943,-0.111930827,-0.219832253,-0.0760626942,0.354289621,0.0560268499
86730.125385,-0.535166103,-0.0105074386,-0.302336933,-0.0667687953,0.382630706,0.0158711765
86730.135413,-0.497016844,0.112558092,-0.302577756,-0.0720154867,0.373690754,-0.0260033049
86730.145440,-0.495418871,0.413574152,-0.237951263,-0.108353525,0.363750249,-0.0552216433
86730.155467,-0.539920458,0.516879263,-0.180596221,-0.0686223581,0.32530725,-0.0699443892
86730.165494,-0.434883446,0.474797413,-0.197733234,0.00255967793,0.236564323,-0.0619892664
86730.175522,-0.306606719,0.418565458,-0.259028537,0.0527868979,0.103313603,-0.0591846965
86730.185549,-0.182938656,0.399289168,-0.22707331,0.0661104247,-0.0423128456,-0.0679238513
86730.195576,-0.113318994,0.3224317,-0.0290758724,0.0508957878,-0.155273482,-0.0963677466
86730.205604,-0.141790945,0.311742621,0.0661801529,0.0619156808,-0.229062498,-0.119734854
86730.215631,-0.230613503,0.281790696,0.132061615,0.0628698915,-0.2604087,-0.155926943
86730.225658,-0.23139764,0.269562718,0.229231365,0.105306298,-0.316105515,-0.169453666
86730.235685,-0.347228287,0.121223264,0.310686244,0.101545647,-0.362703919,-0.168947145
86730.245713,-0.370113781,0.153168043,0.42778819,0.127661407,-0.396049887,-0.187854514
86730.255740,-0.315427009,0.182535738,0.392380777,0.123061061,-0.419786096,-0.195299655
86730.265767,-0.173563966,0.111329647,0.516274867,0.115651876,-0.435038835,-0.200435817
86730.275795,-0.00803771484,0.227471735,0.561658316,0.0918807685,-0.448012412,-0.206742182
86730.285822,0.148017199,0.340979602,0.536405801,0.0273172222,-0.447178841,-0.232061386
86730.295849,0.28934745,0.351224006,0.55340662,-0.0602331311,-0.416929603,-0.271784067
86730.305876,0.308967823,0.296585676,0.581739565,-0.137937784,-0.359140873,-0.319906056
86730.315904,0.285779145,0.246387082,0.494479215,-0.201611295,-0.280416489,-0.368336678
86730.325931,0.311320742,0.201541394,0.344016851,-0.237624153,-0.192452013,-0.40384382
86730.335958,0.459736038,0.155596731,0.162928462,-0.27397871,-0.111338511,-0.435489625
86730.345986,0.622871859,0.177535738,-0.0169014504,-0.274901509,-0.0597003587,-0.447922319
86730.356013,0.626818917,0.135070953,-0.280338452,-0.246344149,-0.0247080158,-0.44354251
86730.366040,0.707408922,0.0730208125,-0.467557891,-0.153931394,0.00599290337,-0.407351732
86730.376067,0.786371765,-0.0808031005,-0.508899955,-0.0406530388,0.0218714699,-0.341472596
86730.386095,0.804354654,-0.0628879429,-0.369377502,0.0714356825,0.0108198831,-0.290950567
86730.396122,0.919515476,0.176818018,-0.189681445,0.136875674,-0.0211420432,-0.256287932
86730.406149,1.16420094,0.348536265,0.180690329,0.151183501,-0.0656799525,-0.226467952
86730.416177,1.33242072,0.428971482,0.48243748,0.0989615843,-0.109354727,-0.214871481
86730.426204,1.29213371,0.565562776,0.754967888,0.00923968479,-0.1211235,-0.226385936
86730.436231,1.19166806,0.603329539,0.932282019,-0.087699376,-0.122978926,-0.253314495
86730.446258,1.10971883,0.534850462,0.854124428,-0.180527315,-0.129754543,-0.287503362
86730.456286,0.979689082,0.421321077,0.572521655,-0.227462068,-0.148262188,-0.319963306
86730.466313,0.889456877,0.238027616,0.175288762,-0.21982412,-0.174850121,-0.324631542
86730.476340,0.869633182,-0.0756037417,-0.299255334,-0.192761347,-0.214277953,-0.30464533
86730.486368,0.748967771,-0.303646481,-0.609313217,-0.162553638,-0.252192855,-0.301515847
86730.496395,0.624367139,-0.301807941,-0.802099057,-0.114963219,-0.286907136,-0.280809253
86730.506422,0.64788377,-0.2554395,-0.87396427,-0.0493061803,-0.312644213,-0.235165313
86730.516449,0.683759678,-0.271252096,-0.867420547,0.0160310119,-0.328145146,-0.180609122
86730.526477,0.626292701,-0.279118993,-0.845176567,0.0788669661,-0.340525627,-0.128425539
86730.536504,0.493953949,-0.235919026,-0.78879417,0.120767549,-0.358551234,-0.0818660334
86730.546531,0.467181787,-0.266802678,-0.631592268,0.142400667,-0.365569472,-0.0328039527
86730.556559,0.560997404,-0.272446785,-0.482536848,0.146406859,-0.36240083,0.0135049578
86730.566586,0.603326251,-0.269082643,-0.402997448,0.154074103,-0.310307294,0.0536912568
86730.576613,0.529045465,-0.328847156,-0.237688228,0.146299541,-0.224366799,0.0664834902
86730.586640,0.229088303,-0.253469698,-0.218282101,0.123038687,-0.113588355,0.0536816716
86730.596668,-0.0532845405,-0.239613935,-0.201984462,0.0686273798,0.0261634197,0.0152738299
86730.606695,-0.229582115,-0.283163081,-0.151586984,0.0533395037,0.174321458,-0.0402224548
86730.616722,-0.33745278,-0.342744274,-0.279494402,0.0334118679,0.294498473,-0.0803291202
86730.626750,-0.299987411,-0.496178201,-0.37707624,0.0251640566,0.351940453,-0.104992121
86730.636777,-0.168667919,-0.617247078,-0.537401827,0.0464528352,0.350196868,-0.110023633
86730.646804,-0.213715852,-0.699061073,-0.592435147,0.0730066821,0.312568814,-0.0882962346
86730.656832,-0.367460599,-0.601888766,-0.560799653,0.110073358,0.27472049,-0.0539126955
86730.666859,-0.43787101,-0.358847121,-0.494476293,0.174092293,0.258930892,0.000290352851
86730.676886,-0.497238633,-0.236793179,-0.316243293,0.26373294,0.254931599,0.0602791198
86730.686913,-0.500032246,-0.0173217947,-0.0750818367,0.320097685,0.235916108,0.107049823
86730.696941,-0.465197226,0.232763046,0.203955469,0.299547404,0.223322555,0.123153426
86730.706968,-0.477712935,0.396077658,0.501031121,0.299980968,0.231479287,0.11628034
86730.716995,-0.433964541,0.506671538,0.668760262,0.284915447,0.252811193,0.117773309
86730.727023,-0.301978914,0.495336197,0.922165699,0.207173273,0.283224225,0.110762537
86730.737050,-0.199023146,0.495378867,1.2836393,0.0770943686,0.317676216,0.0547754318
86730.747077,-0.169397512,0.499663632,1.40640701,-0.0586104691,0.352355093,-0.0309823491
86730.757105,0.0246868185,0.38223355,1.24459323,-0.174079269,0.381389946,-0.117547065
86730.767132,0.279746021,0.254324451,0.927730347,-0.239842042,0.410906285,-0.177437559
86730.777159,0.481251412,0.101392263,0.540296379,-0.215771332,0.425684452,-0.184155658
86730.787187,0.397217111,-0.0350293739,0.217171509,-0.169745505,0.432539433,-0.160671368
86730.797214,0.00824109192,0.115366136,0.140793788,-0.10881602,0.398342669,-0.123554341
86730.807241,-0.437324957,0.302083324,0.190245508,-0.0628839508,0.300193459,-0.0349720158
86730.817268,-0.44724349,0.317551088,0.324703663,0.00929250941,0.133607134,0.120233022
86730.827296,-0.11027221,0.173190767,0.356599269,0.0990980342,-0.0748925433,0.320059031
86730.837323,0.173735797,0.230233966,0.245049112,0.168616652,-0.269894242,0.523991942
86730.847350,0.221908438,0.437194682,0.242125333,0.238184273,-0.425090492,0.693942666
86730.857378,0.116708682,0.625124826,0.280524914,0.260189444,-0.518858254,0.810201108
86730.867405,0.0562641728,0.794259011,0.441173157,0.19620806,-0.526965976,0.849583626
86730.877432,0.0696845169,0.88921788,0.567533345,0.0821675137,-0.438995659,0.822227359
86730.887460,0.204317946,0.723139064,0.470788543,-0.0302423835,-0.266494185,0.747843683
86730.897487,0.375152359,0.485736156,0.202179692,-0.106547274,-0.0659499168,0.656190991
86730.907514,0.440947458,0.359681745,-0.213292622,-0.11891792,0.134064659,0.571146131
86730.917542,0.405120431,0.230207517,-0.577395983,-0.0731144771,0.299334317,0.500916719
86730.927569,0.280760038,0.176963856,-0.731252666,0.0164878387,0.391614735,0.446814328
86730.937596,0.214283387,0.182701377,-0.524308536,-0.00226401212,0.413560778,0.41209814
86730.947624,0.139491564,0.22334523,-0.0843973621,0.00315472158,0.382085681,0.380609751
86730.957651,0.0898163549,0.358552011,-0.00217559047,0.0223324113,0.285051525,0.367109895
86730.967678,0.15742128,0.346431146,0.065316814,0.0190913435,0.115365282,0.344252259
86730.977705,0.203092934,0.301241904,0.014834581,-0.0110974517,-0.0779288113,0.322896898
86730.987733,0.296607377,0.219182703,-0.0593114361,-0.0542523786,-0.185521588,0.309804797
86730.997760,0.268410022,0.144884491,-0.0501677602,-0.0324227139,-0.195516691,0.280222416
86731.007787,0.252744324,0.0786195824,-0.147174429,0.0150113814,-0.166532189,0.243476644
86731.017815,0.377591752,0.056781187,-0.107448567,0.0441788509,-0.123000681,0.202905253
86731.027842,0.495205666,0.165233451,-0.0415963312,0.0477751866,-0.103762276,0.164868116
86731.037869,0.582884571,0.208154602,0.160013452,-0.0283169169,-0.0843129456,0.119271085
86731.047897,0.508029784,0.125612877,0.406734296,-0.0754053295,-0.0504260845,0.0632445663
86731.057924,0.465209245,0.11470643,0.468368622,-0.0709709004,-0.00728926482,0.0140304137
86731.067951,0.491409525,-0.00366977455,0.502708699,-0.06499663,0.0229216348,-0.0140931001
86731.077979,0.463153555,-0.130538862,0.557008444,-0.084438242,0.0342038497,-0.0375049487
86731.088006,0.43882115,-0.0999865609,0.594925795,-0.134611934,0.0567554981,-0.0703321323
86731.098033,0.375780026,0.0060852382,0.615692104,-0.169421852,0.0923443809,-0.103932969
86731.108061,0.377453659,0.123165776,0.544252423,-0.179451317,0.115958102,-0.118853591
86731.118088,0.422637128,0.157537782,0.453868972,-0.200964868,0.0964299366,-0.113313958
86731.128115,0.441908705,0.134953026,0.360728916,-0.215894535,0.057964839,-0.0854402483
86731.138143,0.45445459,0.0509618332,0.403921577,-0.214205563,0.0113986684,-0.0556599833
86731.148170,0.417645822,0.0249723095,0.365708458,-0.182657227,-0.0251609404,-0.00367108546
86731.158197,0.385646427,-0.115074678,0.358229501,-0.1485416,-0.030914966,0.0647897348
86731.168225,0.356458728,-0.236081085,0.333111426,-0.092328921,-0.00926959142,0.10346096
86731.178252,0.389037531,-0.246458431,0.129810037,-0.0294138733,0.00467392104,0.122708961
86731.188279,0.4098483,-0.392610238,-0.00741232208,-0.02515761,-0.00636035437,0.0999487862
86731.198307,0.21618827,-0.397561212,-0.207469615,-0.0266689528,-0.0246602651,0.0389916897
86731.208334,0.164366149,-0.324572694,-0.494492659,-0.017794501,-0.035400793,-0.028679233
86731.218361,0.169832616,-0.407086763,-0.590246697,0.0172481705,-0.0354756303,-0.0901740193
86731.228389,0.211153838,-0.467671069,-0.614567484,0.0577862747,-0.0361320972,-0.131233573
86731.238416,0.346541255,-0.527494911,-0.469060112,0.0633378997,-0.0413617492,-0.163186178
86731.248443,0.295285846,-0.433169883,-0.294594941,0.0370474383,-0.0491126105,-0.217903763
86731.258471,0.1656999,-0.2525033,-0.212393627,-0.0125472751,-0.0488502905,-0.274220824
86731.268498,0.0405744271,-0.270208249,-0.0716325731,-0.0143172126,-0.0470523909,-0.321080744
86731.278525,-0.0583658807,-0.247628826,-0.228429401,0.00489243446,-0.0678325072,-0.32462275
86731.288553,0.0337401173,-0.355768992,-0.30517128,0.0294822007,-0.096576266,-0.302507043
86731.298580,0.130958056,-0.396989732,-0.328034269,0.0420797504,-0.140894204,-0.282343209
86731.308607,0.0578745078,-0.274502658,-0.416007151,0.0247407071,-0.204876915,-0.281708568
86731.318635,-0.054493994,-0.179991606,-0.563329464,0.00642934442,-0.259472489,-0.279629439
86731.328662,-0.103572941,-0.185780419,-0.614310294,0.00392171228,-0.287316382,-0.268921673
86731.338689,-0.249727588,-0.0174887488,-0.61389996,0.0047813803,-0.282742918,-0.250657707
86731.348717,-0.411326556,0.100396895,-0.502770074,-0.0115864072,-0.254466027,-0.221660942
86731.358744,-0.474118637,0.0871455648,-0.377767145,-0.0336006321,-0.231295735,-0.186976463
86731.368771,-0.4358208,-0.0285203574,-0.415527259,-0.0297470354,-0.223299325,-0.130151793
86731.378799,-0.311981362,-0.204637241,-0.549392709,0.0139993802,-0.228361189,-0.0472390689
86731.388826,-0.248302689,-0.333111207,-0.635684506,0.100288995,-0.229684517,0.0594189316
86731.398853,-0.350293301,-0.37836628,-0.693394352,0.237460166,-0.208064184,0.175670967
86731.408881,-0.368171561,-0.475855179,-0.729317899,0.390540808,-0.161544621,0.295260221
86731.418908,-0.0896947378,-0.750114822,-0.559890722,0.529679239,-0.0895734876,0.39469412
86731.428935,0.328986747,-1.04418501,-0.289200388,0.628499568,-0.0102584232,0.407132953
86731.438963,0.575190436,-1.09393352,0.178975926,0.627734661,0.0738881454,0.345128447
86731.448990,0.593633234,-0.636066564,0.779428376,0.497013181,0.176753536,0.229204237
86731.459017,0.07068636,-0.0648164633,1.47278064,0.294321865,0.30993557,0.0389309712
86731.469045,-0.479002025,0.501091035,2.00045895,0.0523201376,0.470625401,-0.240529701
86731.479072,-0.561641657,0.954105217,2.22756791,-0.101379678,0.58058542,-0.506356299
86731.489099,-0.817518233,0.853881194,1.85328101,-0.242611647,0.627538323,-0.660491824
86731.499127,-0.833182908,0.533306593,1.14380296,-0.289283514,0.581831276,-0.718631029
86731.509154,-0.574450066,0.21770452,0.177245742,-0.253621131,0.464287341,-0.675905883
86731.519182,-0.223048146,-0.0800713156,-0.474852724,-0.199153647,0.294983268,-0.559581459
86731.529209,0.0344315724,-0.120910253,-0.868411897,-0.111489303,0.1118057,-0.417468518
86731.539236,0.156766104,0.0529097524,-1.01305418,-0.0254042186,-0.0371811166,-0.289972633
86731.549264,0.350888052,0.317589374,-0.755261318,0.00923791341,-0.146535844,-0.178162202
86731.559291,0.547554716,0.599715513,-0.461408136,-0.0133566111,-0.187937334,-0.0874868855
86731.569318,0.631827319,0.851759964,-0.126040455,-0.0839604735,-0.130446345,-0.0438019931
86731.579346,0.58156304,1.00165154,0.325605581,-0.212343216,0.00950702559,-0.047912851
86731.589373,0.355652965,0.996929921,0.593543985,-0.306041479,0.20671384,-0.108263269
86731.599400,0.103201477,0.919636472,0.683358111,-0.33855015,0.399415135,-0.174781591
86731.609428,-0.00258623537,0.756445779,0.589580927,-0.350598007,0.551442742,-0.202580467
86731.619455,-0.0382598072,0.619169717,0.650009384,-0.34701553,0.645230234,-0.203058228
86731.629482,0.064974613,0.580430748,0.714549953,-0.251458645,0.671426117,-0.157293946
86731.639510,0.18782135,0.435226012,0.367553794,-0.1202005,0.626896203,-0.0425945185
86731.649537,0.301762202,0.229827285,-0.0623965427,0.00075468095,0.523555696,0.0899699181
86731.659564,0.280790178,-0.00308978271,-0.411741895,0.106289096,0.382401526,0.178456098
86731.669592,-0.121483486,0.0443918802,-0.601692805,0.192368314,0.227714196,0.221030995
86731.679619,-0.628263416,0.329609409,-0.372073902,0.267564803,0.0548710451,0.28665182
86731.689647,-0.79650679,0.505652936,-0.0423860203,0.351681292,-0.152092516,0.43011418
86731.699674,-0.374168463,0.614076778,0.0898608882,0.466448098,-0.414609075,0.661518931
86731.709701,0.27359749,0.603176687,-0.134238959,0.598654032,-0.712226093,0.921560109
86731.719729,0.640724692,0.432777158,-0.453785386,0.679455161,-0.978100121,1.11316538
86731.729756,0.650463631,0.341085328,-0.384621833,0.691439629,-1.15539157,1.19287992
86731.739783,0.603720219,0.245042171,-0.16348785,0.624918938,-1.20510983,1.16850889
86731.749811,0.568210879,0.0948145651,0.0868769039,0.487393588,-1.10036778,1.05062854
86731.759838,0.480165553,0.00511887738,0.298656199,0.294663817,-0.864499569,0.860917807
86731.769865,0.308846023,-0.0435895509,0.303824541,0.13310419,-0.52462399,0.64595592
86731.779893,0.0210663881,-0.0998749172,0.131305828,0.0502761602,-0.136978015,0.439929515
86731.789920,-0.368374317,-0.107040717,-0.108526426,0.0288741998,0.229709163,0.284285337
86731.799948,-0.624484701,-0.0889348594,-0.168278591,0.0546893477,0.501266122,0.220279053
86731.809975,-0.611467545,-0.107502124,-0.2146832,0.123803176,0.613529563,0.220950171
86731.820002,-0.50684989,0.0614441373,-0.361262585,0.145573452,0.5647825,0.261855245
86731.830030,-0.343819429,0.205267283,-0.242156898,0.139278531,0.420926005,0.328938395
86731.840057,-0.0170660116,0.182407362,0.060762804,0.116131939,0.242790118,0.377552003
86731.850084,0.318036753,0.250321353,0.366294734,0.0657135099,0.0660550296,0.394753903
86731.860112,0.555949437,0.277867313,0.604561054,0.0224680286,-0.0724573135,0.356315702
86731.870139,0.673344521,0.282291632,0.864604321,-0.0698312744,-0.154893339,0.292713016
86731.880166,0.830134115,0.373095208,1.05056762,-0.12953642,-0.174073949,0.252655625
86731.890194,0.991707145,0.446379055,1.03325701,-0.138588235,-0.128506199,0.261452854
86731.900221,1.00293501,0.462739384,0.980545407,-0.116400108,-0.0528287515,0.24683769
86731.910249,0.793966166,0.401958825,0.953695394,-0.136927754,0.0327061228,0.18738848
86731.920276,0.700480803,0.254640824,0.990129228,-0.148313567,0.0908485204,0.137880057
86731.930303,0.429613542,-0.0979965561,0.793743317,-0.129545465,0.0900264084,0.101014435
86731.940331,0.0698341636,-0.280400996,0.493805261,-0.0906366855,0.0225578807,0.0800718814
86731.950358,-0.0522847706,-0.287093114,0.370410937,-0.0688914433,-0.0912903845,0.0588358305
86731.960385,-0.085678561,-0.279429228,0.355651759,-0.0726001635,-0.230440289,0.0117482115
86731.970413,-0.179274928,-0.273491289,0.336197117,-0.11426691,-0.363711268,-0.0560686551
86731.980440,-0.166776882,-0.309206015,0.343201443,-0.163566545,-0.488274783,-0.123849034
86731.990468,-0.0648862406,-0.430623998,0.279658653,-0.196641415,-0.580569804,-0.173165172
86732.000495,0.0443444974,-0.472652437,0.25581659,-0.229313612,-0.651501,-0.20780544
86732.010522,0.12885902,-0.436007591,0.232599965,-0.293869704,-0.666993916,-0.225349545
86732.020550,0.239003877,-0.358623249,0.280144975,-0.333414435,-0.627257705,-0.248744354
86732.030577,0.179168599,-0.203541409,0.167159232,-0.337000668,-0.542316973,-0.279491365
86732.040604,0.0243886644,-0.139761595,0.0945785644,-0.333561987,-0.427687585,-0.297630429
86732.050632,0.101001474,-0.269088086,-0.0665600921,-0.279881716,-0.305072993,-0.307588249
86732.060659,0.242904063,-0.354980947,-0.433310168,-0.191124946,-0.212933734,-0.32349664
86732.070687,0.237439733,-0.346453284,-0.783865481,-0.0845732018,-0.144748285,-0.331742853
86732.080714,0.162638686,-0.279762917,-0.853393191,0.0115277637,-0.068170689,-0.322942436
86732.090741,0.155548508,-0.214786514,-0.728876585,0.053343121,-0.0131513802,-0.319278717
86732.100769,0.211259363,-0.00890080708,-0.568980622,-0.218127266,0.100134701,-0.365538627
86732.110796,0.239748156,0.639858358,1.47425598,-0.529086471,0.191427588,-0.418996274
86732.120824,-0.249622557,0.103211733,1.35227269,-0.638189018,0.0971684679,-0.406352639
86732.130851,-0.281813201,-0.905897139,-0.749884301,-0.644900978,0.0244279522,-0.438813657
86732.140878,-0.0343164034,-0.664709817,-1.2072189,-0.511474729,0.0219157916,-0.469954789
86732.150906,0.0107035456,-0.352609505,-1.22507429,-0.37617442,0.0629649609,-0.438267171
86732.160933,0.116652047,-0.383977142,-1.06794546,-0.276849449,0.110704787,-0.38174504
86732.170960,0.431258387,-0.186945736,-1.01811438,-0.162152678,0.141123414,-0.323700368
86732.180988,0.477379685,-0.00207176477,-1.01147947,-0.0604526885,0.151885241,-0.271147668
86732.191015,0.236499749,0.14827417,-0.778081637,-0.00157179346,0.17413649,-0.235577419
86732.201043,0.00492496225,0.371716211,-0.345358329,0.0406965651,0.202761739,-0.2385021
86732.211070,-0.409000524,0.663435267,-0.0644008682,0.013626867,0.209557071,-0.273055583
86732.221097,-0.565521677,0.741457395,0.236069102,-0.105002046,0.188110635,-0.280444771
86732.231125,-0.219491842,0.498093825,0.482483072,-0.223933756,0.135003999,-0.265379548
86732.241152,-0.0184091151,0.228112919,0.341538478,-0.293199658,0.0690492168,-0.237041101
86732.251180,0.179962088,0.0989490711,-0.242444482,-0.263995945,0.0111779273,-0.191468552
86732.261207,0.419674917,0.0014896175,-0.602952449,-0.179865897,-0.013443796,-0.0933284014
86732.271234,0.552606848,-0.24838801,-0.532986348,-0.0869154483,-0.00648176018,0.00127746118
86732.281262,0.458175145,-0.179167357,-0.340869201,-0.0146100968,0.0421198644,0.0406765342
86732.291289,0.224515406,-0.00660948127,-0.0697515816,0.021009149,0.0916096568,0.0537478589
86732.301317,0.181706995,-0.124994599,0.145926474,-0.00449248217,0.0957309008,0.046174895
86732.311344,0.147866758,-0.0605774375,0.273759658,-0.0661060438,0.0722375587,0.0204128064
86732.321371,0.129759001,0.00414575804,0.489036732,-0.151468083,0.0458727889,0.00352490274
86732.331399,0.161507234,-0.122870008,0.64031918,-0.21909292,0.0153287305,-0.0186752081
86732.341426,0.0859549668,-0.0595633651,0.511378328,-0.281156301,-0.0334449336,-0.0418172777
86732.351453,0.000908895006,-0.0211473809,0.230305716,-0.31847918,-0.0946286619,-0.0361298323
86732.361481,0.0613401655,-0.111278172,0.039480362,-0.310574383,-0.149110004,-0.0150881968
86732.371508,0.0165752872,-0.0497720754,-0.121223995,-0.284883648,-0.201150313,-0.0118633751
86732.381536,-0.131060219,0.126790141,-0.203844995,-0.30263415,-0.243873805,-0.0385130942
86732.391563,-0.135910655,0.200533532,-0.131167297,-0.333839208,-0.300294757,-0.0602500848
86732.401590,-0.102261155,0.246979605,-0.0302571911,-0.402942121,-0.353129208,-0.111862674
86732.411618,-0.0726502987,0.424173434,0.0261117619,-0.503789663,-0.407403618,-0.196763441
86732.421645,0.0495282202,0.398026747,0.0880155526,-0.608126938,-0.420664579,-0.286549538
86732.431673,0.0166654497,0.158982173,0.282285494,-0.705455363,-0.383604288,-0.373489767
86732.441700,0.0933420083,-0.121425819,0.425367101,-0.780756235,-0.289400816,-0.429012954
86732.451727,0.292292217,-0.491357978,0.470390484,-0.808780432,-0.158436671,-0.450406641
86732.461755,0.403694052,-0.633785614,0.324062443,-0.822038174,-0.0441271402,-0.445848107
86732.471782,0.575454275,-0.543154216,-0.0135953946,-0.785605073,0.0428762026,-0.428556472
86732.481810,0.806771798,-0.486768239,-0.311487039,-0.697215021,0.210491031,-0.365571916
86732.491837,0.791174562,-0.607576346,-0.19758535,-0.490638673,0.44529289,-0.269624084
86732.501865,0.165069712,-0.327055414,-0.424833432,-0.337261379,0.619359195,-0.191658437
86732.511892,-0.690095457,0.175335341,-0.644626522,-0.254182458,0.730216503,-0.0898295492
86732.521919,-0.991845165,0.227409593,-0.469164157,-0.144332141,0.747898817,0.0248259306
86732.531947,-0.798246912,0.170686127,-0.641350861,0.0404190645,0.641878366,0.174799979
86732.541974,-0.483352695,0.0455420001,-1.06523971,0.258504003,0.437207788,0.305648804
86732.552002,-0.012101101,0.185808914,-1.29914549,0.406418353,0.176563963,0.414618164
86732.562029,0.370466722,0.188414676,-1.35231302,0.545636714,-0.0248575732,0.472712368
86732.572056,0.549473957,0.107811628,-1.10703185,0.647235215,-0.119385138,0.490913987
86732.582084,0.67401526,-0.0240627752,-0.713221919,0.648099959,-0.129581049,0.455269992
86732.592111,0.760546857,0.147719039,-0.35970425,0.517794132,-0.0683318079,0.367277801
86732.602139,0.751539083,0.30190983,-0.0371212316,0.317360401,0.10320133,0.264762074
86732.612166,0.65867251,0.272104456,0.378268665,0.0713199899,0.358840823,0.13467893
86732.622193,0.315652269,0.329632206,0.654915276,-0.1298749,0.634778917,0.0162968896
86732.632221,0.207089164,0.252351142,0.856792186,-0.343527526,0.869971216,-0.0775118917
86732.642248,0.181800921,0.4719802,1.1280612,-0.585650146,1.01558852,-0.158132434
86732.652276,0.106723276,0.6944915,1.36898066,-0.781047344,1.04567373,-0.231588274
86732.662303,-0.139268733,0.545950459,1.28878309,-0.825814843,0.96844691,-0.260647118
86732.672330,-0.767981172,0.241812651,1.05024614,-0.800321996,0.874610424,-0.289199919
86732.682358,0.142670212,0.178137466,0.656974547,-0.623611391,0.739370823,-0.263065785
86732.692385,0.683305358,0.126608647,-0.0541764113,-0.392856717,0.527660966,-0.171809629
86732.702413,0.76603486,0.239573493,-0.634048429,-0.166697636,0.300356716,-0.0825231671
86732.712440,0.959065835,0.352078723,-0.632210108,-0.00780838449,0.116330981,0.00898731221
86732.722468,0.956696768,0.172560068,-0.274627088,0.0905333683,-0.0257577207,0.0572525784
86732.732495,0.856265824,0.118433268,-0.120249012,0.118795902,-0.141478717,0.0775794238
86732.742522,0.846002642,-0.0650946227,-0.150914784,0.140229017,-0.224843383,0.0549236462
86732.752550,0.745539696,-0.101316385,-0.256218741,0.186990127,-0.250084311,0.0416693576
86732.762577,0.615234569,-0.296693922,-0.21743396,0.259684056,-0.239732325,0.0367683433
86732.772605,0.670932784,-0.19789427,-0.109241296,0.274308801,-0.245470643,0.073551923
86732.782632,0.969749653,-0.0470940519,0.00262158068,0.274005979,-0.273960352,0.12427476
86732.792659,1.06251715,0.139645969,0.0211959328,0.281456172,-0.291751862,0.212501287
86732.802687,1.13370987,0.0045850993,0.175338447,0.32920295,-0.295834988,0.31095463
86732.812714,0.860553292,-0.0392831955,0.182713359,0.37536031,-0.288036436,0.360112309
86732.822742,0.472857312,0.0429463211,0.235834124,0.428770006,-0.280609161,0.351983547
86732.832769,0.374109499,-0.0514865512,0.194402044,0.441743612,-0.260190159,0.31362763
86732.842797,0.364778922,-0.21541893,0.362523983,0.361344367,-0.239697427,0.245918915
86732.852824,0.430683291,-0.35544999,0.533878329,0.246395677,-0.191395134,0.149914086
86732.862851,0.303527714,-0.325310835,0.75594404,0.132985756,-0.102585897,0.0610374734
86732.872879,0.190570009,-0.411104693,1.07481476,0.0873085633,-0.00470780488,0.0257063769
86732.882906,0.153392792,-0.44718164,1.08016898,0.0374829508,0.0329093449,0.00661763921
86732.892934,0.201785688,-0.288018101,0.889272314,0.0411610417,0.0381786749,0.0215880666
86732.902961,0.346603287,-0.3392633,0.72611355,0.0747901052,0.000105059822,0.0437817872
86732.912989,0.404311161,-0.211410206,0.476284802,0.108580828,-0.0732426569,0.0541606583
86732.923016,0.484903797,-0.119015543,0.342114232,0.165601492,-0.132244736,0.0684469193
86732.933043,0.589664148,-0.186299401,0.316665903,0.190103114,-0.188055515,0.0609775521
86732.943071,0.457957666,-0.0616366734,0.250044436,0.185869217,-0.223461986,0.0604113638
86732.953098,0.264668388,-0.083700064,0.299306772,0.172243953,-0.228130788,0.0498074554
86732.963126,0.190883149,-0.0339393228,0.218885912,0.155324623,-0.218417436,0.0403391197
86732.973153,0.176893092,-0.0781717016,0.152742584,0.149375126,-0.202023536,0.0388450846
86732.983181,0.0504093367,-0.143409541,0.0181523273,0.143111363,-0.187430203,0.0302635804
86732.993208,-0.201904291,-0.0164439616,-0.0143079268,0.101477116,-0.187963128,0.0167107526
86733.003235,-0.507839486,0.061219891,-0.0439922865,0.0909949094,-0.189103216,0.000417266972
86733.013263,-0.606522563,0.0811457764,-0.181775786,0.0462676547,-0.201095164,-0.00835917983
86733.023290,-0.632474458,0.126688452,-0.189617147,-0.0119858012,-0.229035974,-0.0127704395
86733.033318,-0.351215092,0.166686354,-0.549670941,-0.0179121327,-0.281402767,-0.00860978384
86733.043345,-0.0315951069,0.0776089075,-1.12968266,0.0233495533,-0.326292217,0.0100051798
86733.053373,0.263840796,-0.19007713,-1.54415661,0.0823782533,-0.327175856,-0.0067522293
86733.063400,0.312151567,-0.195047064,-1.67914142,0.0998741537,-0.273203164,-0.0651385784
86733.073428,0.265450972,-0.144523174,-1.53284436,0.0815191194,-0.162323803,-0.110862657
86733.083455,0.351854449,-0.159011654,-1.22376613,0.0401066951,-0.0231368802,-0.127058923
86733.093482,0.462667707,-0.0291017101,-0.962837316,0.0565722212,0.092159085,-0.0915856287
86733.103510,0.632995486,0.0514065265,-1.02399993,0.0977601409,0.166647971,-0.0299683325
86733.113537,0.743259184,0.156045991,-0.882730929,0.16854775,0.214168072,0.04176737
86733.123565,0.789103382,0.147851625,-0.562822099,0.303423017,0.211234868,0.121908009
86733.133592,0.586280168,-0.0183385797,-0.412667193,0.434830308,0.16989091,0.167176694
86733.143620,0.42081952,-0.125421017,0.0236789818,0.471779257,0.0925098211,0.153560489
86733.153647,0.544375465,-0.13184463,0.420937594,0.446884036,0.0439462848,0.114608288
86733.163674,0.422562893,-0.2561608,0.846724965,0.405286252,0.0202673189,0.0448377281
86733.173702,0.06713254,-0.171954595,1.0624755,0.348101795,0.0160792321,-0.0188810639
86733.183729,-0.0733204348,-0.129084134,1.32291391,0.231354937,0.0248189289,-0.0665647015
86733.193757,-0.204536064,0.071359236,1.63208741,0.129520461,0.0392833538,-0.078777954
86733.203784,-0.268672235,0.142976867,1.75304954,0.112679169,0.0581960604,-0.0445637889
86733.213812,-0.405048535,-0.0288763129,1.7171786,0.113956422,0.0390849486,0.01663219
86733.223839,-0.547310496,-0.0853047227,1.52501118,0.123136871,0.0122285681,0.0414443314
86733.233867,-0.659644424,-0.0111478919,1.55897658,0.0601765439,-0.0106099024,0.0649603084
86733.243894,-0.61944057,-0.332314138,1.76329679,-0.0192439798,-0.0222234149,0.0692285523
86733.253921,-0.601765505,-0.561710594,1.80922326,-0.100666933,-0.0456318036,0.0279948339
86733.263949,-0.748906981,-0.58401204,1.67726101,-0.149451524,-0.0815487877,-0.0260771886
86733.273976,-0.755861841,-0.607322554,1.28857967,-0.124179982,-0.141755402,-0.0918423608
86733.284004,-0.812710321,-0.379032635,0.839413766,-0.11756815,-0.186674416,-0.117216162
86733.294031,-0.69546546,-0.0774500637,0.792634479,-0.0723569989,-0.183532149,-0.128088504
86733.304059,-0.776582266,0.41875287,0.658644526,-0.0218131319,-0.150278598,-0.0831026658
86733.314086,-0.481172867,0.32255339,0.465228571,0.0635283962,-0.150490582,-0.0168208405
86733.324114,-0.15748165,0.374487904,0.146661803,0.0471467637,-0.197524667,0.0348271728
86733.334141,-0.138947648,0.563545445,0.337009018,-0.0423277244,-0.249178529,0.0663403571
86733.344168,-0.0671465868,0.405608617,0.41669981,-0.0841896906,-0.249590516,0.0976165161
86733.354196,0.0434652669,0.309081914,0.350232657,-0.0463019609,-0.282766581,0.132281289
86733.364223,0.0158562522,0.3075105,-0.287054024,0.0775211826,-0.305970967,0.162399516
86733.374251,0.127442431,0.36143458,-0.469127332,0.155966178,-0.305721968,0.222330227
86733.384278,0.241628709,0.422430097,-0.131433254,0.109845296,-0.278698862,0.276537001
86733.394306,0.350087001,0.569302036,0.120930565,0.112560391,-0.245478064,0.344314694
86733.404333,0.330441257,0.411954479,-0.152930216,0.144683704,-0.187635005,0.373275787
86733.414361,0.0649492228,0.106894294,-0.203202605,0.108850338,-0.0862564594,0.376787156
86733.424388,-0.193697256,-0.19813765,0.168994046,0.0938290432,-0.00724979211,0.366234392
86733.434416,-0.116370308,-0.390679233,-0.119869657,0.0138471276,0.0574506409,0.357921332
86733.444443,-0.0588376446,-0.639159927,-0.333465062,-0.0230730735,0.164037526,0.36758247
86733.454470,-0.218562525,-0.713635322,-0.154168817,-0.00295475521,0.276604563,0.419532508
86733.464498,-0.3244011,-0.413136053,-0.138778941,0.0331435949,0.355342805,0.484930933
86733.474525,-0.409826381,0.0106973716,-0.135545366,0.147323683,0.417169154,0.56489265
86733.484553,-0.675620211,0.148802943,-0.14387188,0.284163833,0.432689518,0.611819386
86733.494580,-0.900947554,0.340364503,-0.0678407796,0.288971096,0.418691933,0.617039204
86733.504608,-0.803068048,0.424693147,0.493897616,0.218320101,0.372818977,0.585186958
86733.514635,-0.781238348,0.431174472,0.711450234,0.224710882,0.301826566,0.550900877
86733.524663,-0.816797737,0.352122416,0.504020951,0.339744538,0.205870748,0.548702717
86733.534690,-0.537340744,0.170211824,0.211468914,0.440737456,0.111586846,0.548758686
86733.544718,-0.26746359,0.283868891,0.414129083,0.484137654,0.0351485312,0.505080998
86733.554745,-0.275109301,0.514926156,0.672991616,0.459416062,0.0230527204,0.430667967
86733.564773,-0.344119252,0.575201652,1.16561965,0.354083806,0.0578240156,0.293246716
86733.574800,-0.733427161,0.837994327,1.66634857,0.220402956,0.0748274997,0.160729975
86733.584827,-1.02857236,0.720712056,1.74231304,0.218209043,0.0988385603,0.0445314646
86733.594855,-0.853224045,0.322090047,1.27059744,0.150385529,0.0799743235,-0.0474328101
86733.604882,-1.21851998,0.12096286,1.07665308,0.073260121,0.063111186,-0.133197248
86733.614910,-1.4266078,-0.0477700514,1.24056354,0.0707053542,0.0772419199,-0.163750365
86733.624937,-1.17489733,0.178785884,1.3175895,-0.045556277,0.0417949818,-0.183581591
86733.634965,-1.59629523,0.859868817,1.50731478,0.0146601908,0.0155713679,-0.164685935
86733.644992,-1.59276691,0.982906656,0.846157979,0.100515708,0.0272109788,-0.0623643585
86733.655020,-1.45844203,0.811767049,0.81426588,0.136428699,0.0895430669,0.0498924106
86733.665047,-1.23349433,0.530799579,0.695683925,0.356410325,0.117173359,0.14631483
86733.675075,-0.329384222,-0.166488347,-0.280392228,0.266173631,0.0589380153,0.180140957
86733.685102,-0.430116816,-0.675552845,-0.0447621018,0.283082306,0.0128272464,0.108072624
86733.695130,-0.468282844,-1.06693752,-0.471936544,0.365037113,-0.0139564304,0.0798407197
86733.705157,-0.353561253,-1.17209272,-0.547519316,0.288256049,-0.0730455816,0.092335999
86733.715185,-0.161113741,-0.510604713,0.294347103,0.245309368,-0.215014964,0.158313155
86733.725212,0.29551169,0.352312751,0.554016861,0.404726475,-0.224506199,0.162211493
86733.735240,0.248674463,-0.22344584,0.107484808,0.327775478,-0.221114933,0.150365219
86733.745267,-0.138714059,-0.480255313,-0.13280688,0.321665406,-0.176600218,0.0622023381
86733.755295,0.0813095521,-0.118279904,-0.293319514,0.387043327,-0.153613657,0.0078418944
86733.765322,0.488818523,-0.436448686,-0.255208687,0.390861243,-0.237108827,-0.0127379494
86733.775349,0.58143481,-0.519874719,-0.423100325,0.365812898,-0.305291593,-0.045638375
86733.785377,0.668599518,-0.351722822,-0.41501814,0.249495864,-0.360800385,-0.0918751135
86733.795404,0.561939106,-0.161726247,-0.0257160405,0.0805577189,-0.404853612,-0.130130082
86733.805432,0.372688709,-0.00826828133,0.0599818828,-0.00167450332,-0.402459651,-0.214123428
86733.815459,0.217816127,-0.274505289,-0.254873756,-0.0859851241,-0.399083287,-0.274995327
86733.825487,0.394976419,-0.76528543,-0.527848985,-0.327170044,-0.385039121,-0.251121402
86733.835514,1.08354328,-1.51792751,0.200903096,-0.788579464,-0.36841619,0.01320027
86733.845542,1.87207441,-2.4265076,0.201971018,-0.862137318,-0.606219947,0.223976955
86733.855569,0.941054304,-0.896541282,-2.12508311,-0.768520534,-0.840514779,0.300201684
86733.865597,0.265990266,0.429828829,-1.92072373,-0.750151396,-0.994719744,0.292214304
86733.875624,0.569676495,0.696678269,-1.03472533,-0.798415601,-1.03938901,0.298780352
86733.885652,1.36034669,0.546991493,-0.208830382,-0.655633152,-1.02609074,0.265999228
86733.895679,0.760235965,0.662795508,-0.0688338823,-0.520425498,-0.950758159,0.139625058
86733.905707,0.319843145,0.777672764,0.0866676451,-0.389686167,-0.833411813,-0.0493174382
86733.915734,0.301123977,0.753595723,0.00212181446,-0.224726483,-0.699153364,-0.211533502
86733.925762,0.449148739,0.557853152,0.10547756,-0.0694532841,-0.54126811,-0.311127752
86733.935789,0.509560757,0.638081192,0.454672105,-0.0476478525,-0.348089874,-0.34540984
86733.945817,0.500242017,0.856250188,0.994624786,-0.162563786,-0.126370013,-0.305498898
86733.955844,0.469885749,0.980234003,1.54393157,-0.287701488,0.0982899964,-0.201303765
86733.965872,0.42532443,1.03890743,1.59162388,-0.401529253,0.279512525,-0.0968383476
86733.975899,0.380704879,0.900100143,1.36662679,-0.462632537,0.376664102,-0.0484993123
86733.985927,0.281701995,0.85149861,0.570505639,-0.339104205,0.387181193,-0.0389827751
86733.995954,0.332754502,0.746475443,-0.46384793,-0.19668074,0.34277457,-0.0348570049
86734.005982,0.193383733,0.358075479,-0.860832401,-0.115597077,0.264984429,-0.0646441951
86734.016009,-0.321020956,0.0728097636,-0.975811949,-0.121709302,0.15764147,-0.143273756
86734.026037,-0.66256148,0.176455651,-1.06519645,-0.0906227529,0.0336681306,-0.228982538
86734.036064,-0.701984267,0.144306764,-1.10997784,-0.014379113,-0.0988398418,-0.307008654
86734.046092,-0.465301928,-0.0853688375,-1.00490302,0.0187865626,-0.215008527,-0.385884553
86734.056119,0.00554872017,0.0349612406,-0.940325625,0.0342643224,-0.277857274,-0.45723623
86734.066147,0.479208873,0.376874105,-0.930739466,0.0421297029,-0.257827371,-0.479347914
86734.076174,0.758257797,0.41552978,-0.615672815,-0.0108517557,-0.144104257,-0.46906358
86734.086202,0.467470504,0.381139836,-0.296152107,-0.0383177325,0.0399774238,-0.456071615
86734.096229,-0.0162161716,0.224827942,-0.296451967,-0.0688953549,0.260914594,-0.441526771
86734.106257,-0.21950872,0.0564540374,-0.479413163,-0.0529179834,0.487733364,-0.425137669
86734.116284,-0.241472203,-0.0951461351,-0.875112855,0.00110290735,0.677676678,-0.391638577
86734.126312,-0.184598004,-0.209173241,-1.31556705,0.0592367835,0.807595015,-0.339386553
86734.136339,-0.22867132,-0.241857476,-1.85935361,0.00791553967,0.851919055,-0.282981604
86734.146367,-0.36983964,-0.254135468,-2.02146608,-0.134963572,0.79034251,-0.250789046
86734.156394,-0.569047988,-0.182234271,-2.16770469,-0.206764534,0.613265216,-0.208696708
86734.166422,-0.402024073,-0.150861373,-2.52316472,-0.245152935,0.370285839,-0.154090717
86734.176449,-0.0054704673,-0.221722122,-2.53517899,-0.220638543,0.130971774,-0.128021568
86734.186477,0.209277907,-0.164831611,-2.38286135,-0.20624122,-0.0558580235,-0.134819821
86734.196504,0.108123982,-0.0966220894,-1.98642049,-0.186495751,-0.176268592,-0.17541118
86734.206532,-0.0741803578,-0.0702533571,-1.44269179,-0.180103093,-0.229476154,-0.222247139
86734.216559,-0.00650485185,-0.13663707,-0.8720938,-0.199159876,-0.226120561,-0.253196001
86734.226587,0.0861409178,-0.204392692,-0.372730904,-0.227345169,-0.182645798,-0.270164609
86734.236614,0.0705623135,-0.417188982,0.088453944,-0.277228326,-0.11477913,-0.259049118
86734.246642,0.159720972,-0.834703396,0.556684035,-0.27117762,-0.0228279028,-0.235390902
86734.256669,0.181545265,-1.09158557,0.64438453,-0.214928448,0.0719143227,-0.215764999
86734.266697,-0.0274667567,-1.07982353,0.535509145,-0.0940936506,0.152711958,-0.214579895
86734.276724,-0.351577422,-1.02267891,0.398475002,0.0595824644,0.209098279,-0.200426787
86734.286752,-0.242146888,-0.91716241,0.431490552,0.168449029,0.23271732,-0.160617054
86734.296779,-0.164487382,-0.653227031,0.548764348,0.233445346,0.229596362,-0.103597984
86734.306807,-0.279690875,-0.37310266,0.741575907,0.289178908,0.200506389,-0.0441964455
86734.316834,-0.472017354,0.0411983814,0.839341869,0.291911036,0.142257988,-0.00332517736
86734.326862,-0.622963922,0.506701203,0.986893899,0.268828869,0.0701507702,0.0320120417
86734.336889,-0.513429269,0.797149983,1.0856401,0.225722179,-0.00171329663,0.0659889132
86734.346917,-0.369275284,0.965972765,1.18109604,0.165612757,-0.053908322,0.0974877253
86734.356944,-0.376267408,0.923966026,1.28722651,0.0939521492,-0.0870170072,0.130752727
86734.366972,-0.369489511,0.667864044,1.37600895,0.0623758547,-0.0964461938,0.188438401
86734.376999,-0.209437408,0.318409897,1.2713772,0.0524164289,-0.0781180561,0.286340982
86734.387027,-0.0472402554,-0.173220395,1.04290922,0.0633995682,-0.0381392129,0.389381081
86734.397054,-0.116958446,-0.572652844,0.772481918,0.166885495,0.00543755665,0.462705106
86734.407082,-0.289117167,-0.887128726,0.45479544,0.266875982,0.0382927097,0.516522229
86734.417109,-0.221737794,-1.13199591,0.424395625,0.310091913,0.0455817804,0.55548507
86734.427137,-0.214580908,-1.04844698,0.380870956,0.299952179,0.00372301391,0.577278256
86734.437164,-0.306333382,-1.08256413,0.243679577,0.257517368,-0.104962453,0.607191145
86734.447192,-0.0226993961,-1.19090132,0.271632583,0.272856116,-0.266738027,0.690439701
86734.457219,0.260940947,-1.09931916,0.313158771,0.298972398,-0.460124284,0.788055778
86734.467247,0.266369694,-0.704538262,0.516031706,0.290835112,-0.644598246,0.838665962
86734.477274,0.261559882,0.0379455536,0.770932935,0.316382289,-0.78499794,0.834661901
86734.487302,0.269728284,0.734877652,0.732516402,0.351679564,-0.856076658,0.8024773
86734.497329,0.445089161,1.33471745,0.943655646,0.279372334,-0.865191877,0.78470099
86734.507357,0.595773717,1.61017105,1.31292267,0.177286193,-0.837991416,0.791658759
86734.517384,0.656069415,1.60892222,1.52307407,0.122536927,-0.778213024,0.815208256
86734.527412,0.871128024,1.48300627,1.38859079,0.143395603,-0.681984246,0.819583297
86734.537440,0.851130068,1.25431442,1.09359136,0.163517654,-0.552554607,0.776900589
86734.547467,0.681413407,0.87327205,1.02379886,0.0665351748,-0.404963017,0.69745636
86734.557495,0.57222954,0.423561184,1.05654319,0.0105840275,-0.267479181,0.625146985
86734.567522,0.571796702,0.162243439,0.92615623,0.0912375897,-0.154508695,0.565360904
86734.577550,0.502236405,0.167429171,0.772996881,0.160379916,-0.059610419,0.478092849
86734.587577,0.262520763,0.423197611,0.765642427,0.169606179,0.0307439789,0.324403405
86734.597605,-0.0900001505,0.922078459,0.792325851,0.137305498,0.118206717,0.112312742
86734.607632,-0.49227396,1.2325705,0.820949304,0.129962891,0.198372662,-0.116485819
86734.617660,-0.808610485,1.20683502,0.845469997,0.115265965,0.272472441,-0.302463949
86734.627687,-0.732650842,1.07076417,0.771572986,0.111977756,0.334846079,-0.4152475
86734.637715,-0.442343078,0.862573692,0.372732073,0.0368803479,0.369579285,-0.435005754
86734.647742,-0.128575088,0.49122562,0.175189978,-0.0400466584,0.368567556,-0.399672538
86734.657770,0.0607907149,0.221066252,-0.00706920773,-0.0630316064,0.340441644,-0.368726343
86734.667797,0.171129305,0.171832046,-0.429731725,-0.062774606,0.305380881,-0.389531493
86734.677825,0.200849905,0.327941988,-0.837460878,-0.0668820068,0.275405914,-0.471866041
86734.687852,0.247859274,0.399222752,-0.986817327,-0.0739878491,0.260295153,-0.591454506
86734.697880,0.259138354,0.263787861,-0.964462872,-0.114167228,0.250060618,-0.682416618
86734.707908,0.360569123,0.0451260397,-0.877752556,-0.194669247,0.256328642,-0.681727409
86734.717935,0.540068269,-0.306023732,-0.753108524,-0.262153238,0.269732594,-0.60619694
86734.727963,0.631694706,-0.698097415,-0.699714788,-0.31402123,0.287696153,-0.51474452
86734.737990,0.798151781,-0.829604612,-0.712483668,-0.344552517,0.30175072,-0.461135089
86734.748018,0.761294461,-0.710899029,-0.699940413,-0.296382844,0.306194991,-0.452264637
86734.758045,0.572125569,-0.731654963,-0.797360338,-0.216071486,0.293798774,-0.468519777
86734.768073,0.672074866,-1.00526995,-0.609582097,-0.154833958,0.263807863,-0.443916678
86734.778100,1.06308209,-1.20383635,-0.468401356,-0.129685462,0.224450335,-0.349311084
86734.788128,1.2802254,-1.28443921,-0.35648821,-0.126372755,0.17807804,-0.190066561
86734.798155,1.46688209,-1.23336194,-0.101598672,-0.141900048,0.151271731,-0.0116720563
86734.808183,1.46994746,-1.02674412,0.0923497824,-0.178680331,0.146502599,0.104512237
86734.818210,1.08043501,-0.712236123,0.134084645,-0.195819899,0.156241506,0.146711618
86734.828238,0.752941351,-0.483234987,0.0579553454,-0.196587965,0.157629281,0.15012978
86734.838266,0.628064971,-0.467838826,-0.0842541542,-0.168513983,0.133765757,0.135504231
86734.848293,0.502407451,-0.571627227,-0.209966108,-0.15326871,0.0922127217,0.110725395
86734.858321,0.446697766,-0.611759295,-0.181001879,-0.119183995,0.0407114476,0.10880179
86734.868348,0.553557792,-0.688087916,-0.287159822,-0.0837136135,0.00148388348,0.130215466
86734.878376,0.57449259,-0.856727012,-0.267042332,-0.0648461878,-0.0177800916,0.16452843
86734.888403,0.534280772,-0.811014331,-0.196200033,-0.0432849638,-0.014278302,0.181724459
86734.898431,0.323404563,-0.623274522,-0.175589207,-0.0200102665,0.0110262558,0.175793603
86734.908458,0.0347285644,-0.429122142,-0.201051565,-0.018783614,0.0401101038,0.135149494
86734.918486,-0.383832363,-0.194036169,-0.241233353,-0.0334594958,0.0589607581,0.0903820395
86734.928513,-0.473970534,-0.105159178,-0.268140065,-0.0394819677,0.0607147142,0.0671289116
86734.938541,-0.419512602,-0.107152799,-0.404023868,-0.0296506435,0.0545835868,0.0482292548
86734.948569,-0.442431852,-0.150768179,-0.347529828,-0.0328264609,0.0490655154,0.0203584749
86734.958596,-0.466906222,-0.149770582,-0.261126971,-0.0392984748,0.0479350053,-0.00324405637
86734.968624,-0.436842507,-0.17979539,-0.277054023,-0.0557669327,0.0423447639,-0.0149244135
86734.978651,-0.341731005,-0.24466183,-0.254718273,-0.0448493026,0.0367824845,-0.0182895847
86734.988679,-0.221291512,-0.322438824,-0.305760478,-0.0463438705,0.0361321419,-0.0195117109
86734.998706,-0.24076274,-0.437754106,-0.310379954,-0.0490243398,0.0425586142,-0.022740528
86735.008734,-0.361901613,-0.517292447,-0.253167536,-0.0464754291,0.0465589501,-0.0261874571
86735.018761,-0.379662092,-0.626945392,-0.151805595,-0.043472182,0.043754641,-0.0190027803
86735.028789,-0.284887713,-0.82041885,-0.195810741,-0.0283323787,0.0388301909,-0.000894615427
86735.038817,-0.241463435,-0.935441506,-0.245453601,-0.0168725289,0.0282246843,0.024077313
86735.048844,-0.232165153,-0.872946252,-0.27030981,0.0332939662,0.012358102,0.0483112782
86735.058872,-0.241606132,-0.600332111,-0.352874111,0.0388346761,-0.0120183434,0.041258961
86735.068899,-0.418854285,-0.317616482,-0.2354536,0.0325794406,-0.0489851497,0.00415393896
86735.078927,-0.647875806,-0.0885209083,-0.107842535,0.0468409359,-0.082714878,-0.0463188216
86735.088954,-0.641497211,0.0749809702,-0.117727385,0.0694559664,-0.101056866,-0.107198946
86735.098982,-0.511321775,0.113864499,-0.0466466004,0.0782105699,-0.0971979499,-0.164057449
86735.109010,-0.452228877,0.0734009344,0.218154091,0.0776086971,-0.0731903538,-0.208663791
86735.119037,-0.434630019,0.0304137334,0.342395387,0.059292011,-0.0406060442,-0.232214123
86735.129065,-0.430207526,0.0628471725,0.350797889,0.0384280086,-0.0215220992,-0.240230516
86735.139092,-0.353965267,0.0563739579,0.333035438,0.0001911422,-0.0235157423,-0.23106125
86735.149120,-0.215459883,0.074898443,0.286432093,-0.0292082913,-0.0444921292,-0.217977405
86735.159147,-0.213177764,0.128003974,0.172356216,-0.0400460251,-0.0724438652,-0.211028412
86735.169175,-0.260358471,0.131482719,0.118874217,-0.042440474,-0.088647604,-0.218751043
86735.179202,-0.354154506,0.0924435251,0.0956850643,-0.0317412242,-0.0881120414,-0.255022228
86735.189230,-0.684394323,0.0656890449,0.0548234771,-0.0188501924,-0.0798152313,-0.316012084
86735.199258,-0.888760711,0.144323679,0.0271235692,0.0171586741,-0.0697229132,-0.363245636
86735.209285,-0.73435677,0.201235031,-0.0760118111,0.0339957103,-0.0552374534,-0.386874795
86735.219313,-0.575495849,0.143521569,-0.0375263053,0.0511549897,-0.0400555693,-0.403793067
86735.229340,-0.606763167,0.208076203,-0.00795768101,0.0701955259,-0.0233133417,-0.43998009
86735.239368,-0.712975251,0.34226924,-0.055714873,0.0770414472,-0.019577194,-0.493274719
86735.249395,-0.747054412,0.321238764,0.0185831199,0.0895388573,-0.0255195051,-0.537109077
86735.259423,-0.672053093,0.228832283,-0.0164613055,0.0925455689,-0.0322130956,-0.542724073
86735.269451,-0.541702446,0.107510819,-0.100453009,0.071511656,-0.0335979387,-0.50896132
86735.279478,-0.470692243,-0.0266423251,-0.05610358,0.0403249785,-0.0347886384,-0.441127658
86735.289506,-0.447483071,-0.169261538,-0.064366966,0.0270059779,-0.0450159758,-0.353975713
86735.299533,-0.399628117,-0.336916883,-0.223881236,0.00871059485,-0.0802344084,-0.278087854
86735.309561,-0.388604035,-0.396869686,-0.359803034,0.00564103527,-0.133445442,-0.228772253
86735.319588,-0.333396454,-0.331655126,-0.525325604,0.00504368823,-0.204866886,-0.196718186
86735.329616,-0.100846466,-0.273891248,-0.530913049,0.00814467296,-0.264050871,-0.161923453
86735.339644,0.190176973,-0.259329457,-0.483266916,0.0121652475,-0.291059583,-0.127696514
86735.349671,0.335124446,-0.257599016,-0.34689153,-0.0093722688,-0.288039565,-0.0975037068
86735.359699,0.369972619,-0.170021709,-0.1613485,-0.0433667228,-0.256042749,-0.0630988628
86735.369726,0.319431422,-0.0846145485,0.00974631799,-0.0834209323,-0.208544448,-0.0258364528
86735.379754,0.239317509,-0.0673601564,0.17156945,-0.123970494,-0.164253682,0.0106456606
86735.389782,0.131139386,-0.0813903988,0.284939224,-0.133100599,-0.13201718,0.0326255262
86735.399809,0.0152484956,-0.0537527791,0.233397252,-0.105341412,-0.12363115,0.0258110315
86735.409837,-0.00461005108,-0.100192386,0.0571761777,-0.0841351971,-0.138422877,-0.0096806502
86735.419864,0.154219598,-0.0939686158,0.149597272,-0.0815114453,-0.158355042,-0.050165493
86735.429892,0.345241351,-0.0637625338,0.263029005,-0.0742788315,-0.168082505,-0.0756037384
86735.439919,0.329907077,0.00484776882,0.254783155,-0.0806192905,-0.15762721,-0.0815737471
86735.449947,0.253191648,0.0558074466,0.323128377,-0.0893355459,-0.123156309,-0.0787385479
86735.459975,0.124689698,0.206999769,0.400683326,-0.0852401406,-0.0868169442,-0.0770034939
86735.470002,-0.0231073924,0.333031675,0.316875162,-0.105353661,-0.0577663891,-0.0746926665
86735.480030,-0.0826079214,0.347810325,0.257456173,-0.130169526,-0.051289849,-0.0767662078
86735.490057,-0.225477419,0.441554338,0.0333826296,-0.115841724,-0.0660701245,-0.0912455469
86735.500085,-0.355376084,0.49170354,-0.201342072,-0.102364533,-0.0912622958,-0.13387771
86735.510112,-0.363033759,0.475404914,-0.304304434,-0.0824648589,-0.11756181,-0.191577479
86735.520140,-0.333474122,0.451803966,-0.438218983,-0.0326400399,-0.142324418,-0.254056036
86735.530168,-0.203500784,0.293892747,-0.536978633,0.0314310864,-0.158338532,-0.303820908
86735.540195,0.0527937979,0.0479318179,-0.55563891,0.0822130367,-0.172058076,-0.330693275
86735.550223,0.280724675,-0.0565565479,-0.461043979,0.128390923,-0.176737785,-0.336847305
86735.560250,0.409500692,0.0132683181,-0.383801749,0.138270184,-0.170551524,-0.324726462
86735.570278,0.479722522,0.0664490695,-0.164800102,0.132137731,-0.161696777,-0.290563434
86735.580306,0.578527764,0.111051926,-0.00887596489,0.116422139,-0.159887701,-0.236460537
86735.590333,0.695143242,0.136733297,0.117173258,0.0937349349,-0.160434172,-0.182354689
86735.600361,0.724825994,0.2133605,0.169487383,0.0854594335,-0.15962404,-0.129101589
86735.610388,0.791914202,0.216866133,0.159583828,0.085224539,-0.151629493,-0.0825295523
86735.620416,0.806329096,0.241205442,0.173909291,0.0835225135,-0.134348512,-0.0402366966
86735.630444,0.715315677,0.297203333,0.22835166,0.0725971609,-0.106809564,0.00482905004
86735.640471,0.574893207,0.304201741,0.300429054,0.066271089,-0.0726100504,0.0581167713
86735.650499,0.530515428,0.281650229,0.317049934,0.0573572256,-0.0374163762,0.114713475
86735.660526,0.560642417,0.342469037,0.362532166,0.0708519891,-0.00726087252,0.16618678
86735.670554,0.585020925,0.440810352,0.44035015,0.0902408734,0.0232586879,0.196665332
86735.680582,0.619854338,0.514458575,0.519798365,0.082592003,0.0582976304,0.202030003
86735.690609,0.52533598,0.676598262,0.577286093,0.0637610629,0.0898867175,0.190980271
86735.700637,0.400893461,0.923317937,0.580586888,-0.00803909078,0.106123477,0.19234249
86735.710664,0.222472538,1.13719077,0.54349196,-0.0557901002,0.085587047,0.205082506
86735.720692,0.144027947,1.22118167,0.428106755,-0.0836797953,0.0385175347,0.214924231
86735.730720,0.363503934,1.23512456,0.387565485,-0.0932474658,-0.00909339357,0.193790704
86735.740747,0.51311538,1.25119658,0.30509763,-0.0558513552,-0.020603044,0.120952196
86735.750775,0.324888372,1.23259563,0.218379132,-0.0133651467,0.0136430776,0.020255411
86735.760802,0.0988788919,1.06744306,0.300510887,0.0355949402,0.0830186903,-0.071967721
86735.770830,0.0521782233,0.845607433,0.290824775,0.0886882469,0.170480371,-0.115972199
86735.780858,0.190820093,0.597082754,0.211097158,0.108479798,0.247304037,-0.123808555
86735.790885,0.192969088,0.468565643,0.195821847,0.0955059379,0.287601113,-0.116685919
86735.800913,0.084355861,0.405269996,0.185140879,0.0762416944,0.28800112,-0.0869075283
86735.810940,0.149526033,0.28538167,0.0447346293,0.0719722584,0.247132555,-0.040369764
86735.820968,0.31400231,0.107857002,-0.0602536854,0.0514376909,0.185805559,0.017235741
86735.830996,0.444218881,-0.112820323,-0.0324076471,0.0215250645,0.1244426,0.0796354711
86735.841023,0.409683794,-0.226918704,0.00250584534,-0.0086496165,0.0702597946,0.146827295
86735.851051,0.257756618,-0.24646486,0.0591851794,-0.0513637885,0.02604945,0.2165595
86735.861079,0.109041024,-0.191707105,0.130592712,-0.103744708,-0.00735617708,0.278389037
86735.871106,0.0465524923,-0.144664893,0.287980491,-0.152167097,-0.0291826464,0.322375923
86735.881134,-0.0205251208,-0.108762573,0.389539416,-0.18696475,-0.0358959436,0.337020665
86735.891161,-0.0784176301,-0.073745912,0.441374817,-0.215202257,-0.0262054987,0.319772154
86735.901189,-0.108162122,-0.00510247424,0.488710569,-0.230268821,0.00462272111,0.276850253
86735.911217,-0.158313516,0.00430335975,0.427388962,-0.238439932,0.0492335968,0.226763934
86735.921244,-0.178604682,-0.0340389747,0.410641241,-0.258543611,0.104914442,0.178487748
86735.931272,-0.237883385,-0.0149031893,0.37377486,-0.292468041,0.1614829,0.133927733
86735.941299,-0.425542457,0.042526817,0.224022106,-0.336539894,0.216813266,0.0965420157
86735.951327,-0.651722983,0.0541618166,-0.0276613294,-0.338589191,0.24616237,0.0620511509
86735.961355,-0.825738218,-0.0926791057,-0.442228803,-0.287588865,0.246060103,0.0382201187
86735.971382,-0.803698601,-0.386599782,-0.917061069,-0.218859836,0.222018689,0.0326964557
86735.981410,-0.757854696,-0.74035506,-1.17287006,-0.134249076,0.173202142,0.0534810983
86735.991438,-0.736063574,-1.04732564,-1.23442255,-0.050058309,0.0958786011,0.0882510692
86736.001465,-0.635964857,-1.09955428,-1.22451724,0.0159638505,-0.0138681382,0.129573196
86736.011493,-0.326629809,-0.926973245,-1.20963532,0.0641958266,-0.133406788,0.162944213
86736.021520,-0.00433766388,-0.539455398,-1.07319154,0.0915667266,-0.240774259,0.160778522
86736.031548,0.0539767241,-0.0544253629,-0.737768332,0.0930780694,-0.319073588,0.100460589
86736.041576,-0.0105586573,0.34817967,-0.352000251,0.108937994,-0.341867864,-0.00481603108
86736.051603,0.0643928311,0.682284199,-0.137847797,0.15161702,-0.308897376,-0.126389593
86736.061631,0.191988918,0.735803754,0.122621587,0.179681152,-0.221450627,-0.246347681
86736.071659,0.282409778,0.60112169,0.438472666,0.213573605,-0.105550654,-0.344613016
86736.081686,0.353581017,0.449865911,0.579307954,0.256518394,0.0152205043,-0.409155786
86736.091714,0.52277592,0.24513131,0.641435033,0.27300176,0.119130127,-0.442556113
86736.101741,0.639953562,0.117759168,0.749698423,0.249443188,0.185318455,-0.447342873
86736.111769,0.662262351,0.0562825898,0.849285171,0.208321318,0.194944188,-0.414718598
86736.121797,0.752143405,-0.02768387,0.834271142,0.138293758,0.171239659,-0.360344052
86736.131824,0.889308262,-0.0912879253,0.815954564,0.07205268,0.128722563,-0.312855899
86736.141852,1.02320528,-0.0208784278,0.72355159,0.0313097835,0.113234155,-0.310312301
86736.151880,0.972532781,0.194852747,0.577321749,0.0151396012,0.146421924,-0.393900424
86736.161907,0.647716232,0.410828909,0.460903693,0.019657921,0.230867565,-0.529797018
86736.171935,0.365003671,0.393629937,0.367485989,0.0384353362,0.349752933,-0.657046556
86736.181963,0.304326207,0.0460587905,0.204047824,0.101238266,0.465816706,-0.722834349
86736.191990,0.416802101,-0.473840807,0.00253214883,0.142543107,0.547505975,-0.717067838
86736.202018,0.499207559,-0.964108797,-0.0115437228,0.1372253,0.571058452,-0.641015947
86736.212045,0.542384657,-1.22619964,-0.159721775,0.0989881605,0.528718412,-0.492125809
86736.222073,0.549848417,-1.29764926,-0.43932899,0.0419861302,0.425645322,-0.290061891
86736.232101,0.488505621,-1.37977751,-0.562539775,-0.0163887627,0.278345346,-0.0643738955
86736.242128,0.439258775,-1.41073876,-0.673753248,-0.0614097677,0.105599403,0.155046076
86736.252156,0.386262148,-1.31742305,-0.770645934,-0.0928752869,-0.0681188554,0.327575475
86736.262184,0.19948037,-1.06983799,-0.771546098,-0.106109865,-0.230521351,0.435187697
86736.272211,-0.000985211645,-0.79397055,-0.683595427,-0.0835196003,-0.377352864,0.463154078
86736.282239,-0.174608306,-0.401899241,-0.654755702,-0.02279686,-0.48311314,0.409750521
86736.292267,-0.225244999,0.0431828698,-0.567105475,0.0386920683,-0.535436511,0.313586712
86736.302294,-0.16765213,0.266307661,-0.223969499,0.0729307234,-0.528576195,0.20399338
86736.312322,-0.0647364569,0.369179094,0.220482826,0.0981463343,-0.476301283,0.116001993
86736.322350,0.0951030997,0.405231271,0.444403225,0.118725643,-0.391458571,0.0611816272
86736.332377,0.274021962,0.322672011,0.684353552,0.104520611,-0.294814587,0.0347870365
86736.342405,0.441613156,0.234613789,0.921232802,0.0970943868,-0.202374414,0.0399567671
86736.352432,0.557626722,0.234896953,0.977801661,0.0837519467,-0.128243715,0.057165049
86736.362460,0.598026026,0.224187343,0.981430957,0.051973518,-0.0767637417,0.0792303979
86736.372488,0.631078912,0.22871863,0.879070653,0.0400420241,-0.0461925231,0.107609317
86736.382515,0.605741715,0.286498472,0.656297086,0.0165145937,-0.0268939268,0.132526919
86736.392543,0.442593764,0.310806363,0.593057078,-0.0111681689,-0.0175417047,0.141330004
86736.402571,0.232286076,0.415835046,0.44163376,-0.0256083589,-0.0281735752,0.12443836
86736.412598,0.106122141,0.524964991,0.243996388,-0.0300755464,-0.0454681441,0.0873525143
86736.422626,0.106144645,0.578979818,0.0714858581,-0.0376940519,-0.0621581711,0.0358618908
86736.432654,0.100172585,0.55299329,-0.0227151052,-0.0370594189,-0.066931352,-0.0185701922
86736.442681,0.0565274315,0.485452261,-0.0574023877,-0.0312593207,-0.063429296,-0.0539976917
86736.452709,0.0952944575,0.366559011,-0.0589344195,-0.0296590272,-0.0476617888,-0.068418175
86736.462737,0.117765452,0.26689686,0.046035775,-0.0433553979,-0.0240701772,-0.0725122541
86736.472764,0.0303659122,0.22542894,0.13051497,-0.0439633988,6.20578649e-05,-0.0867937207
86736.482792,-0.0778500593,0.200109827,0.172470782,-0.0499294102,0.0190959349,-0.10814935
86736.492820,-0.113301385,0.114621199,0.214861479,-0.0478058085,0.0238795057,-0.121928528
86736.502847,-0.0902921923,-0.060386518,0.158167532,-0.0393721089,0.0193739701,-0.119791076
86736.512875,-0.0157233466,-0.232803451,0.114036129,-0.0313836932,0.00367836421,-0.106408432
86736.522903,-0.0140909961,-0.234045305,0.0480617279,-0.0256919824,-0.0281562656,-0.0967691243
86736.532930,-0.0799047268,-0.174047019,0.023967151,-0.0191379432,-0.0716829672,-0.0905471742
86736.542958,0.0219472626,-0.166416195,-0.0144622406,-0.0111151719,-0.116585992,-0.0995049924
86736.552986,0.204808141,-0.115527244,-0.0292892228,0.000784631353,-0.14671354,-0.115674108
86736.563013,0.312807839,-0.041708596,0.0196779294,0.00979623571,-0.144821092,-0.139450535
86736.573041,0.329799671,0.0233562891,0.131965753,0.00200702227,-0.114972115,-0.15562737
86736.583068,0.301358955,0.0775835539,0.259757436,-0.0175917111,-0.0646309182,-0.155454531
86736.593096,0.292013984,0.0671772011,0.362713953,-0.0400719866,-0.00746270362,-0.130430937
86736.603124,0.344081514,0.0527366609,0.372819167,-0.0736720264,0.0468748361,-0.097535044
86736.613152,0.332249476,0.0870759336,0.300111658,-0.0977342203,0.0842674822,-0.0710704178
86736.623179,0.254762258,0.125026017,0.165275318,-0.114484437,0.103667013,-0.0601365454
86736.633207,0.235924579,0.05007789,0.0527811576,-0.132425621,0.10610754,-0.0446244292
86736.643235,0.26322767,-0.0472535167,-0.0461538484,-0.132385671,0.0912313834,-0.0377241783
86736.653262,0.223402951,-0.0630795565,-0.202699916,-0.121262714,0.0643976405,-0.0407103822
86736.663290,0.102810678,-0.0984817458,-0.344717108,-0.0950058103,0.0361875705,-0.053719122
86736.673318,-0.0140832512,-0.104505244,-0.354433616,-0.076933071,0.00956022181,-0.0760899484
86736.683345,-0.0846842893,-0.111434678,-0.264675019,-0.0687739402,-0.0133059453,-0.0970868319
86736.693373,-0.105148474,-0.0658687123,-0.197340435,-0.0525984317,-0.0286675915,-0.137219071
86736.703401,-0.171896855,0.0325109979,-0.0851648393,-0.0428936072,-0.0395503342,-0.195912212
86736.713428,-0.145327851,0.0304706147,0.0812315915,-0.0240365621,-0.0362634584,-0.245840892
86736.723456,-0.015795535,-0.0494679414,0.199765032,-0.00091579702,-0.019700462,-0.275902659
86736.733484,0.0447507767,-0.126519032,0.228206114,0.0322099328,0.0083162589,-0.293509096
86736.743511,0.00839146931,-0.191091969,0.262548528,0.066204913,0.0384331495,-0.302031487
86736.753540,0.00521145104,-0.294647511,0.253959563,0.110201135,0.0648208186,-0.296482235
86736.763568,0.0226915051,-0.397855628,0.153246442,0.144473627,0.0800746083,-0.290933013
86736.773595,0.00365026614,-0.460692644,0.0973714099,0.152093992,0.0802884549,-0.277068853
86736.783623,0.0230737093,-0.420852363,0.0400613768,0.151278272,0.0713266507,-0.235956311
86736.793651,-0.0492555408,-0.420542822,-0.0578588993,0.159171343,0.0509220436,-0.181196913
86736.803678,-0.112285924,-0.516358673,-0.145379946,0.159065351,0.0158633906,-0.123885423
86736.813706,-0.14215229,-0.536741098,-0.21901626,0.152773649,-0.0356146917,-0.0633458123
86736.823734,-0.127450249,-0.395078309,-0.401745402,0.141610473,-0.0967699289,-0.00161880348
86736.833761,-0.0997984179,-0.189285724,-0.47364101,0.116841204,-0.165288806,0.054809317
86736.843789,-0.0144441935,-0.0803090333,-0.414304439,0.099035576,-0.238806695,0.121821374
86736.853817,0.17307021,-0.123358961,-0.335131534,0.0544294938,-0.2971102,0.187720239
86736.863844,0.376599197,-0.0768145423,-0.175920631,0.00476633245,-0.325949848,0.2416282
86736.873872,0.422034595,0.0156165252,-0.240578104,0.0248585511,-0.319254667,0.266605705
86736.883900,0.342813613,0.0551632304,-0.372527491,0.0524227992,-0.279655844,0.250616908
86736.893927,0.208805686,0.0786562977,-0.335492768,0.0645010322,-0.21550484,0.214999259
86736.903955,0.0242535668,0.0610279943,-0.36909927,0.0901294351,-0.142780825,0.174964219
86736.913983,-0.196939015,0.148370287,-0.438144749,0.101212181,-0.0779059604,0.131738722
86736.924010,-0.303168416,0.263954376,-0.439729388,0.0932293534,-0.0304303169,0.0995413736
86736.934038,-0.31574455,0.336871765,-0.488777204,0.0673335716,-0.00806189422,0.0767801329
86736.944066,-0.349653103,0.419098469,-0.569541763,0.0310258977,-0.00994075369,0.0658507869
86736.954094,-0.27679508,0.482909773,-0.587187894,0.0114695095,-0.03909624,0.0675171241
86736.964121,-0.120542442,0.484023288,-0.515844075,-0.0162526667,-0.0789022446,0.079428114
86736.974149,0.118545715,0.46874889,-0.368783044,-0.0563351065,-0.110882819,0.0854415298
86736.984177,0.230855605,0.523585373,-0.140956869,-0.0941293538,-0.118079208,0.0734431893
86736.994204,0.307543708,0.557170978,0.074409052,-0.119321793,-0.0966511518,0.0534367263
86737.004232,0.303872472,0.556982798,0.246603356,-0.138052061,-0.0595410615,0.0245307758
86737.014260,0.198846456,0.48069597,0.279059518,-0.141979963,-0.0144012822,0.00802743249
86737.024287,0.163765206,0.404990667,0.235682733,-0.132206157,0.0136497933,0.013830727
86737.034315,0.0706773182,0.379553188,0.137830262,-0.131604016,0.0107906237,0.0278575961
86737.044343,-0.017810382,0.358844272,0.068265727,-0.13323307,-0.0249426048,0.0394804291
86737.054370,-0.07597484,0.411208592,-0.0889788447,-0.139950365,-0.0922196507,0.051372245
86737.064398,-0.0868552766,0.460639234,-0.13944588,-0.150463194,-0.164626211,0.0655921921
86737.074426,0.0394090503,0.431373501,-0.08896014,-0.155395642,-0.221239418,0.0746285617
86737.084454,0.199997379,0.458068506,0.0432142878,-0.168011561,-0.24333699,0.0717294514
86737.094481,0.224258253,0.536935999,0.144072955,-0.176271886,-0.223539591,0.0564410388
86737.104509,0.153640994,0.595155366,0.18271219,-0.178461537,-0.172502771,0.0366111398
86737.114537,0.0936443523,0.638741336,0.224416074,-0.166089565,-0.105487786,0.00273040496
86737.124564,0.0694961456,0.65170194,0.231068517,-0.164228544,-0.0323459283,-0.03630355
86737.134592,-0.000158259302,0.547680206,0.306927184,-0.16105485,0.0267570745,-0.0710556656
86737.144620,-0.0506551054,0.449802746,0.379113299,-0.140786603,0.0627904385,-0.0997602791
86737.154647,-0.0306723478,0.34944516,0.268560336,-0.124910973,0.0747594833,-0.119405627
86737.164675,0.00130479899,0.216552281,0.126582891,-0.105193458,0.0542438254,-0.126589492
86737.174703,-0.026422143,0.113994665,0.0328214886,-0.0852000415,0.0093956599,-0.131109953
86737.184731,0.0404465767,0.0646614919,0.02920096,-0.0802960992,-0.0492474139,-0.124052837
86737.194758,0.129765175,0.118217872,0.0519271711,-0.0879247263,-0.107492879,-0.107780658
86737.204786,0.249830355,0.11426897,0.136858786,-0.0888773352,-0.151792958,-0.0845863894
86737.214814,0.32582653,0.0660796699,0.347635626,-0.103295423,-0.167181507,-0.0753588006
86737.224841,0.441643259,0.108283721,0.538795327,-0.115473263,-0.153402582,-0.079015322
86737.234869,0.549048864,0.113467243,0.603345248,-0.113194391,-0.109667614,-0.0887627602
86737.244897,0.62240826,0.035826881,0.639569239,-0.116446376,-0.0442550518,-0.0977858156
86737.254925,0.651278089,0.0132377951,0.608182751,-0.108004957,0.0296348855,-0.104968622
86737.264952,0.597457505,-0.0505547685,0.450917721,-0.0957365707,0.087920025,-0.0925644189
86737.274980,0.524727054,-0.155099723,0.231353179,-0.0692351907,0.126314297,-0.0692513734
86737.285008,0.527048044,-0.318437442,0.0514484477,-0.0342590995,0.140497491,-0.0399131924
86737.295035,0.50844242,-0.416919517,-0.114696054,-0.0163844936,0.137149096,-0.0119774342
86737.305063,0.40964843,-0.378469485,-0.169265264,-0.00650256732,0.118317343,0.0196484029
86737.315091,0.327139804,-0.304081768,-0.145046184,-0.0013179254,0.0945251957,0.0528289899
86737.325119,0.337946591,-0.18406735,-0.11015958,-0.0250360388,0.0666983575,0.08619041
86737.335146,0.306950857,-0.0300797887,0.0618126053,-0.0585926659,0.0479068346,0.103637315
86737.345174,0.196068516,0.186552079,0.13086919,-0.0929844603,0.0427229926,0.0952169299
86737.355202,0.0786265236,0.33515623,0.129434189,-0.120113552,0.057108853,0.0629764348
86737.365229,-0.034415626,0.346979939,0.13255729,-0.111589573,0.0923989341,0.0123305675
86737.375257,-0.117502198,0.247085604,0.0462853658,-0.0731913149,0.140710801,-0.0475570038
86737.385285,-0.270729058,0.0678744444,-0.132158646,-0.0378610231,0.184402883,-0.113928035
86737.395313,-0.397626422,-0.0496634822,-0.224289817,0.0146533176,0.213727757,-0.174736261
86737.405340,-0.439002243,-0.15374124,-0.42669981,0.0484488308,0.224744186,-0.216292486
86737.415368,-0.446343838,-0.259171873,-0.493439935,0.0801774636,0.220730796,-0.243079618
86737.425396,-0.448995521,-0.326021614,-0.478440519,0.0876614824,0.203023449,-0.26131323
86737.435424,-0.462407668,-0.39117341,-0.393411873,0.0912690014,0.187814131,-0.270546138
86737.445451,-0.445588051,-0.41912974,-0.367563731,0.0895664394,0.177272812,-0.276900977
86737.455479,-0.420686103,-0.448283573,-0.268351077,0.0882311314,0.176525265,-0.280913055
86737.465507,-0.432503674,-0.451317827,-0.191147426,0.0989290476,0.182273164,-0.282843024
86737.475534,-0.43807636,-0.490349605,-0.288743877,0.115205489,0.186917439,-0.279114336
86737.485562,-0.34969665,-0.552299463,-0.404911757,0.139525756,0.197240651,-0.261849344
86737.495590,-0.23402123,-0.574536356,-0.460209281,0.142037109,0.199424714,-0.234465629
86737.505618,-0.161440781,-0.577732851,-0.496910242,0.13960059,0.187400281,-0.192486763
86737.515645,-0.059232891,-0.488611236,-0.615365941,0.126067996,0.171062589,-0.143722147
86737.525673,0.0246863322,-0.366887147,-0.667564915,0.0924101621,0.15204975,-0.0956025571
86737.535701,0.0456928798,-0.23940822,-0.729963795,0.0457142964,0.146944731,-0.0602821112
86737.545729,0.0205797736,-0.19498167,-0.77859777,-0.00565488311,0.152122721,-0.0435137898
86737.555756,-0.00663410425,-0.217780398,-0.904628288,-0.0493850522,0.163641691,-0.0212095492
86737.565784,-0.0197197227,-0.412871374,-1.07855804,-0.0510402098,0.163585752,0.0094279889
86737.575812,0.0494119734,-0.663230173,-1.21673024,0.00317349564,0.128571853,0.043708995
86737.585839,0.200277512,-0.900288067,-1.26441086,0.082168445,0.038219586,0.0735230893
86737.595867,0.370203359,-1.05549704,-1.10964876,0.148520842,-0.0971619412,0.106647216
86737.605895,0.598280731,-1.11548053,-0.713532885,0.183463648,-0.248882234,0.168840557
86737.615923,0.764078539,-1.05672761,-0.132733231,0.175699994,-0.385313839,0.252666742
86737.625950,0.886252966,-0.808797824,0.45562663,0.123240247,-0.488809347,0.346281111
86737.635978,1.0195298,-0.417506414,0.997200774,0.0864641219,-0.543814003,0.440946877
86737.646006,1.12222211,-0.129611555,1.35324124,0.066271767,-0.527044058,0.52086997
86737.656034,1.26107544,0.0242310261,1.67952077,0.0433589965,-0.445922852,0.568187416
86737.666061,1.1653233,0.0480639563,1.96073542,0.044248227,-0.315707594,0.559765995
86737.676089,0.859664088,0.212047152,2.12414729,0.0567658842,-0.166910663,0.493683606
86737.686117,0.497415415,0.394211353,2.25379366,0.0280530117,-0.0154444417,0.38920778
86737.696145,0.216400379,0.501036893,2.29613759,0.00435886858,0.126405373,0.272679836
86737.706172,0.0423532871,0.647593044,2.02862355,-0.00133124122,0.239351094,0.163879886
86737.716200,-0.0115814245,0.747091675,1.55142572,-0.00914362445,0.313305736,0.0587531924
86737.726228,-0.0351082844,0.721323539,1.08472767,-0.00853535812,0.341133118,-0.0429143086
86737.736256,-0.126346891,0.590729877,0.629600218,0.00575037021,0.321090162,-0.132205039
86737.746283,-0.174324886,0.410975039,0.145026895,0.0262148976,0.259044111,-0.203465104
86737.756310,-0.0466122597,0.1982703,-0.249050749,0.052943714,0.176238701,-0.253501117
86737.766338,0.0843720815,-0.0138384827,-0.550220392,0.0878425762,0.0956320092,-0.284262508
86737.776366,0.203193837,-0.288270743,-0.775911308,0.137756616,0.0265160576,-0.279618472
86737.786393,0.400100192,-0.546941772,-0.858133079,0.173955634,-0.0205835439,-0.242828503
86737.796421,0.60233987,-0.614472499,-0.79866616,0.179520845,-0.0578813814,-0.170091167
86737.806449,0.799495158,-0.60096902,-0.671290073,0.161598027,-0.0958993435,-0.0525099486
86737.816477,0.909632819,-0.588746193,-0.589548193,0.123904288,-0.146888271,0.0974323526
86737.826504,0.953812152,-0.534736699,-0.447132358,0.0686639398,-0.210662991,0.259299785
86737.836532,1.01633583,-0.299909925,-0.372204835,-0.00115961686,-0.28281492,0.400853723
86737.846560,0.998528369,-0.0194788632,-0.331236864,-0.0739379525,-0.345998168,0.518476784
86737.856588,0.886435629,0.147843122,-0.182958859,-0.124625631,-0.395506054,0.60487318
86737.866615,0.764040545,0.26365638,0.00953355202,-0.179102987,-0.431121588,0.658495426
86737.876643,0.741120711,0.4504002,0.109079383,-0.193268344,-0.447275251,0.675665081
86737.886671,0.673882719,0.610374672,0.157801036,-0.229341656,-0.427743375,0.658672512
86737.896699,0.610100421,0.672604808,0.379798359,-0.237584934,-0.385761559,0.611157179
86737.906726,0.477482195,0.74732015,0.435223893,-0.251183838,-0.328942478,0.531975806
86737.916754,0.350384633,0.789694188,0.555996052,-0.23631914,-0.253724158,0.429285914
86737.926782,0.312742738,0.759665691,0.600993717,-0.182656437,-0.159967586,0.316220075
86737.936810,0.292977715,0.66857095,0.495135633,-0.110030979,-0.0580571964,0.19261612
86737.946837,0.196885093,0.568023686,0.456320457,-0.0361205302,0.0478812195,0.0646349862
86737.956865,0.208688051,0.49192237,0.555867458,0.0219326541,0.153994605,-0.0668340921
86737.966893,0.216482943,0.469648506,0.566084316,0.0678697824,0.251953125,-0.191334471
86737.976921,0.196900582,0.35653088,0.497858921,0.119113259,0.339987904,-0.297545075
86737.986948,0.182780726,0.225217691,0.403471495,0.153884292,0.420136005,-0.381327599
86737.996976,0.265475229,0.098699261,0.299007496,0.168992132,0.485197306,-0.430145741
86738.007004,0.32943113,-0.0368434376,0.0566629675,0.19210811,0.513645172,-0.444851428
86738.017032,0.303918357,-0.131367093,-0.256192437,0.198808357,0.509049118,-0.434485346
86738.027060,0.283298763,-0.215734755,-0.524673862,0.203993797,0.463564992,-0.402450442
86738.037087,0.354487538,-0.40412415,-0.732278502,0.216569513,0.395383269,-0.352454394
86738.047115,0.474312918,-0.675537647,-0.910150267,0.225926533,0.315094024,-0.275396109
86738.057143,0.574651799,-0.880858852,-0.900533128,0.221817538,0.234852433,-0.180883422
86738.067171,0.707034025,-0.954181716,-0.788392019,0.210280448,0.159467667,-0.0771423876
86738.077198,0.777123094,-0.910505364,-0.775360688,0.204723775,0.0888643414,0.0250138082
86738.087226,0.834382347,-0.825450853,-0.706083154,0.195660502,0.0316572413,0.1041025
86738.097254,0.797763439,-0.75046064,-0.557778844,0.198531657,-0.00211616885,0.14737834
86738.107282,0.706623106,-0.643299584,-0.500631893,0.210783526,-0.011798623,0.146225452
86738.117310,0.501616739,-0.544343645,-0.384323727,0.226498038,0.00486983545,0.10462635
86738.127337,0.215345317,-0.397466081,-0.258165783,0.234408423,0.0453128666,0.0312988684
