t,ax,ay,az,gx,gy,gz
94545.142939,-0.372346332,0.0058749999,-0.0830219792,-0.00228763788,0.000905548806,-0.00850449575
94545.152965,-0.363216027,0.0639274764,-0.11008885,0.00704567626,-0.00249317731,-0.00785921214
94545.162992,-0.34633803,-0.000253789746,-0.0998860202,0.00971602768,-0.00390438619,-0.00694361774
94545.173018,-0.282426261,-0.165319127,-0.0222053991,-0.002163002,0.00181821408,0.000354242716
94545.183045,-0.271026257,-0.27479151,0.0187643246,-0.00746189404,0.00182167615,0.0054041289
94545.193072,-0.222783181,-0.186138263,-0.0448351641,-0.0126894123,-0.000361849552,0.00136651026
94545.203098,-0.239383457,0.0266718869,-0.0920616102,0.00462992283,-0.00825545913,-0.000199428555
94545.213125,-0.238559573,0.0268197663,-0.0919604879,-0.00507570171,-0.00640482805,0.00378066555
94545.223151,-0.274301114,-0.121572504,0.0852390765,-0.0170548667,0.00482066185,0.00322539659
94545.233178,-0.30965614,0.0895996549,0.100282916,-0.00857935633,0.00590403588,-0.00142368374
94545.243204,-0.350164311,0.257977816,-0.0982972897,0.00212282318,-0.0042338192,-0.00220265871
94545.253231,-0.350863837,0.17119513,-0.130556468,-0.0100872384,-0.00305137574,0.0239935268
94545.263258,-0.361165524,0.0611853289,-0.0274134892,-0.0223369801,-0.00194989261,-0.00417339781
94545.273284,-0.443584426,0.0722923636,0.0207785871,-0.000841275175,0.00229918095,-0.00241358092
94545.283311,-0.365467897,0.136658581,-0.0154652772,-0.00467409679,0.00469149859,-0.00405675059
94545.293337,-0.36549442,0.136684053,-0.0154687844,0.000723598207,-0.00168837013,0.0018666519
94545.303364,-0.431977136,0.0145822572,-0.0706482353,-0.0147309915,-0.00253046141,0.0032645452
94545.313391,-0.435454749,0.087291241,-0.0177186091,0.011581572,0.0097200789,0.00592877131
94545.323417,-0.268269506,0.0642049142,0.0267541543,-0.0266385169,0.0104817434,0.0131547257
94545.333444,-0.439354679,0.0812130079,-0.0292588248,-0.00854659892,0.00129650079,0.00467681952
94545.343470,-0.415042587,0.550408601,-0.285115162,0.0117815754,-0.00259970384,0.00158941673
94545.353497,-0.296765459,0.307400621,-0.0871218157,-0.00684776876,-0.00319545273,0.0094782321
94545.363523,-0.311444411,0.0235622259,0.0748240655,-0.000396527319,-0.00264364597,0.0064209236
94545.373550,-0.412434304,0.267188639,-0.00869417566,0.00867899254,0.00671177288,-0.000393839348
94545.383577,-0.444182172,0.17731522,0.0180874483,-0.00058667702,0.0162682601,-0.00197415872
94545.393603,-0.372523003,-0.0504033293,-0.084393852,-0.00622698592,0.00368269324,-0.0036551466
94545.403630,-0.347566622,-0.0960777419,-0.314330735,-0.00654470103,-0.0118810867,0.0010333487
94545.413656,-0.336334157,-0.0978543414,-0.232025961,-0.00843767609,-0.0111061071,0.00586219246
94545.423683,-0.347718671,0.0625159062,-0.00895194982,-0.00870804462,-0.00514382194,0.00627269337
94545.433709,-0.441227049,0.162691834,0.0573971299,-0.00337080305,-0.00401384267,0.0097161608
94545.443736,-0.461092391,0.190098312,0.15719489,-0.00874932363,0.00638713292,0.00917101206
94545.453763,-0.460410473,0.314281248,0.222153392,-0.000315624869,0.0171492335,-0.00194955038
94545.463789,-0.463615406,0.433300882,0.0355091232,0.0105364893,0.0147340123,-0.0108383827
94545.473816,-0.463540514,0.211881616,-0.175135615,-0.000801385465,0.000933245466,-0.00402495151
94545.483842,-0.450575673,-0.112298334,-0.245112237,-0.0124710917,-0.0084796974,-0.000923167709
94545.493869,-0.404423212,-0.00913223429,-0.154048988,0.00928986378,-0.00301382574,-0.00261001362
94545.503896,-0.294205473,0.0106293183,0.0310743556,0.0174039828,0.0236311008,0.00201030422
94545.513922,-0.0905896836,-0.330865882,0.105137955,-0.00602331172,0.0231083215,0.0119846419
94545.523949,-0.0198087589,-0.554450145,-0.206999072,-0.0152128159,0.000773455833,0.0245789971
94545.533975,0.10846983,-0.335472865,-0.462160412,-0.00206825111,-0.0182758688,0.0298509907
94545.544002,0.146426709,-0.116787133,-0.374036723,0.00478246462,-0.0274999931,0.0364404518
94545.554028,0.0577079768,-0.133025517,-0.11855448,-0.00250367794,-0.0263220768,0.041384076
94545.564055,-0.121977778,-0.0513383406,0.145833538,0.00206524114,-0.0169378973,0.0402133513
94545.574082,-0.277464474,0.110963455,0.34661973,0.00617476486,-0.00335044903,0.0338076476
94545.584108,-0.380491498,0.106056796,0.362481316,0.014264649,0.000509003936,0.0304877527
94545.594135,-0.528840669,-0.0503306249,0.268751477,0.0126499741,0.00747476774,0.0359672059
94545.604161,-0.484767354,-0.298626468,0.246780469,-0.00236998728,0.0376302761,0.0417854164
94545.614188,-0.154983026,-0.329999585,0.206105928,-0.0178671886,0.0496762854,0.0417934034
94545.624215,0.0205006743,-0.138185347,-0.336246799,-0.0243778189,0.0087823805,0.0373121027
94545.634241,0.195858191,0.0516552749,-0.794822341,-0.0169444026,-0.0368879016,0.0354345713
94545.644268,0.200055277,0.200551043,-0.53033963,-0.000968365666,-0.0425034414,0.0318134736
94545.654294,0.0514799691,0.154173633,0.0522480766,0.00748397483,-0.012983103,0.0349243108
94545.664321,0.0165449224,-0.0962197259,0.472813914,-0.0126109074,0.02222442,0.0425081972
94545.674347,0.0470869949,-0.201667511,0.452308302,-0.0159116292,0.0229980678,0.0383549977
94545.684374,0.0744192384,0.0377843284,-0.143648005,0.00705547238,-0.00614889874,0.0327351961
94545.694401,-0.00255221144,-0.0115232576,-0.50509413,-0.00159607277,-0.0281697779,0.0394942958
94545.704427,-0.0975186791,-0.376917805,-0.282054021,-0.0234401186,-0.0324835654,0.0482590247
94545.714454,-0.126905444,-0.323351196,0.0974643519,-0.0212169119,-0.018809567,0.0469042782
94545.724480,-0.133834074,0.139346605,0.33925417,0.0046551654,-0.00132618041,0.0382159773
94545.734507,-0.187381978,0.194272766,0.370804908,0.00955804464,0.0270348873,0.0428131271
94545.744534,-0.163596175,-0.202340022,0.263608854,-0.00775063803,0.0285949663,0.0526761461
94545.754560,-0.125019996,-0.338032815,-0.168132458,-0.0119267411,0.00207973621,0.0643266786
94545.764587,0.0100621363,-0.171003018,-0.396446124,-0.0138175857,-0.0275492619,0.0637615521
94545.774613,-0.0502113499,0.177026795,-0.177340431,0.00145910567,-0.0211550135,0.0551757861
94545.784640,-0.225614898,0.437677454,0.199787831,0.0175643063,0.0126058806,0.0422312293
94545.794666,-0.179414799,0.222833401,0.429864999,0.00088119964,0.0415254135,0.0416490633
94545.804693,-0.072583779,-0.242118545,0.216243876,-0.0087439974,0.0210145444,0.0491184268
94545.814720,-0.0299543784,-0.228828399,-0.283473824,0.00324289108,-0.00601121341,0.0516614814
94545.824746,-0.0169918749,-0.132207341,-0.405650005,-0.0012826187,-0.00493609556,0.0594064865
94545.834773,-0.0576759866,-0.275092064,-0.161732528,-0.0266271231,0.00438363687,0.0634760607
94545.844799,-0.0333950935,-0.102369134,-0.110824178,-0.01204898,-0.00894601713,0.0612038497
94545.854826,-0.0227189473,0.12367856,-0.238891755,-0.00149407363,-0.0194087781,0.0587420289
94545.864852,-0.0603794004,0.121809752,-0.0791015908,0.00451934411,-0.0251702599,0.0612203676
94545.874879,-0.438237438,-0.0169030144,-0.0146603906,0.00245566064,-0.0132110694,0.0749926318
94545.884906,-0.661257455,-0.14669341,0.0819184077,-0.00666593222,0.00184298132,0.077217703
94545.894932,-0.45326725,0.092085316,0.167820914,0.00750288347,-0.006566216,0.0734527905
94545.904959,-0.359276641,0.182234647,0.154217336,-0.00887475881,0.00981328939,0.0729201634
94545.914985,-0.40939311,0.198574025,0.291496393,0.00438165877,0.0242758517,0.0519722674
94545.925012,-0.494610191,0.497934865,-0.209703655,0.0364927261,0.00421026512,0.0334390674
94545.935039,-0.55015263,-0.257593214,-0.577025394,-0.0240635646,-0.0340833242,0.0599806655
94545.945065,-0.619173194,-1.05407045,-0.189600193,-0.0529178471,-0.0263162188,0.0756978367
94545.955092,-0.372017027,-0.188605383,0.293088046,-0.0105379026,0.0329188753,0.0481876556
94545.965118,-0.312112228,0.590522913,0.181368962,0.0159118141,0.0231003326,0.0460411433
94545.975145,-0.344082433,-0.284684616,-0.42366497,-0.0266502944,-0.012943954,0.0758067642
94545.985171,-0.148493226,-0.727248333,-0.365882058,-0.00700974624,-0.0329994212,0.0810752932
94545.995198,-0.304867371,-0.154164331,-0.241139242,0.00319655196,-0.0282238412,0.0868479584
94546.005225,-0.412541418,-0.514405865,0.16410277,-0.0222611369,-0.00314591848,0.101686296
94546.015251,-0.352473099,-0.507535907,0.406602197,-0.00867582086,0.0171737347,0.096122687
94546.025278,-0.308636441,-0.147783288,0.178742705,-0.0100292393,0.0216675524,0.104001385
94546.035304,-0.261733747,-0.227065718,-0.180489835,-0.00933814861,-0.00355444732,0.107250703
94546.045331,-0.262820739,-0.021686769,-0.505012297,-0.00860790975,-0.0233981933,0.108020355
94546.055358,-0.237097976,0.0507082809,-0.306729028,-0.0239514464,-0.0245097957,0.105446679
94546.065384,-0.076787149,0.179764294,0.104257665,-0.00843826655,-0.0151671607,0.0922621686
94546.075411,-0.0419276518,0.300569332,0.255607918,-0.00627151804,0.00959331286,0.0914477755
94546.085437,-0.146127081,0.00903703043,0.291554261,-0.0198443194,0.00475168578,0.0994697485
94546.095464,-0.345396365,-0.0697940941,-0.123373863,-0.0370376834,-0.00060606154,0.0959498484
94546.105490,-0.266201833,0.295639803,-0.225133279,-0.0204784178,-0.0170153945,0.091038977
94546.115517,-0.197327984,0.583223769,-0.160150227,-0.00390663111,-0.0139700703,0.0830801178
94546.125544,-0.168419139,0.611668395,0.0328974794,0.038306339,-0.0183432463,0.0856476773
94546.135570,-0.397894761,0.11090429,0.108089791,-0.00219847981,0.00538045797,0.10664164
94546.145597,-0.270175486,-0.319884872,0.515434912,-0.0435650923,0.0432247792,0.102425327
94546.155623,0.0875164743,0.446184622,0.297976987,0.0196394401,0.0343364787,0.0738192473
94546.165650,0.136551285,0.770093189,-0.515899017,0.0353321194,-0.0186063673,0.070276973
94546.175676,-0.111115316,-0.267695652,-0.720688015,-0.0137640561,-0.0595319595,0.0908746619
94546.185703,-0.335131723,-0.744759732,-0.21215514,-0.0259687898,-0.0187198173,0.102223453
94546.195730,-0.0683099011,-0.248482783,0.504834608,-0.0293906869,0.0261845395,0.0836511005
94546.205756,0.12996745,0.387528398,0.417194318,0.00896043077,0.0135086917,0.0686857376
94546.215783,-0.14156803,0.13121891,-0.250478148,-0.00228050511,-0.0121921438,0.0830774579
94546.225809,-0.102241689,-0.543440967,-0.147186701,-0.0361798794,0.00874669408,0.0878000383
94546.235836,0.263663096,-0.201920573,0.142906837,-0.0174282991,0.00127892383,0.0795018945
94546.245863,0.219507801,0.135079878,-0.14298165,0.00134192655,-0.00814041099,0.0852953393
94546.255889,0.199193327,-0.139798418,-0.137342767,0.00234993317,-0.0117782883,0.0928030584
94546.265916,-0.0059714453,-0.333043409,-0.113670215,-0.0222254505,-0.0191584404,0.111117085
94546.275942,-0.120505733,-0.329016017,-0.0585328501,-0.0369924099,-0.0388429265,0.117129167
94546.285969,-0.227121795,0.280253963,0.149613641,-0.00873893752,-0.0245777077,0.106675198
94546.295995,-0.087091247,0.764788799,0.678717595,-0.0211157126,0.05126273,0.0842103634
94546.306022,-0.122567415,0.835678226,0.75132632,-0.0337955521,0.0641098146,0.0580759693
94546.316049,-0.0578313964,1.04146486,-0.230273565,0.0357928446,-0.00416990393,0.032321607
94546.326075,-0.0364002666,0.610993126,-0.996835444,0.0437594264,-0.0466443922,0.0557811234
94546.336102,-0.182631788,-0.629560842,-0.364606047,-0.0444673726,-0.0202276993,0.0866077442
94546.346128,-0.34197399,-0.489988742,0.360817767,-0.00916158102,-0.00752868294,0.0756837253
94546.356155,-0.504529893,0.685050003,0.0266723213,0.0692157767,-0.019291599,0.0632321138
94546.366182,-0.52566993,0.182348848,0.278773105,-0.004953786,0.00743961404,0.0943809796
94546.376208,-0.479878266,-0.611852533,1.06346919,-0.0746500471,0.0943934221,0.0748797182
94546.386235,-0.320466434,0.880083915,0.518459813,0.0186463485,0.10741548,0.0173168231
94546.396261,-0.19037495,1.43916938,-1.18510819,0.0511307887,-0.00263512437,0.0147511337
94546.406288,0.110762398,-0.410999011,-1.47092478,-0.0623465047,-0.0828386198,0.0548836414
94546.416314,-0.111685663,-1.0575808,-0.470364762,-0.0574918256,-0.0923991005,0.0565310691
94546.426341,-0.862069219,0.457382563,0.000503860792,0.0017538936,-0.0422564808,0.0198342849
94546.436368,-0.861836506,0.745591858,0.796874603,0.00404075001,0.0141279672,0.0129484154
94546.446394,-0.599009307,-0.31090815,1.38817052,0.000422579413,0.0769431491,0.0316704374
94546.456421,-0.159081694,-0.794848947,1.24481477,-0.00338494192,0.148261001,0.0612328585
94546.466447,0.0386166151,-0.655811574,0.113285021,-0.0513021329,0.153039252,0.0650563587
94546.476474,0.0522746266,-0.0123123485,-1.64076346,-0.0445049496,-0.0183221183,0.0467713598
94546.486500,0.212976207,0.35961492,-2.6911341,0.0343962594,-0.194911266,0.0456357908
94546.496527,0.370433325,-0.0795753647,-1.20944067,0.0336745403,-0.13893881,0.0765803877
94546.506554,-0.0550975145,-0.979823821,1.43836867,-0.0408066155,-0.0363360073,0.0986081932
94546.516580,-0.988756448,-0.627347258,1.67092071,-0.0337103584,0.0667413746,0.0901470605
94546.526607,-0.589683699,0.226027795,1.41273388,-0.0112252885,0.16164871,0.076556151
94546.536633,0.174965771,0.377204792,0.725716662,0.00751724074,0.128706743,0.0736248095
94546.546660,0.419634359,0.0619818039,-0.839880211,-0.0224606318,0.0323908601,0.0863627095
94546.556687,0.445937041,-0.105255576,-1.51276954,-0.0386081764,-0.0565472681,0.0785386089
94546.566713,0.460797779,0.479340347,-1.26467156,0.0114512614,-0.105333979,0.0568940353
94546.576740,-0.00639653885,0.490606166,-0.268673146,-0.00957412898,-0.0585470374,0.0580237482
94546.586766,-0.293162028,-0.1219215,1.0097756,-0.0413256676,0.019648432,0.0523568105
94546.596793,-0.409948406,0.21292897,1.19538701,-0.037692582,0.0663259227,0.0397510018
94546.606819,-0.36390284,0.578171856,0.701432116,-0.00155907878,0.0577454839,0.0446826454
94546.616846,-0.240798804,0.554670971,0.0419680901,0.0182686879,0.069382963,0.0536082287
94546.626873,0.141569332,0.225887856,-0.198940269,0.0245998206,0.0368963939,0.0644848395
94546.636899,0.0507344115,-0.134783521,-0.783292647,-0.000857069475,-0.0246412668,0.0839094047
94546.646926,-0.0146420969,-0.525457421,-0.65266954,-0.0259464436,-0.0123726174,0.0919731904
94546.656952,0.234346692,0.143680278,0.045369423,0.0140028366,0.0152017523,0.0506555822
94546.666979,-0.0472025234,0.566646692,-0.129722356,0.0211787245,-0.00203901902,0.0605564166
94546.677005,-0.296949876,-0.556801457,-0.297785258,-0.0694510394,-0.0119891211,0.058826958
94546.687032,-0.0390626908,-0.189636096,0.116993228,0.0178838617,-0.0274732735,0.0387845423
94546.697059,0.0289592906,0.282886522,0.215785026,0.0156289621,0.0449093145,0.0473886814
94546.707085,0.365973131,-0.651094337,0.813544583,-0.0500208863,0.0617538069,0.0555696462
94546.717112,0.124245711,-0.586591031,0.0368541081,-0.0459696853,0.0192865089,0.0551382128
94546.727138,0.0371338292,0.0330814023,-0.930717251,-0.00184749914,-0.0630954455,0.047807065
94546.737165,-0.151416054,0.121392275,-0.708958998,0.00267880949,-0.0648571278,0.0656971161
94546.747192,-0.108571038,-0.342141894,0.589447074,-0.0177273971,-0.00055004563,0.0733204086
94546.757218,-0.222668104,-0.208316539,1.22335697,0.0157008677,0.0882056553,0.0762616072
94546.767245,-0.231378795,-0.082538023,0.650191173,-0.0103986438,0.103677024,0.0771535013
94546.777271,0.0676475523,-0.290941905,-0.313260475,-0.0865131148,0.0550407779,0.0716258411
94546.787298,0.541108676,0.252983807,-1.02887484,-0.00304858453,-0.0518001828,0.0396974731
94546.797324,0.274189677,0.903388949,-1.54876147,0.0469538628,-0.121180321,0.0446847763
94546.807351,-0.132791726,-0.300978657,-0.306975696,0.00962060437,-0.0540907707,0.0833248396
94546.817378,-0.193919417,-1.08330283,1.17377841,-0.0484538839,0.0629762013,0.102413577
94546.827404,-0.065877048,-0.238445117,1.14860305,-0.0404609383,0.0752136905,0.0804169376
94546.837431,-0.0458153068,0.837409799,-0.141721421,0.0180196821,0.00449211733,0.0633276973
94546.847457,0.422445252,0.726409092,-0.508673157,-0.0154607796,0.00643222989,0.0496971097
94546.857484,0.358511051,0.249890481,-0.0427940137,-0.0133214628,-0.0187737911,0.0414799277
94546.867511,-0.0971670892,0.172939891,-0.497719217,0.0210205319,-0.0162770774,0.0445071433
94546.877537,0.123841879,-0.139471588,-0.126304656,-0.0204398257,-0.0150397725,0.0653490398
94546.887564,-0.0575419119,-0.40997566,0.230696764,-0.0123608603,-0.0158528357,0.0692766655
94546.897590,0.0702767318,0.0375378017,0.392739092,-0.00381584136,0.0419414875,0.0594373543
94546.907617,0.0613883458,0.258286243,0.462742602,-0.0131925658,0.0524388712,0.0453577575
94546.917643,0.288382015,0.212458393,-0.154924601,-0.0119182428,0.00905357977,0.0431425397
94546.927670,0.387817664,-0.0959796153,-0.614769726,-0.0100380515,-0.0328568544,0.0634033356
94546.937697,0.02653389,-0.378233016,-0.552930817,-0.0153238938,-0.0625486996,0.0748637144
94546.947723,-0.0490306887,-0.0607290044,0.0114671534,-0.0114476622,-0.018014523,0.0736975122
94546.957750,0.0113070948,0.184336753,0.793172826,0.00975136578,0.0367049139,0.0746224273
94546.967776,-0.272952549,0.254094508,0.472188476,-0.0240952798,0.0336444092,0.0631090526
94546.977803,-0.233404163,0.369843944,-0.14207681,-0.0231019219,0.0205203511,0.0510665078
94546.987830,0.268984071,0.681096663,-0.338180397,0.0390344209,0.0118632142,0.0376774643
94546.997856,0.519348533,0.241880996,-0.484310869,0.0366335793,-0.0274282664,0.0644377072
94547.007883,0.140965667,-0.901993197,-0.526556605,-0.0637526714,-0.0297087308,0.0931694854
94547.017909,-0.0486891818,-0.558790074,-0.0883142403,-0.0441994832,-0.0310208711,0.0605391052
94547.027936,-0.0226281272,1.08823925,-0.22069442,0.0609932489,-0.0472986426,0.0222585604
94547.037962,0.00175871056,0.473962709,0.114822898,0.0440978876,-0.0356547709,0.0640688587
94547.047989,-0.454498764,-1.02452543,0.805498055,-0.0817689576,0.0056828165,0.0864905391
94547.058016,-0.457103029,-0.160059143,1.06567985,-0.0418796034,0.0771966774,0.0529134099
94547.068042,0.11086564,1.50519216,0.410242015,0.0811826757,0.0779373024,0.00604550282
94547.078069,0.048155647,0.795604793,-0.743227179,0.0176015667,-0.0275406509,0.0382329982
94547.088095,-0.212765718,-1.11703142,-0.872119516,-0.0449726002,-0.063814501,0.0735158894
94547.098122,-0.31431098,-0.465875936,-0.149264676,-0.036644628,0.005961383,0.0424245496
94547.108149,-0.0718095798,0.927680729,0.409812976,0.025783595,0.0297902834,0.0117001927
94547.118175,0.107211209,0.641603295,0.0997626919,0.0456009752,0.0173149717,0.0338736709
94547.128202,0.046116104,-0.323231223,-0.145459438,-0.0149758185,0.00298157218,0.0504997868
94547.138228,-0.0459697668,-0.383840846,-0.230533677,-0.0404726544,-0.0382108714,0.0506910023
94547.148255,-0.248403872,0.319561691,-0.480500956,0.0196575264,-0.0701831828,0.0457830627
94547.158281,-0.450141081,0.348158803,0.00495733307,0.00645011178,-0.0181764446,0.0578860652
94547.168308,-0.16810883,0.122385506,1.10628951,-0.0156157759,0.0849941496,0.0319775019
94547.178335,-0.31470334,0.715979395,0.604708941,0.0214080217,0.0698756475,0.0102285298
94547.188361,-0.319249678,0.439974844,-0.949330766,0.0457663595,-0.0162334021,0.0242223751
94547.198388,0.219601324,-0.689893804,-0.999335445,0.00709193366,-0.0745766039,0.0639735136
94547.208414,-0.0710600035,-1.04768418,-0.255589792,-0.062882086,-0.0482938651,0.0674734388
94547.218441,-0.32837633,0.0654752858,0.371139839,-0.00900767438,-0.0235693443,0.0336124163
94547.228468,-0.511164801,1.03811218,0.354866165,0.0779693073,0.0369475272,0.00999496991
94547.238494,-0.154283865,0.128777883,0.530750555,0.0382184259,0.0335514669,0.047590283
94547.248521,-0.213684368,-1.31295841,0.171942962,-0.0592213103,0.012535929,0.0926000972
94547.258547,-0.217361595,-0.616119835,-0.17038579,-0.031900739,-0.00701353722,0.0719965521
94547.268574,-0.236321658,1.35680382,-0.474057771,0.0379068388,-0.0157662823,0.0189935241
94547.278600,-0.113561394,1.42516541,-0.272969966,0.0252469688,0.00286465953,0.00707481449
94547.288627,0.0939354745,-0.0633437946,0.308567355,0.0369574188,0.0078852505,0.0277366836
94547.298654,-0.232571147,-0.726215263,-0.0326613267,-0.0155617136,-0.00208589062,0.0478656527
94547.308680,-0.203704752,-0.814317544,-0.086462475,-0.0683809796,-0.00433998997,0.060267729
94547.318707,-0.0669405125,0.205795117,-0.0129459879,-0.000142277042,0.00270407088,0.0174590118
94547.328733,-0.0463559896,1.40634424,-0.264811794,0.0819611198,-0.0267915043,-0.00621915309
94547.338760,-0.157730644,0.198329531,-0.114434186,0.0367430358,-0.000581204657,0.0361922208
94547.348787,-0.188579372,-1.28145823,0.53889236,-0.0382656955,0.0180052624,0.0589526605
94547.358813,-0.487617555,-0.653426871,0.222504105,-0.0614674182,-0.00206591701,0.0444954235
94547.368840,-0.330849004,0.661734813,-0.139934537,-0.012940631,-0.00415276992,0.00931746254
94547.378866,-0.237832574,1.24983821,0.0794429575,0.0601998924,0.0216244974,-0.0204130027
94547.388893,-0.398736837,0.324529688,0.0421481228,-0.00118410561,0.0271204629,0.00398874303
94547.398919,-0.136904787,-0.939131234,0.136861127,-0.0206187905,0.0478803378,0.024963801
94547.408946,0.33979561,-0.411090343,-0.15700433,0.029027859,0.00894758594,0.0260687445
94547.418973,-0.150260235,-0.0380932435,-1.01129301,-0.023130683,-0.0810182567,0.0486952301
94547.428999,-0.431918172,-0.0864115217,-0.638407791,-0.0579251365,-0.0946884404,0.0307283562
94547.439026,-0.465420483,1.18258196,0.613608286,0.0166835862,-0.0199209906,-0.00428368876
94547.449052,-0.335803119,1.69938436,1.21742057,0.064577075,0.110878838,-0.0369473573
94547.459079,-0.176099756,0.972908183,1.0286276,0.0219297486,0.121451055,-0.0358450774
94547.469106,-0.503341998,-0.120526676,-0.676949411,0.0120688614,-0.00497639715,-0.0153666993
94547.479132,-0.122751174,-0.394351426,-1.54186762,-0.0192666908,-0.0773584496,-0.00339925269
94547.489159,-0.189367015,-0.197383002,-0.468730439,-0.0117222217,-0.0521234039,-0.0267288077
94547.499185,-0.0941765291,0.445611608,0.435323265,0.0533766209,0.0248086632,-0.0458833303
94547.509212,-0.0684741518,-0.135782012,0.895715501,0.024266938,0.0824407984,-0.0189148288
94547.519239,-0.182417634,-1.07894902,0.346619145,-0.0405362935,0.0492420991,-0.00472071374
94547.529265,0.0635293034,-0.832017525,-0.609667434,-0.0728960985,-0.0278233893,0.00941321461
94547.539292,-0.123365214,0.328768531,-0.930168969,0.00340479918,-0.0839447107,-0.0238360826
94547.549318,-0.385273472,1.23115726,-0.405148485,0.0649888015,-0.0187135141,-0.0278630506
94547.559345,-0.0282721975,-0.0173067958,0.992778868,0.026046729,0.0464018371,-0.00396996809
94547.569371,-0.00714567671,-0.975884071,1.07812549,-0.0535045543,0.0683084701,0.0155059949
94547.579398,-0.228928187,-0.631287374,0.206297067,-0.0326900871,0.0387087625,0.0140503116
94547.589425,-0.255970069,0.51398854,-0.802823861,0.0299498572,0.000281747898,-0.00965954529
94547.599451,0.334662558,0.608524617,-0.626723783,-0.0588154324,-0.0111911499,-0.011145856
94547.609478,0.287672405,0.213052706,-0.0693307229,0.0108568569,-0.0430883642,-0.0303001094
94547.619504,-0.140940618,0.675828075,-0.451762353,0.0377212263,-0.051713011,-0.025029714
94547.629531,-0.474742949,-0.473589286,0.352190808,-0.0640637257,0.0119155005,0.0114321571
94547.639558,-0.276660683,-0.486379319,0.997130634,0.0188245031,0.0611967642,-0.0176120091
94547.649584,0.33067495,0.806074749,0.37007484,0.058688028,0.0601179164,-0.0122593229
94547.659611,0.105124758,-0.456648162,-0.0864800107,-0.0683673897,0.0449352351,0.0195286993
94547.669637,0.235032848,-0.516647836,-0.366088979,-0.0188802664,-0.00197421596,-0.0148258114
94547.679664,0.323665802,0.994087165,-1.04515787,0.0631355068,-0.0266284279,-0.0277948741
94547.689691,0.381509942,-0.0188976543,-0.594882537,-0.00766143409,-0.0511391002,0.00324453481
94547.699717,0.152915998,-1.07406176,0.200450095,-0.035926895,-0.0320570196,0.0294625584
94547.709744,0.00716707241,-0.527067194,0.652550304,-0.0217591428,0.025209469,0.0203452252
94547.719770,0.159881746,0.442393997,0.648119043,0.0175717513,0.0350128275,-0.00882304626
94547.729797,0.0827495521,0.267094092,0.115514388,-0.0436987967,0.0318772246,0.00696656873
94547.739823,-0.0131592379,-0.109408823,-0.343150587,-0.0108801301,-0.035027242,-0.009195091
94547.749850,-0.0198265868,0.982541469,-0.620029253,0.0622271023,-0.00578306871,-0.0309824113
94547.759877,0.408671505,0.134683828,0.319473364,-0.0179244575,0.035808583,0.0114657127
94547.769903,0.399128601,-1.01848578,0.682156922,-0.0558374838,0.00944595155,0.00751358198
94547.779930,0.294649551,0.222868874,-0.0834516027,0.0188250358,-0.0110129851,-0.0122625192
94547.789956,0.464814687,0.564477824,-0.0191594556,0.0730949289,0.0161243614,0.000119049307
94547.799983,0.198515574,-0.37864072,0.216734874,0.022126023,0.0335755211,0.0370387186
94547.810010,0.088795262,-0.958410081,-0.0203343446,-0.0785646343,0.0223292608,0.0479171995
94547.820036,0.401358698,0.00765317029,-0.223012634,-0.0302980353,-0.0323001656,0.0191563901
94547.830063,0.177525539,1.31112533,-0.561879847,0.0865580088,-0.0464764375,-0.00614710225
94547.840089,0.160421113,0.869253528,0.1330857,0.000613273851,0.0461693418,-0.00287354531
94547.850116,0.281918226,-0.179977548,1.00614864,-0.0422372536,0.0990253736,-0.00835805925
94547.860143,0.308936581,0.38349812,-0.289452314,0.0485389887,0.00691754674,-0.0337084222
94547.870169,0.301031653,0.41435598,-1.6972575,0.0599759317,-0.115478667,-0.0186067026
94547.880196,0.133565839,-1.21604592,-0.631877512,-0.052141817,-0.084522086,0.0259359975
94547.890222,0.0418157765,-1.24739653,1.05368313,-0.0625238844,0.0131285705,0.00303414531
94547.900249,-0.0237797084,0.60371802,0.87503161,0.0309341608,0.0457877119,-0.0375598844
94547.910276,-0.416897421,-0.710676991,-0.181541975,-0.000636813956,-0.00598413753,-0.015091596
94547.920302,-0.414861677,-0.715099849,-0.181248545,-0.0808901095,-0.0282502945,0.0154809609
94547.930329,-0.362227673,-0.0672285727,0.0942126566,-0.0109975754,-0.00930563244,-0.0173816483
94547.940355,-0.0884525254,1.24431594,0.271856458,0.0299357421,0.00286235078,-0.0390920032
94547.950382,-0.251933507,0.377461799,0.514450578,-0.04834122,0.0197579779,-0.020027763
94547.960409,-0.429259475,-0.237827314,0.665302233,-0.0465350614,0.0392794807,-0.0300907854
94547.970435,0.0336555586,0.776861733,0.2626479,0.0953397847,0.0964125444,-0.0360789027
94547.980462,0.314695437,0.389365331,-0.487923215,0.0779275021,0.0925376464,0.0153326236
94547.990488,0.00586125051,-1.1738414,-1.47510295,-0.113766035,-0.0298924006,0.0361367066
94548.000515,0.0766243473,-0.737142535,-1.85384332,-0.116330391,-0.154451634,0.0294854615
94548.010542,0.500471837,1.6604381,-1.10766781,0.0646617657,-0.173187236,-0.0396683093
94548.020568,-0.0224178455,2.12789721,0.574771483,0.169854487,-0.0572305496,-0.0462977167
94548.030595,-0.560888763,-0.302689626,1.84548817,0.0187880176,0.111541433,0.00195449984
94548.040621,-0.473167882,-1.49458441,1.6914269,-0.0535564886,0.105383669,0.0325800527
94548.050648,-0.234299505,-0.402053013,-0.192243986,-0.0181734634,0.0216735892,0.0160934881
94548.060675,0.174349393,0.777877121,-0.919112153,0.0279226604,-0.0442561607,-0.00949815826
94548.070701,0.23386585,0.816276702,-0.444412574,0.0401739984,-0.0070073239,-0.030077203
94548.080728,0.171949346,0.162826767,0.150432556,0.0108123825,0.0146604201,-0.0206378948
94548.090754,0.0371718962,-0.587304075,-0.0182657216,-0.0224670113,-0.00596229988,0.000194949303
94548.100781,0.154098194,-0.413954281,-0.369538243,-0.000954262765,-0.0511026147,-0.00301549098
94548.110807,-0.228842116,0.356070635,-0.479279305,0.0136289413,-0.0588108662,-0.0142641512
94548.120834,-0.478836941,0.474322117,0.0624018063,-0.0186850556,-0.0307001367,-0.0257892448
94548.130861,-0.680163815,0.370798724,0.552175036,0.0337235576,9.13318963e-05,-0.0211566787
94548.140887,-0.292528772,0.347952722,0.668005647,0.042892555,0.0688387055,-0.0245109301
94548.150914,0.304350861,-0.0447438514,0.872888168,-0.00261154791,0.107817528,-0.0114169659
94548.160941,0.246510228,-0.268356491,-0.173320674,-0.00278784914,0.0405830976,-0.0163589928
94548.170967,0.305915333,0.267741889,-1.43788585,0.0104882757,-0.0652573134,-0.0321078624
94548.180994,0.458584852,0.229214115,-1.21483931,0.0168337899,-0.111814159,-0.0295616153
94548.191020,-0.098570234,-0.210779897,-0.139006317,0.000696364472,-0.0672730606,-0.0194615748
94548.201047,-0.191862047,-0.189694859,0.92480248,0.0036934859,0.013420719,-0.0243463468
94548.211074,-0.197717348,0.0892589243,1.14425947,-0.00550294175,0.0616122161,-0.0188389297
94548.221100,-0.226269635,0.0316734809,0.50793725,-0.00523902263,0.0387724128,-0.0156276895
94548.231127,0.153875199,0.305714623,-0.352805135,0.0284502323,0.0109722086,-0.0254728634
94548.241153,0.151471498,0.603850487,-0.692201925,0.0300167038,-0.0394768517,-0.0291954305
94548.251180,-0.411658717,0.330073878,-0.845201114,0.00739474714,-0.0619310278,-0.0225535061
94548.261207,-0.202764695,0.154852875,-0.0124713561,-0.0330067367,-0.0306721709,-0.0348831404
94548.271233,-0.206142793,0.819862451,0.861035818,0.042080289,-0.00280139362,-0.0702768218
94548.281260,-0.355796325,0.903106187,0.730815447,0.0649696237,0.0523902227,-0.0737892639
94548.291286,-0.552070811,-0.434521232,0.753548087,-0.0168602576,0.083028299,-0.0481099997
94548.301313,-0.378031392,-0.785937326,0.094158296,-0.0320922078,0.0565311697,-0.0516932819
94548.311340,0.162399574,0.111031543,-0.736741908,0.0135871296,0.00654443749,-0.0603594731
94548.321366,0.16067085,0.260013815,-1.13071843,-0.0178975591,-0.0772471304,-0.0544914629
94548.331393,-0.251425923,-0.0444429048,-0.811091924,-0.0229815335,-0.0612673673,-0.0544091712
94548.341419,-0.509418688,0.497321008,0.0429179382,0.0160849078,-0.0371694888,-0.0637470137
94548.351446,-0.510969497,0.669168251,0.501874005,0.0298537168,0.00402269024,-0.0599879648
94548.361473,-0.279185452,0.0208548757,0.934513726,0.0671952314,0.0346543689,-0.033457021
94548.371499,-0.816101322,-0.379542491,0.409074725,-0.0426766739,0.0926164736,-0.0252949621
94548.381526,-0.415490623,-0.0306703179,0.101547237,-0.052910404,0.051669569,-0.0523697238
94548.391552,0.160826333,1.27383649,-0.973915172,0.0609889983,-0.0294529765,-0.082988086
94548.401579,0.298083471,0.934467247,-1.12596451,0.0798697493,-0.122437241,-0.0716821726
94548.411606,-0.727759679,-0.777667656,-0.360009952,-0.0346917191,-0.0642450477,-0.0180530313
94548.421632,-0.785974333,-1.13745301,1.17820382,-0.0572138072,0.0680634577,-0.0428747561
94548.431659,-0.362648091,0.909924634,1.1050702,0.0297564699,0.0726342325,-0.106466043
94548.441685,-0.154988944,1.00496797,0.0560784485,0.0479799493,0.0749415953,-0.0857964482
94548.451712,0.244450373,-0.643868842,-0.0868137727,-0.0099824208,0.0531233859,-0.0779387902
94548.461739,0.322831543,-0.538401914,-0.851929545,-0.0362803393,-0.0264001999,-0.0849098813
94548.471765,0.159694114,-0.148547514,-1.26407827,-0.00130930412,-0.122857499,-0.0740841355
94548.481792,-0.256719134,-0.366940053,-0.591478282,0.0139056009,-0.0727288153,-0.0406425509
94548.491819,-0.0275574734,-0.529799651,1.08499187,0.0250482674,0.0413727176,-0.0253900949
94548.501845,0.0117001858,-0.369032933,1.5313626,-0.0500379631,0.127227445,-0.0305608872
94548.511872,-0.074395943,0.0207341263,0.255726576,-0.0102679121,0.0296028808,-0.0503367211
94548.521898,-0.161673391,0.445959946,-1.37594699,0.0365318193,-0.081111918,-0.0410300407
94548.531925,0.326349926,-0.27864287,-0.417810399,0.0261268469,-0.00237848819,-0.0153944528
94548.541952,0.614125543,-0.695531371,1.07767775,-0.0518126913,0.0810969595,-0.0156919274
94548.551978,0.00302456578,-0.178024149,0.211326293,-0.0472384484,0.00764751411,-0.0242585156
94548.562005,0.246694498,0.33908874,-0.857394825,-0.0237336529,-0.0194128647,-0.0508837353
94548.572031,0.550807647,0.780100934,-0.392234643,0.0852359704,-0.0490080442,-0.0771880474
94548.582058,-0.137672483,-0.154875877,-0.43521863,-0.0191950944,-0.0384334277,-0.0175393622
94548.592085,-0.188885953,-1.65236207,0.529805968,-0.11229681,0.0148633488,0.00821074212
94548.602111,0.0587879541,0.156168515,0.733565038,0.0116251365,0.0159264833,-0.0295512814
94548.612138,0.247738016,1.44283857,-0.0226899678,0.0729984811,0.009934637,-0.0230853956
94548.622165,0.2705389,0.0957305224,0.294254752,0.0508114195,0.0223737296,0.00584931739
94548.632191,0.121171491,-0.667922722,0.225749956,-0.00940478101,0.051236802,0.0204367817
94548.642218,0.443099698,-0.536560012,-0.0973895272,-0.0286676918,0.0468210143,0.00936841799
94548.652244,0.496968213,0.0880252635,-0.811155636,-0.0649934762,-0.0569077793,-0.0221506271
94548.662271,-0.0173061285,0.719417114,-1.36625795,0.0630710146,-0.119960244,-0.0438220974
94548.672298,0.140910941,0.683928087,-0.232530988,0.0875369481,-0.0355521541,-0.0274109009
94548.682324,0.175129291,-0.900691905,1.47010529,-0.0354214699,0.033124109,0.0279903051
94548.692351,-0.432267132,-1.07609538,1.25929981,-0.104590153,0.0264174745,0.0296169643
94548.702378,-0.0860214989,0.94200283,0.648261082,0.0180793072,0.0894073595,-0.0148961747
94548.712404,0.629057739,2.14442646,0.14202947,0.131379226,0.10760687,-0.0825295474
94548.722431,0.351499273,1.03756047,-1.1165391,0.105926337,0.00656227605,-0.0546616975
94548.732457,0.416759242,-1.83040875,-1.64821495,-0.0330533848,-0.0517020959,0.0122259904
94548.742484,0.394772451,-2.09544836,-1.07728202,-0.0997511872,-0.13472348,0.0394456286
94548.752511,0.0215664769,-0.109272639,-0.549130255,-0.0454565265,-0.149100016,0.00596649639
94548.762537,-0.0392448424,1.21539965,0.810159032,0.0483016579,-0.0592731971,-0.029848757
94548.772564,-0.686338631,1.00000538,1.61350312,0.025759863,0.0367465441,-0.0439243641
94548.782591,-0.588933246,-0.153301175,1.8271032,0.00238929389,0.148571347,-0.0251938205
94548.792617,0.119701711,-0.412322771,1.1726193,0.0511970467,0.139466261,-0.0315097708
94548.802644,0.0422394087,-0.178813162,-0.893231862,0.00793692403,0.0570619341,-0.0138940269
94548.812670,0.475802091,-0.857927846,-1.58803374,-0.0675636881,-0.0684507142,0.00628900548
94548.822697,0.178708611,-0.148078015,-1.73537476,0.0403366743,-0.141930799,-0.00768886114
94548.832724,-0.100936233,0.733635901,-0.907119518,0.00812893853,-0.0940458279,-0.0240361418
94548.842750,-0.121053722,-0.0566672942,1.06347738,-0.0449523905,-0.0317358475,-0.0142610108
94548.852777,-0.554261234,0.0910514794,1.19776719,0.0246762226,0.0463517655,-0.036076295
94548.862804,-0.734162532,0.772895314,0.577854836,0.0528793654,0.0598414738,-0.0234292101
94548.872830,-0.396214991,-0.280382188,0.0882639773,-0.0332280898,0.0577966992,0.0189249043
94548.882857,0.374625443,-0.305033303,0.128133631,-0.0509032213,0.0261130754,-0.0114420557
94548.892883,0.47908725,1.36143966,-0.562317069,0.023498839,-0.0343563955,-0.0526185173
94548.902910,0.376337216,1.45859948,-0.727061641,0.051660171,-0.0240733966,-0.0654466998
94548.912937,-0.180910883,0.462344533,-0.419320803,0.0649959466,-0.0422468099,-0.0403996695
94548.922963,-0.313888078,-0.538101214,-0.228225984,-0.0564854757,-0.0419474717,-0.0133384911
94548.932990,-0.0553910906,-0.556463092,0.623037209,-0.0856364348,-0.0632343839,-0.0425317947
94548.943018,-0.493567842,1.13788313,0.609715955,0.157256911,0.034782992,-0.085775676
94548.953044,-0.0443098707,1.15084191,0.731745421,0.151082898,0.156691318,-0.0823985215
94548.963071,-0.0989448395,-1.37560615,0.30922728,-0.0907462442,0.0912521307,-0.0296484891
94548.973098,0.01736771,-2.12639515,-1.26803782,-0.0936136671,-0.105335499,-0.00406110359
94548.983124,0.355723028,0.18712452,-1.85599436,0.0958369545,-0.148295755,-0.0410380278
94548.993150,0.13965948,0.759025705,-0.0906353768,0.0733625389,-0.0545234482,-0.0196488526
94549.003177,-0.100117829,-0.971974715,1.5452222,-0.0881986597,0.0615221944,0.00990105068
94549.013203,-0.145053387,-0.583708461,1.43123926,-0.0648869478,0.0874592562,-0.0257874381
94549.023231,-0.241896243,1.29226004,-0.461541988,0.0919988028,-0.033171023,-0.0594985325
94549.033256,-0.0460464122,0.845901952,-1.06026484,0.0315224103,-0.0319808561,-0.0325816933
94549.043284,0.421394136,-0.923837365,0.628852617,-0.0669194737,0.033609872,-0.0114492455
94549.053311,0.0682624694,-0.0323723908,0.336788656,0.0217675197,0.00789465499,-0.0551908675
94549.063337,-0.25836281,1.082597,-0.896375421,0.067488136,-0.0176421299,-0.0532297145
94549.073364,0.0892911558,-0.313001761,-0.46032326,-0.0344020107,-0.0601227458,-0.0244068529
94549.083391,0.0865086124,-0.695075079,0.298943202,-0.00718556877,-0.0471659328,-0.0206392806
94549.093417,-0.149972139,0.449328144,0.58017305,0.0566927439,0.00425597863,-0.03575272
94549.103444,-0.733485802,0.227734617,0.537642653,-0.0151939613,0.0555426006,-0.0152093617
94549.113471,-0.318190671,-0.644444743,0.706945326,-0.0853988805,0.100142029,-0.0255349714
94549.123497,0.164268582,0.61884088,-0.0993465065,0.0230477008,0.0186229341,-0.0732196744
94549.133524,0.0620821733,1.20536604,-1.43953128,0.0721489361,-0.104269433,-0.0658349942
94549.143550,-0.466017207,-0.409306272,-0.840036863,0.00161085199,-0.0704299759,-0.0140921658
94549.153577,-0.598302255,-0.846417952,0.656003074,-0.0309268513,-0.00986942719,-0.0172328342
94549.163604,-0.777641389,0.360489584,0.908219594,0.0178694504,0.0623477746,-0.0303869832
94549.173630,-0.383115417,0.502469002,0.706792181,0.0222831073,0.0514445279,-0.0225394469
94549.183657,-0.317019435,0.0712707016,0.227197816,-0.0176592485,0.0630745564,-0.027280404
94549.193684,-0.0408800424,0.596446276,-0.0189122028,-0.033248862,0.131064524,-0.0857530411
94549.203710,0.309516719,1.12792587,-0.999552302,0.0760946742,-0.0475251961,-0.0900814783
94549.213737,-0.0982720548,-0.224508837,-2.39375801,-0.0407267527,-0.171883891,-0.0548233528
94549.223764,-0.402697558,-1.22475683,-0.349802446,-0.054344827,-0.154781083,-0.0301851135
94549.233790,-0.54150967,-0.0244301905,1.30584704,0.00131896956,0.00500219618,-0.0731072824
94549.243817,-0.365552288,0.559305061,2.29597627,0.0125053109,0.115151067,-0.094777162
94549.253844,-0.884840658,-0.375139799,1.29588386,0.0883382878,0.183203896,-0.0477553222
94549.263870,0.0640331612,-1.51518326,-0.076316344,0.000444653737,0.219598388,0.0151762396
94549.273897,0.617718014,-1.56626287,-1.37538936,-0.174427828,-0.00488532171,0.016385847
94549.283923,0.401628601,0.0731786906,-3.08326529,-0.0232801174,-0.258755143,-0.00282433236
94549.293950,0.378262923,1.56046177,-2.25856394,0.10757936,-0.210186015,-0.00672133526
94549.303976,0.150905462,0.414699569,1.41630648,0.0164486545,-0.0837777432,0.00718702303
94549.314004,-1.019607,-0.646324346,2.39542098,-0.0275499632,0.120100019,0.0195704561
94549.324029,-0.382772156,-0.140503342,2.148388,-0.0244175528,0.210795571,-0.0155252142
94549.334057,0.471539172,0.738385653,0.505168954,-0.0325628312,0.0843678538,-0.0513402026
94549.344082,0.497729699,0.723601268,-1.39678286,0.0648939482,-0.0304418139,-0.0559772987
94549.354110,0.343842475,-0.0598800549,-1.72058343,-0.0415299625,-0.0789446335,-0.049299686
94549.364137,0.0752311393,-0.895303271,-0.636871667,-0.0760977918,-0.0947275932,-0.0472357373
94549.374163,-0.34428139,-0.202774632,-0.0621656536,-0.0225690526,-0.0939291816,-0.0328472096
94549.384190,-0.470179514,0.296390147,0.807934342,0.0647498763,0.0131157835,-0.0125054547
94549.394217,0.343404595,0.0498103092,1.98218563,-0.00208028938,0.163338577,-0.00404113045
94549.404243,0.268533843,-0.354924073,1.40339614,-0.0507804507,0.152290453,-0.00101950744
94549.414270,-0.129943643,0.434546864,-1.2804443,0.0517323411,-0.00404323009,-0.0244617153
94549.424297,0.358970047,0.533077271,-2.33779471,0.0527398161,-0.0869706075,0.015154402
94549.434323,0.993719465,-0.996536179,-0.492116575,-0.129520019,-0.0563753347,0.0180400919
94549.444350,0.318630146,0.0812953296,0.420691513,-0.00352932905,-0.120119425,-0.0221781682
94549.454377,-0.537034717,1.66056436,-0.100282326,0.0727044514,0.0302157507,-0.0626928385
94549.464403,0.00842364834,0.722954129,1.50529,0.0533169082,0.0804389764,-0.0659418952
94549.474430,-0.138767439,-0.824298913,0.505817774,-0.00497782251,0.080519398,-0.0160022981
94549.484457,0.638527432,-1.5785767,-0.0885287599,-0.0528934167,0.0391210963,0.0104996173
94549.494483,0.300931115,-0.472708156,-0.971616832,-0.0478581765,-0.124604988,-0.0156283889
94549.504510,-0.348098318,0.669717117,-1.11581955,-0.00344677103,-0.0523475695,-0.0273249939
94549.514537,0.384521837,0.842401323,0.953841527,0.101124639,0.035963652,-0.0407449256
94549.524563,0.246600829,-0.0680312674,0.943283893,-0.0020446167,0.0876409609,0.00908574482
94549.534590,0.0561530755,-1.38994886,0.402686485,-0.0873374098,0.0657516394,0.0361312118
94549.544617,0.0550063897,0.0895572406,-1.00000355,0.0125295318,-0.0426193092,-0.0181954101
94549.554643,0.0885554619,1.3386702,-1.62563194,0.0252916667,-0.0927767481,-0.0366609718
94549.564670,0.172924913,0.19166863,-0.174706576,0.0159010946,-0.0828322421,-0.0318422492
94549.574696,-0.155590417,-0.18603535,0.73532854,0.0475327915,-0.0196665886,-0.0243137561
94549.584723,-0.110418493,-0.500755855,1.22191846,-0.0316009128,0.0984664459,0.00302359156
94549.594750,-0.0210634352,-0.638945853,1.07376788,-0.0184416992,0.0982411404,-0.0107252437
94549.604777,-0.170219977,0.311461441,-1.03622111,0.0240983053,-0.0399002198,-0.0169200234
94549.614804,-0.102482074,-0.1473457,-1.68671098,-0.00575519932,-0.136998023,0.0101060022
94549.624830,-0.180926811,-0.774725977,-0.187134096,0.0239933769,-0.0631125967,0.0327511255
94549.634857,-0.203750053,-0.232426551,1.19391051,0.0198308549,0.0872651909,0.0167844121
94549.644884,-0.337672201,-0.0179399334,0.992200192,0.00857846652,0.0935734187,0.0207376082
94549.654910,0.188695021,-0.371903411,-0.386357276,-0.00651712969,0.00613065367,0.0250292916
94549.664937,0.361838881,-0.245076482,-1.03718324,0.0131090361,-0.0899833615,0.0270868495
94549.674964,-0.350092999,-0.181627726,-1.00456692,-0.010441031,-0.103514883,0.0364787553
94549.684990,-0.685446359,-0.0169330853,0.175733002,0.00911695723,-0.0120305063,0.0238612287
94549.695017,-0.249887169,0.215614519,1.08867144,0.0142573912,0.0528755237,0.0208502591
94549.705044,0.118712188,-0.17798104,1.03481534,-0.00148988023,0.0786448021,0.0310381811
94549.715070,0.0306407408,-0.19738271,0.040765144,-0.0226835811,-0.00475288625,0.0243051771
94549.725096,-0.44553008,0.220100249,-1.0184382,0.00975132201,-0.0488076943,0.0102103979
94549.735124,-0.224300454,0.206550192,-0.626000145,0.0191568102,-0.0310473393,0.0102524759
94549.745149,-0.18021859,-0.349606969,0.208774855,-0.056718515,0.0308791429,0.0158054318
94549.755177,0.074513931,-0.154637647,0.447532758,-0.0229384468,-0.015828707,-0.0134584464
94549.765204,-0.0575574018,0.546074663,-0.307170342,0.105253341,-0.01244303,-0.000817219522
94549.775230,0.103056719,-0.281370487,0.0801104815,0.00516482655,0.0146303989,0.0268884443
94549.785257,-0.143710083,-1.2631266,0.481138091,-0.134844741,0.0131464854,0.0494661901
94549.795284,-0.221302514,0.0666083038,-0.120956865,0.00457466979,-0.00158931734,0.00154260753
94549.805310,0.155500608,1.94850101,-0.614504353,0.0602485857,-0.00383489486,-0.0497386928
94549.815337,0.271180266,0.869087743,-0.269561619,0.0873148239,-0.0643805291,-0.0147785757
94549.825364,-0.373820058,-1.07669422,-0.240843474,-0.0739590206,-0.037570222,0.0408785615
94549.835391,-0.645630773,-1.06101457,0.750868055,-0.0391981096,0.032153466,0.0210931387
94549.845417,-0.188683124,1.05083452,0.464644636,0.0309634006,0.0483404261,-0.0351837154
94549.855444,0.0987576339,1.11145383,0.0148795921,-0.00933155857,0.0160621137,-0.0298813626
94549.865471,-0.0720905887,0.22165937,-0.296636673,0.0666675961,-0.0343017231,-0.0316656779
94549.875497,-0.497583069,0.122169616,-0.903581407,0.0430922343,-0.0752329107,0.0129470622
94549.885524,-0.532427004,-1.033365,0.300144979,-0.142621165,0.0217815184,0.0521067131
94549.895551,-0.110053386,0.0961003969,1.49204941,0.0252527858,0.131432642,-0.0164422512
94549.905577,0.308325463,2.39067384,-0.416933031,0.12115028,0.00826251437,-0.105277854
94549.915604,-0.399251217,0.347094279,-1.53322956,0.0271526838,-0.111408758,-0.0405150976
94549.925631,-0.447081912,-2.56129741,-0.107278469,-0.091119101,-0.0274635244,0.0576370333
94549.935657,-0.0425468066,-1.41617694,1.17037708,-0.0791362056,0.0164288313,0.0143588038
94549.945683,-0.873400322,1.34145457,0.2241735,0.0445670954,-0.00467272545,-0.0462363686
94549.955710,-0.439624582,0.99170385,0.143718738,0.120986501,0.0684504856,-0.00384736413
94549.965737,-0.012060629,-1.17242473,0.71455171,-0.0266101469,0.131071245,0.0445481289
94549.975763,0.38968565,-1.27980477,-0.0505897821,-0.113418279,0.0387738172,0.0278929893
94549.985790,0.236951103,0.444569551,-1.70873634,-0.0194699445,-0.140855874,-0.0160012327
94549.995817,-0.421508787,1.37367225,-1.81810097,0.084733153,-0.134215007,-0.0339024689
94550.005843,-0.399385803,0.192530106,0.521724952,-0.00913501691,-0.0619855474,-0.0105609268
94550.015870,-0.768953494,-0.762117474,1.76212541,-0.0558673681,0.0742276807,-0.000810295139
94550.025897,-0.262443503,0.0199265819,1.8682968,0.0132022465,0.188557972,-0.0244128264
94550.035924,0.166388497,0.687911311,0.375877389,-0.00518741339,0.117298988,-0.0409603815
94550.045950,0.106435402,-0.011834374,-1.62923201,0.00525537392,-0.0464619833,-0.0165114932
94550.055977,0.00207442544,-0.711294831,-2.07437232,-0.0314810702,-0.134307693,-0.00162548924
94550.066004,-0.634440759,-0.333016448,-1.03285894,0.00311658954,-0.142773877,0.0112381114
94550.076030,-0.57290456,-0.139181537,0.797940771,-0.00833926417,0.00091565191,0.00830463992
94550.086057,-0.244165284,0.00663115203,2.17575064,0.00673262941,0.123456215,-0.00241724661
94550.096084,-0.138011798,0.151854899,1.34066175,-0.0136368244,0.124502038,-0.0164648879
94550.106110,-0.108495343,-0.0409191648,-0.320581612,0.00987942078,0.0337657456,-0.00557149461
94550.116137,-0.166903692,-0.580594165,-1.41636668,-0.0632054486,-0.000275579978,0.0187927012
94550.126164,-0.210208435,-0.146682085,-1.24579968,-0.0597633065,-0.0472734484,-0.00453898663
94550.136191,0.488130096,0.89666892,-0.727763067,-0.0465316565,-0.101984101,-0.0169162944
94550.146217,0.119858436,0.936757769,0.330034506,0.0416192396,-0.0841358553,-0.00830203367
94550.156244,0.0819713343,0.577046104,1.3541566,0.0387456923,0.0594095897,-0.01490108
94550.166271,-0.169083959,0.144110248,1.81060975,-0.0946917289,0.147776191,-0.0159184083
94550.176298,-0.507512781,0.348393269,0.132173846,0.0773974753,0.0786533256,-0.0277012966
94550.186324,-0.0147266334,0.731699526,-1.98898653,0.00632809501,-0.0669941555,-0.0189687934
94550.196351,0.360713822,-0.606278093,-0.98218791,-0.0935601571,-0.0766925912,0.00142649349
94550.206378,0.321311494,0.465124775,0.392866517,0.0542926921,-0.0292513042,-0.0676114287
94550.216404,0.263733165,1.28139626,0.489783754,0.0992455131,0.0628338803,-0.0579987492
94550.226431,0.337948594,-1.05809408,0.841384776,0.00909645137,0.0918197234,0.0055461379
94550.236458,0.17372074,-1.70152445,-0.272695241,-0.161762899,-0.0084453586,0.0216774356
94550.246485,-0.571026637,0.44728429,-1.46522219,-0.0200156269,-0.136400128,-0.0242064304
94550.256511,0.258545241,2.18683806,-0.835495712,0.116449805,-0.0333222139,-0.0446997236
94550.266538,1.23505949,0.734066109,1.57417707,0.0846468679,0.0470021863,-0.0501695897
94550.276565,-0.481384506,-0.883795204,0.895841174,-0.0273001713,0.0510107775,0.00263769945
94550.286591,-0.279311051,-1.37073065,-0.145953359,-0.103575771,0.0546356041,0.0049080441
94550.296618,0.374204003,0.650907641,-0.460595647,0.00320900118,-0.0276345003,-0.0593910541
94550.306645,0.38817656,1.79947233,-1.3389222,0.142011101,-0.0803754728,-0.0671152871
94550.316672,0.445054924,-0.287566693,-0.32228374,0.0467010869,-0.0425420764,-0.0158323876
94550.326698,-0.130994102,-1.96007616,0.705212219,-0.0807037481,-0.0641664143,0.0207210958
94550.336725,-1.11205425,-1.01194893,0.379421345,0.00631664347,-0.0301948625,0.0387680058
94550.346752,0.0335158579,0.208084361,1.21087392,0.0155522202,0.12545145,0.0205573116
94550.356779,1.09860651,0.449577187,2.01230838,-0.00408992471,0.237306078,-0.0366311397
94550.366805,0.650573405,0.461192038,-0.641347351,0.0799357316,0.0253656015,-0.0392327856
94550.376832,-0.0660010397,-0.700456699,-3.38534386,-0.132121658,-0.226154784,0.00542629531
94550.386859,-0.15520098,-0.994163239,-1.50622932,-0.159482171,-0.264104034,0.0106474228
94550.396886,-0.378066171,1.30071851,1.06083826,0.00743783431,-0.132796074,-0.0564479928
94550.406912,-0.323656535,1.81153657,2.75953369,0.189633737,0.199021538,-0.0847667184
94550.416939,0.17222714,0.0377064409,3.016894,0.0846271611,0.440850442,-0.0373230304
94550.426966,0.173150685,-1.91880979,0.0472311252,-0.127666181,0.171092962,0.00737865848
94550.436993,0.733186806,-1.54984745,-3.62090092,-0.0755802074,-0.193243305,0.0457185555
94550.447019,1.09048458,1.11178262,-3.58718453,0.0439153,-0.245361368,0.0178943791
94550.457046,0.75386931,1.47860576,-0.520298713,0.0266566857,-0.123690056,-0.00703067871
94550.467073,0.510209022,0.505767714,1.59964294,2.00154049e-05,-0.0223621081,-0.0133114772
94550.477100,-0.539896974,0.0887968506,1.14574942,0.00122083471,-0.0209333214,-0.00588152444
94550.487126,-0.38647956,0.382684648,0.757405932,0.00620760376,0.00781496917,-0.0246608022
94550.497153,0.0543263715,0.61175695,1.21444827,0.0458823091,0.0579604295,-0.0294726033
94550.507180,-0.325189517,0.382274167,0.699948015,-0.0136292174,0.115751026,-0.0571239393
94550.517206,0.263688888,0.189122781,0.0425876833,0.075202646,0.0756773774,-0.0483821135
94550.527233,0.12865834,-0.273950255,-1.51071611,0.00252285417,-0.0385189715,-0.0238373529
94550.537260,0.679406409,-1.24904562,-0.908915753,-0.117485044,-0.0571467194,0.0058899142
94550.547287,0.789649064,0.227839666,-0.0152215316,0.0352994411,-0.0766397219,-0.0452414442
94550.557313,-0.281268615,1.93719153,-0.608860794,0.11584382,-0.0831415679,-0.0582382034
94550.567340,-0.344875264,-0.127767496,0.589517801,-0.0319155471,-0.0107784222,-0.00146067681
94550.577367,-0.592812499,-1.1017263,1.43763919,-0.041702667,0.0557247077,0.0200901564
94550.587394,-0.0933842828,0.681888617,0.834602569,0.0168320185,0.125594069,-0.0257742729
94550.597420,0.46221824,1.56512874,-0.104597851,0.0490030034,0.0380221431,-0.049760564
94550.607447,-0.109694782,0.589968969,-1.44372347,-0.0170388629,-0.0856827523,-0.0477123249
94550.617474,-0.167026515,0.0386307115,-1.11849958,0.0376749805,-0.0845165576,-0.0705494683
94550.627501,0.304430575,0.367246329,0.384469276,0.0390869885,0.0185917162,-0.0943866249
94550.637527,0.188243478,-0.647476073,1.02649643,-0.0512753965,0.00804693089,-0.0520005476
94550.647554,-0.619979688,-0.940059966,-0.0195341341,-0.0665760541,-0.0120213197,-0.0332202043
94550.657581,-0.384028002,0.579938647,-0.0869797769,-0.0766542607,-0.0127808533,-0.0602483552
94550.667608,-0.355807577,2.02214624,-0.0670674542,0.0768663234,-0.0330789338,-0.0783977981
94550.677635,-0.548453571,1.9737788,-0.0481353747,0.0760479367,0.022096704,-0.0921788614
94550.687661,-0.179617336,0.417416427,0.977119527,0.0703375882,0.0678543423,-0.067376579
94550.697688,0.148973398,-0.640701099,0.462626867,0.0226454328,0.0553308253,-0.045288584
94550.707715,-0.282968405,-1.0650108,-0.412363824,-0.0308116672,0.0380943131,-0.0159772996
94550.717742,-0.314606967,-0.448068988,-1.21367027,-0.0447450594,-0.05556853,-0.070306855
94550.727768,-0.52395129,0.953333787,-1.34533909,-0.00288362914,-0.0802341949,-0.110705937
94550.737795,0.206382362,0.743004545,-0.0545575167,0.0611273109,-0.0977316971,-0.123842778
94550.747822,-0.597194878,-0.107016229,0.635581633,0.0444822854,-0.0418588433,-0.0887220751
94550.757849,-0.954690293,-1.03937506,1.41368373,-0.0276821868,0.102356126,-0.0510567229
94550.767875,-0.56533902,-0.782706747,1.41096103,-0.0210426596,0.148211484,-0.0540461194
94550.777902,-0.611592602,0.320419001,-0.644557546,-0.00867334168,0.0309288104,-0.0598603364
94550.787929,0.0704110257,0.102804936,-1.37578449,-0.0449551844,-0.0249560259,-0.0489176724
94550.797956,0.386311643,0.217495949,-0.69946987,0.0185827802,-0.0666299711,-0.0919359799
94550.807983,-0.410763375,0.747389263,-0.812877638,0.0770271814,-0.0969479259,-0.0799882438
94550.818009,-0.767905519,-0.977258939,0.152282568,-0.0298614499,-0.010557913,-0.0228850085
94550.828036,-0.376411243,-1.32448021,1.38383044,-0.142687609,0.0442539391,-0.0294987026
94550.838063,-0.490421507,0.758554581,1.06684773,0.00247145517,0.082446595,-0.0652058299
94550.848090,-0.132578667,2.08115518,-0.397751945,0.112768667,0.0521131952,-0.115379254
94550.858116,-0.0344701754,0.710616772,-0.697640901,0.000314561012,-0.0205258585,-0.0746845554
94550.868143,-0.296626124,-1.15760272,-0.641197129,0.00443047637,-0.088352571,-0.0341818694
94550.878170,-0.38029561,-0.4781422,-0.206337978,-0.0527321489,0.0286115941,-0.0430222329
94550.888197,0.194107986,0.39228005,1.22776018,0.018388903,0.101935876,-0.078399929
94550.898224,0.352310151,0.780388446,-0.139921678,0.0647532067,0.02889895,-0.0717220556
94550.908250,0.295999942,-0.706263047,-1.1457915,-0.0341552661,-0.0755217324,-0.0263649586
94550.918277,-0.400842358,-0.939601774,-0.94814594,-0.00573800524,-0.117224972,-0.0290038872
94550.928304,-0.479533764,0.280443239,-0.123096215,-0.00659607557,-0.0330701421,-0.0368799183
94550.938331,-0.0336365741,0.0770659119,1.47484167,-0.023015795,0.0619402577,-0.0283495474
94550.948358,-0.101155063,0.461808234,1.09948743,0.0905885271,0.0757570018,-0.0551087212
94550.958384,-0.594320711,0.428906301,-0.402805722,-0.0549795904,0.00516086328,-0.0439162578
94550.968411,-0.486333507,-0.543990016,-0.454211499,0.00917569667,0.0419186142,-0.0533007037
94550.978438,1.10872225,0.194476837,0.0653337681,0.105759757,0.0513762955,-0.0662785571
94550.988465,0.71628594,-0.406108865,-0.563059412,-0.0728850865,-0.0146629091,-0.0319477457
94550.998491,0.334834846,-1.42697072,-0.779085843,-0.0917501205,-0.07023562,-0.0211659398
94551.008518,-0.308990735,0.707813112,-1.29858961,0.0837764314,-0.163573037,-0.0575436529
94551.018545,-0.331748656,0.76731218,-0.263648011,0.0495880975,-0.0805577661,0.00108583804
94551.028572,1.03350195,-1.26909632,2.7203491,-0.0149922238,0.12784337,0.0143795397
94551.038599,0.0604165782,-0.209753988,1.83464003,0.00468400939,0.15275537,-0.00564210562
94551.048625,-0.647552243,0.578074533,-1.08205815,0.0142380998,-0.0193727098,-0.0422464561
94551.058652,0.286422186,-0.198653991,-1.53281396,-0.00474251547,-0.0973141144,-0.00589989943
94551.068679,0.718391096,-0.716688872,-0.0949193377,0.0256894252,-0.0288469053,-0.0180292677
94551.078706,0.500970873,-0.043436591,0.700583975,0.056151992,0.0389507872,0.00390692448
94551.088733,0.205099701,-0.550675704,0.189816472,-0.0277085507,0.0364239786,0.0301094998
94551.098759,-0.0214726005,-0.41279722,-0.55926528,0.0298910945,-0.0644195478,0.0250175346
94551.108786,-0.131507896,0.200257795,-1.11828974,0.0612295738,-0.0725629579,0.0269683015
94551.118813,0.840502541,-0.928174444,0.669549369,-0.0400216782,0.00717501179,0.0326853108
94551.128840,0.416931895,-1.09842594,1.27193074,-0.0338583232,0.00749139511,0.026127008
94551.138867,-0.68854301,0.000238245254,-0.26619185,0.00942283802,-0.0432335648,0.00912858473
94551.148893,-0.722346933,0.656458407,-0.288977098,0.0904814697,0.0432480623,0.0120415494
94551.158920,1.08408648,-0.498950413,1.18850193,-0.0495264993,0.110343208,0.0372592893
94551.168947,0.976306777,-1.23508285,0.601235127,-0.0583279819,-0.0122642003,0.0539943289
94551.178974,-0.394089815,0.136173592,-1.7815327,0.0429954438,-0.12485865,-0.00079595184
94551.189001,-0.279895573,0.395839678,-0.927178555,0.0418060778,0.00458535389,0.0215748672
94551.199027,0.780931504,-1.35227934,1.24868314,-0.0422041395,0.0264557649,0.0600815129
94551.209054,-0.195258192,-1.37379632,0.310999551,-0.109610347,-0.0335159588,0.0733051721
94551.219081,-0.0849282968,0.141232264,-0.146203535,0.0296601991,-0.00823590229,0.0451222707
94551.229108,0.329353638,1.26788708,0.27326574,0.0392220116,0.0866128479,0.0150511882
94551.239135,0.339487421,0.384782862,0.220682151,0.00268583957,0.0284355592,0.0379013766
94551.249162,0.340718424,-0.70686167,-0.970343159,-0.043640116,-0.0515106719,0.0587848213
94551.259188,0.311197512,-0.384544318,-1.02929394,0.0420100747,-0.123251701,0.0690012399
94551.269215,0.138037432,0.0548757074,-0.146501056,0.0310178774,-0.0669181223,0.0822070588
94551.279242,-0.243641845,-0.320953451,1.22268594,-0.0646737644,0.0256235276,0.0824304942
94551.289269,-0.10932171,0.15880785,1.51242058,0.00128315276,0.0896810715,0.0440088038
94551.299296,-0.0193030744,1.18766525,0.298239438,0.0698928407,0.0698509116,0.0154344171
94551.309323,-0.284085718,0.0117963619,-0.791721453,-0.0412603148,0.00251874095,0.0403051462
94551.319349,0.423801489,-1.16978364,-0.554105121,-0.0660878995,-0.0654938619,0.039005791
94551.329376,0.292891528,-0.173689846,-0.245586285,0.0119608308,-0.0357713874,0.0228944637
94551.339403,0.0189709805,0.217766016,0.219483296,0.0852664656,0.00647433405,0.0458562385
94551.349430,-0.293203529,-0.894480338,0.321178999,-0.0573649832,0.0463200186,0.086203662
94551.359457,-0.487126849,-1.18539294,0.186592834,-0.065585626,0.0124906816,0.104416219
94551.369483,0.245232828,0.253314044,-0.501243884,-0.0281122864,-0.0324325848,0.0703120429
94551.379510,0.39255251,1.10908111,-0.128099138,0.0184626712,-0.028587247,0.054701132
94551.389537,-0.29585872,0.537988534,0.0772995157,0.0269506986,-0.0178786765,0.0573096957
94551.399564,-0.660407341,0.00361468572,0.0440203464,0.00442195431,-0.0231786321,0.0739126403
94551.409591,-0.538869458,-0.485010515,0.417864765,-0.112541688,0.00145214494,0.0792235185
94551.419618,-0.309669292,0.317696554,1.0642092,0.00658310976,0.0433500607,0.0279888261
94551.429645,-0.884991026,1.59703355,0.0597813947,0.211204956,0.00199170131,0.0314618547
94551.439671,-1.06410176,-0.494048904,-0.151331545,-0.0725239494,0.133445462,0.111449068
94551.449698,0.863754237,-1.97201122,1.76903504,-0.177163547,0.256356989,0.106985343
94551.459725,1.33789311,1.26232463,-1.0077736,0.0507029055,0.0450120021,-0.0107839022
94551.469752,-0.485403533,2.4739384,-4.52079809,0.0395519829,-0.293357516,-0.0361577
94551.479779,-0.556845844,-0.436707563,-2.61569278,0.0423842541,-0.279573018,0.0562382762
94551.489806,0.360491192,-1.78522258,1.42799692,-0.065125955,-0.0473767843,0.107153391
94551.499832,-0.124665775,-0.517292673,3.2913621,-0.0715774649,0.0728971635,0.0748228777
94551.509859,-1.27932089,1.26344121,1.19857383,0.00990780562,0.0528004181,0.0306982931
94551.519886,-0.922249766,1.49112549,0.148428231,0.0567038081,0.100748507,0.00382060671
94551.529913,0.338453987,0.239175245,0.497171526,0.00956558928,0.117766639,0.0224193234
94551.539940,0.61462509,-0.687970727,-0.369921689,-0.0108771014,-0.00760806468,0.0358461861
94551.549967,-0.803253311,-0.404244167,-2.09248373,-0.0580677816,-0.0986274506,0.0676517833
94551.559994,0.144008981,0.130971539,-0.818463329,-0.107815629,-0.0194913547,0.0337667886
94551.570020,1.28757718,1.48050195,0.607004943,0.0314035102,-0.0704320322,-0.0585341107
94551.580047,-0.240922503,1.40190129,-0.193712889,0.0833921454,-0.0744328971,-0.0102685809
94551.590074,-0.649913054,-0.859341073,0.644426034,-0.0699516067,0.00589575968,0.0463134695
94551.600101,-0.432624421,-0.447927095,1.38871178,-0.0650769525,0.136054551,0.0228646055
94551.610128,0.450707908,1.69469094,0.430343138,0.090656454,0.0545953859,-0.0337254356
94551.620155,-0.0443974759,1.43917625,-1.32559744,-0.0127176128,-0.0764236103,-0.00126709675
94551.630182,0.0397173429,-0.307662482,-0.513936777,0.0300950988,-0.036623473,0.0234403808
94551.640208,0.760150947,0.715427314,0.777183815,0.0757219738,0.0824280877,-0.012539991
94551.650235,0.800079711,0.442416282,0.969956796,-0.0760036388,0.0690781896,-0.00370175837
94551.660262,0.326918959,-0.33950234,-0.345900762,-0.0141802204,0.0183135469,-0.0240128904
94551.670289,0.603933234,0.857463137,-1.29353642,0.0278324767,-0.0664447497,-0.077107529
94551.680316,0.208288634,0.452114852,-0.940869812,0.00942923528,-0.0961765449,-0.0438718151
94551.690343,0.80246529,-0.88051326,0.623724607,0.00779245681,-0.00776732177,-0.0124853968
94551.700370,0.268596533,-0.170501845,1.17935767,-0.0127841911,0.0373215911,-0.0181059975
94551.710397,0.0230639489,0.393942649,0.466609214,0.013559798,0.0904998605,-0.0211726267
94551.720423,0.339099664,0.854709528,-0.340616684,0.035699988,-0.00848531048,-0.0576760422
94551.730450,0.469903753,0.735441855,-1.17745738,0.0486562646,-0.0710786458,-0.0339302372
94551.740477,0.699865844,-0.68614753,-0.303759072,0.0241554512,-0.0769194912,-0.000498774257
94551.750504,-0.0959581518,-0.750217851,0.258216055,-0.0661709809,-0.0502378184,0.00487362055
94551.760531,-0.502586869,0.189067087,0.802328777,-0.0712277868,0.00552984118,-0.0322750833
94551.770558,-0.0935406424,1.69348551,0.789363497,0.175501565,0.0799782474,-0.0712309953
94551.780585,0.803421276,1.047581,0.46536126,0.0779635555,0.113793199,-0.0669784646
94551.790612,0.407833812,-1.10910969,-0.324698984,-0.0819289067,0.015334002,-0.0256667107
94551.800638,-0.108734193,-1.28972016,-1.70062201,-0.0755162814,-0.139250259,-0.00910877323
94551.810665,-0.0822972907,0.939466078,-1.53770465,0.035999859,-0.130029316,-0.0614271041
94551.820692,0.58017052,1.65835311,0.594862085,0.0937185532,-0.0134126905,-0.0832794037
94551.830719,0.602273119,0.364245211,1.75991416,0.0927566162,0.0668973301,-0.0469206001
94551.840746,-0.0180177108,-0.880487614,0.828248231,-0.0149650543,0.0395176348,-0.0243148923
94551.850773,-0.767446231,-0.814174263,-0.500406849,-0.0740312987,-0.0539433386,-0.00191823931
94551.860800,-0.278772707,0.287613222,-0.558509494,-0.0195400992,-0.0425418157,-0.0562983852
94551.870827,0.380098979,1.62166326,0.539068886,0.116245965,0.0182014287,-0.117726336
94551.880854,-0.119717578,0.711425165,0.57836337,0.0704028479,0.0791422774,-0.0783893119
94551.890881,-0.024791735,-1.45985928,0.405742366,-0.091758629,0.0699778099,-0.0376512062
94551.900907,0.0886028082,-0.876534054,-0.631188361,-0.00460269369,-0.0550634663,-0.0528067227
94551.910934,-0.144765364,0.824616368,-1.70486856,0.0729102067,-0.0743966799,-0.0470239322
94551.920961,0.442557043,0.171261838,0.0189461109,-0.0645493844,-0.00462106312,-0.0478196841
94551.930988,0.29442619,0.277646503,0.839302709,0.0265746659,-0.0266563247,-0.08551726
94551.941015,-0.515615277,0.925310785,-0.319523627,0.0559714383,-0.0149562589,-0.0775538783
94551.951042,0.102002388,-0.463447978,0.563409546,0.0240944645,0.00533915893,-0.0531057965
94551.961069,0.0514128952,-0.92383415,0.609659841,-0.0325760038,0.0281121165,-0.0385050129
94551.971096,0.0747257471,-0.480086211,0.251244462,0.0128905459,-0.00489803194,-0.044362637
94551.981123,-0.43006648,0.384134116,-0.588336477,0.0130703089,0.0107847911,-0.0638838734
94551.991150,-0.0499350171,0.381314382,-0.284829331,0.0211663193,-0.0171570952,-0.0674786072
94552.001176,-0.0285834554,-0.124238417,-0.453344069,-0.0146779648,-0.0328010384,-0.0406009208
94552.011203,0.0790173799,-0.393217271,0.146667651,-0.0228674521,-0.0430656585,-0.045620444
94552.021230,-0.387114131,0.521522698,0.312567238,0.0256681259,-0.0128323871,-0.0694759738
94552.031257,-0.438159916,0.495131937,0.573334144,0.0497281871,0.0681721841,-0.0619514834
94552.041284,0.109368752,-0.26743059,0.66158409,0.0583461768,0.0652845178,-0.0378967475
94552.051311,-0.076436582,-1.02951037,-0.358891177,-0.0838192159,-0.00108598335,-0.00635959281
94552.061338,-0.102597517,-0.721340278,-0.80195117,-0.0268028041,-0.0883865308,-0.0291674368
94552.071365,-0.480876557,1.1375178,-0.883974204,0.0514379388,-0.0382306899,-0.0559662904
94552.081392,-0.0754134495,0.870888217,0.619634123,0.023819892,0.0446825672,-0.0651552629
94552.091419,0.223094427,-0.102587498,0.981443235,0.00114334238,0.0379125488,-0.0638540413
94552.101446,-0.61915332,-0.60973576,-0.24811025,-0.0139320136,-0.0375332076,-0.0377071302
94552.111473,-0.628581877,-0.831250778,-0.333345817,-0.0963994541,-0.0212082944,-0.0290760889
94552.121499,-0.0568357364,0.301622604,0.864109818,0.122441547,0.0927963082,-0.0511401173
94552.131526,0.488359374,0.921866928,0.260532515,0.0473704918,0.0900314127,-0.043133321
94552.141553,-0.318609846,-0.829686232,-0.72790686,-0.110891049,-0.0624071348,-0.00432547068
94552.151580,-0.262686518,-1.12262215,-1.11869657,-0.0202002951,-0.0860528003,0.0161475811
94552.161607,0.0267964134,1.20230964,-0.152171503,0.0973921141,0.00183763495,-0.0394634854
94552.171634,0.388584557,0.870660984,0.899597896,-0.00848691512,0.0645556126,-0.0340609949
94552.181661,0.0828026706,-0.779947073,0.751036397,-0.0681047046,0.0236531862,-0.0132268209
94552.191688,-0.631808073,-0.00154713576,-0.772626876,0.0272519088,-0.0834852483,-0.0452910166
94552.201715,-0.809606188,0.861121514,-0.753778968,-0.00507327422,0.0136791144,-0.0544866424
94552.211742,0.643232833,0.116987519,1.44544139,-0.0217489244,0.0886351143,-0.0670610245
94552.221769,0.485543075,0.393160303,0.640657037,-0.00518326295,0.0686899025,-0.0690975439
94552.231796,0.0222892382,0.460860724,-1.03912736,0.00762148181,-0.0219574429,-0.0732765745
94552.241823,-0.365500192,0.337379196,-1.57672967,0.0429701491,-0.0879806678,-0.0576121237
94552.251850,0.18397435,-0.624601247,-0.577632712,0.0213087986,-0.0844802062,-0.0203201499
94552.261877,0.51136864,-1.24527691,1.12436293,-0.0939072722,-0.00976336072,-0.00228096152
94552.271904,-0.229155274,-0.174309293,1.48269004,-0.0679294669,0.0255951632,-0.0443429302
94552.281930,-1.18121795,1.75379005,0.254956176,0.0846952296,0.0600175832,-0.0906853925
94552.291957,-0.536476133,1.66854542,-0.1646943,0.0674648455,0.0855945845,-0.0946399148
94552.301984,0.511659951,-0.300250964,0.272615752,0.0332794397,0.0755214442,-0.0376112561
94552.312011,1.07564116,-1.34568097,-0.291513338,-0.050471382,0.00362674659,-0.00683070606
94552.322038,0.280163418,-0.61905998,-1.21530751,-0.0399875843,-0.116291935,-0.030388762
94552.332065,-0.489688005,0.303611933,-1.16656307,-0.00478538658,-0.0896123822,-0.058952498
94552.342092,-0.229134377,0.870107515,0.32779871,0.0609435572,0.00855386094,-0.0812476825
94552.352119,0.197991404,0.131972633,1.17321142,0.0264649431,0.0760362346,-0.0503912296
94552.362146,-0.0869827451,-0.698254659,0.509188127,-0.018533956,0.0218211964,-0.0259884231
94552.372173,-0.107346246,-0.514349276,-0.565055554,-0.0197315791,-0.0580909464,-0.00997430159
94552.382200,0.22597422,0.115400515,-0.276539641,0.0306791293,-0.00603387016,-0.0325688299
94552.392227,0.263360167,0.353878094,0.54273793,-0.00770953737,0.0365490068,-0.0257348873
94552.402254,-0.189431458,0.0140060327,0.120448337,0.0260473604,0.0258119435,-0.0365614395
94552.412281,0.190694379,0.330298262,-0.436700393,0.0309997744,0.0154005822,-0.0247934617
94552.422308,0.596575565,-0.0739954639,-0.341839504,0.00220834048,-0.0342452701,-0.025835824
94552.432335,0.550222541,-0.174696685,-0.29415187,-0.00124125203,-0.0521720711,-0.0196977693
94552.442362,-0.0927847094,0.308206147,-0.153595399,0.0360002874,-0.0341262061,-0.0512440156
94552.452389,-0.312073357,0.4287449,0.21796237,0.00982141242,-0.0113814797,-0.0359782379
94552.462416,0.151690548,-0.32116998,0.866159152,0.0140273425,0.0576207575,-0.0262587674
94552.472443,0.292008827,-0.0670969183,0.707386056,-0.0215138734,0.0407861185,-0.0341513108
94552.482470,0.467131512,0.201085862,-0.040733574,0.00668021364,0.00150502427,-0.036741237
94552.492497,0.284028715,0.424429667,-0.645331453,0.0978836289,-0.0322601299,-0.0352290969
94552.502523,-0.592527983,0.0555663702,-1.00921562,-0.0116756239,-0.0102986384,-0.0021233389
94552.512550,0.414391636,-0.934849392,0.277139366,-0.0285653898,0.0032422042,-0.00989018081
94552.522577,0.494403477,0.23947547,-0.158414197,0.0937456063,-0.0609437067,-0.0253524937
94552.532604,-0.172837101,-0.0250863254,-0.402760714,-0.0524209232,-0.057407825,0.000722249243
94552.542631,-0.204332602,-0.630820414,1.09176239,-0.0587805526,0.0118087942,-0.0323249202
94552.552658,-0.265682996,1.23983661,0.87141225,0.0171187411,0.091904429,-0.105069692
94552.562685,0.218162304,1.08646661,0.463342322,-0.0291195938,0.0204696611,-0.118488299
94552.572712,0.379394776,-0.612433401,-0.227943076,0.0664540625,-0.0222642205,-0.0684288543
94552.582739,0.06272807,-1.38196984,-0.360668123,0.0285274557,0.10049126,-0.00075979976
94552.592766,-0.183284918,-1.35809767,-0.3931313,-0.162903761,-0.0199755009,-0.0107000496
94552.602793,-0.0175227669,0.180771973,-1.58612762,-0.0233980582,-0.134518857,-0.0224579058
94552.612820,0.848814881,1.33155657,-0.691962271,0.131617094,-0.0876533489,-0.0344075065
94552.622847,0.849911809,0.315109424,1.26208213,0.00703734372,0.0266292852,-0.0100515697
94552.632874,-0.0786363571,-0.8709092,1.36215871,-0.0926604846,0.0519373056,0.0153864131
94552.642901,-0.769547807,0.428632927,-0.379080563,-0.0308732853,0.00941248262,-0.0141091615
94552.652928,0.256577156,2.09116497,-0.773588999,0.0491509757,-0.0673949446,-0.0508277591
94552.662955,1.03668803,1.4116555,0.248156433,0.069312433,-0.0332082163,-0.0524783905
94552.672982,0.204734667,0.343654404,0.92437461,0.100105772,-0.00257786759,-0.0553058635
94552.683009,-1.24183726,-0.165184797,0.125538938,0.0289343878,0.0796903719,-0.0275860883
94552.693036,-0.0078020948,-0.970340757,0.438324785,-0.0410489568,0.099139971,-0.0481182586
94552.703063,1.27818946,-0.36374301,0.160714881,0.0440315812,-0.00961367297,-0.0631363567
94552.713090,0.321024932,-0.379082326,-1.21251993,0.0499640389,-0.0684543501,-0.0278108574
94552.723117,0.289930413,-1.14557772,-0.390534269,-0.0493689382,-0.0388434629,-0.0232632465
94552.733144,-0.447189903,-0.456563333,0.196374223,-0.0520520748,-0.0351685684,-0.0381681572
94552.743171,-0.504829314,0.531074663,0.0530950488,0.0765125624,-0.000414848559,-0.0587061893
94552.753198,0.229604978,0.016477437,0.760585731,0.0351225084,0.0318722513,-0.0247793838
94552.763225,-0.219622014,-1.42576543,0.883373322,-0.0800070071,0.0605132182,0.0067162255
94552.773252,-0.227890003,-0.571857134,0.15484219,0.000297149471,0.0571810689,-0.0228078447
94552.783279,0.109657067,0.782339361,-0.918982389,0.0456028453,-0.0121090549,-0.0217361886
94552.793306,0.263368277,-0.311464432,-0.887778857,-0.068989245,-0.0887532334,0.0145981174
94552.803333,-0.577051304,-0.458717954,-0.268809339,0.0171139466,-0.087090085,0.0168668639
94552.813360,-0.626472338,0.818248513,0.436376573,0.0181589707,0.0607534323,-0.00420486534
94552.823387,0.310236338,0.612503603,1.75848033,0.0211715384,0.130956744,-0.0238667175
94552.833414,0.48794641,0.152479287,0.60748542,-0.0273232923,0.0571744118,-0.0138811942
94552.843441,-0.20382626,-0.310247494,-1.03521866,0.0031059855,-0.0319261688,-0.0055058196
94552.853468,-0.17538094,0.125162652,-1.32090841,0.0111828198,-0.0372905757,-0.020010459
94552.863495,0.44132604,0.00521167259,-0.0925917715,-0.00178544243,0.00379614183,-0.00690477787
94552.873522,0.342677888,-0.507974262,0.268726927,-0.0151023136,-0.0233574479,0.00241229098
94552.883549,-0.308161079,-0.196868934,-0.19488544,-0.0293664687,-0.0286877647,-0.00729626304
94552.893576,-0.173671214,0.249967181,0.150963887,0.0359598047,-0.00585089275,-0.0189158998
94552.903603,-0.280404765,0.106184495,0.317780004,0.0169211349,0.0116564615,0.00238352895
94552.913630,-0.269313608,-0.788431116,0.473711155,-0.0161843539,0.0607800644,0.0119320268
94552.923657,0.116553841,-0.712819337,0.287720382,-0.0420306006,0.0106790813,0.0218650859
94552.933684,-0.281351982,-0.292907944,-0.520483422,-0.0576364563,-0.0200782984,0.0113754265
94552.943711,0.00494077466,0.777831163,-0.308774854,0.0778643808,0.00613892474,-0.0187678288
94552.953738,0.241177927,0.453406938,0.0133101509,-0.0221746021,0.0127339766,0.0156974692
94552.963765,-0.268747352,-1.08730541,0.152832019,-0.0826547274,-0.0251838441,0.0525566835
94552.973792,-0.118411757,-0.0568883531,0.100339031,0.0181973207,0.0226555832,0.0190487925
94552.983819,0.0676051014,1.37331788,0.0664443597,0.070594216,0.0299654279,-0.0185467869
94552.993846,-0.21731644,-0.102966698,-0.20933599,-0.0393133775,0.0179654912,0.0405133341
94553.003873,-0.349978944,-1.34948796,-0.117101359,-0.100506959,-0.0174630738,0.0283634637
94553.013900,0.0855672399,0.478099736,-0.260347216,0.0832713938,-0.0216008264,-0.00160029324
94553.023927,0.256652632,0.349518474,-0.00966682009,0.0443319849,0.00278600468,0.0382770796
94553.033954,-0.324410349,-1.51316929,0.469051347,-0.0950605252,-0.00208305265,0.0795249243
94553.043981,-0.760841938,-0.839956209,0.260792627,-0.105248181,0.0205242552,0.0700645719
94553.054008,-0.324071107,1.40651536,0.0397843163,0.0746789745,0.0432708461,0.0114278898
94553.064035,0.525868436,1.73482757,-0.0640372927,0.0490218124,0.0754343767,0.00176327882
94553.074062,0.472457676,-0.260926852,-0.0432727371,-0.0182997042,0.00812803977,0.041881134
94553.084089,-0.00987678218,-0.93019426,-1.09996673,-0.0313041859,-0.0767847176,0.048562472
94553.094117,-0.273823048,-0.25143681,-1.01470369,0.0030300855,-0.0786156456,0.039559127
94553.104144,-0.1556062,0.319044279,0.121686939,0.107745583,-0.0261697459,0.0397772391
94553.114171,-0.0200961976,-0.468704985,0.904973744,-0.0764474251,0.030589673,0.0673816998
94553.124198,-0.483321685,-1.10653699,1.06671621,-0.0577869245,0.00131301035,0.0683447022
94553.134225,-0.231475241,0.638258368,0.0804360602,0.0822644553,0.0725592275,0.0274851538
94553.144252,0.462228469,0.87549761,0.238597162,-0.0368313098,0.0626227085,0.0214650791
94553.154279,-0.0123851848,-0.57869962,-0.458818701,-0.0590162405,-0.0299674149,0.0403215934
94553.164306,-0.419468294,0.265963755,-1.68442199,0.0771487898,-0.140030543,0.022898392
94553.174333,-0.521495714,0.389168786,-0.742989863,0.0100541723,-0.0322369586,0.0694142256
94553.184360,0.503686415,-1.10175728,1.95477623,-0.0720481553,0.0906900291,0.0605339159
94553.194387,-0.106633348,0.216991324,1.05225631,0.00995989636,0.0755656709,0.0260909882
94553.204414,-0.218038909,0.657755754,-0.79378423,0.00672415577,-0.0419681508,0.0336178813
94553.214441,-0.00726206964,-0.271641796,-0.78453008,-0.00756902966,-0.0443370331,0.0714677919
94553.224468,0.406438485,-0.14397268,0.470194672,-0.0335505621,0.0610109617,0.0296889201
94553.234495,0.0319464166,0.904600809,0.196506325,0.00839955014,0.0182634976,0.00314119851
94553.244522,-0.33074189,0.0833949459,-1.28749948,0.0758387766,-0.0859792854,0.0441842351
94553.254549,0.216068766,-1.15927599,-0.681959348,-0.0113725566,-0.0229851387,0.103477125
94553.264576,0.373066962,-1.39675678,0.972179732,-0.176291471,-0.00755371782,0.100491722
94553.274603,-0.0641460594,0.839901542,0.366411641,-0.00274151723,-0.0530700709,0.0494506408
94553.284630,-0.760721161,2.71732981,-0.678551585,0.179930831,-0.06080016,-0.00626588592
94553.294657,-0.396457714,0.924989079,0.724900085,0.0112086528,0.0799130101,0.0372925114
94553.304684,0.579916399,-1.42266177,2.1296418,-0.0628234946,0.165793558,0.0697718907
94553.314712,0.152849728,-0.0460767348,-0.286672328,-0.0148059034,0.0483151388,0.00715165233
94553.324739,-0.0359760499,1.16855562,-2.44947171,0.0530072323,-0.219189803,0.00230709624
94553.334766,-0.789998839,-0.326134726,-1.69954006,0.0393388255,-0.132920961,0.0730806042
94553.344793,0.259696092,-1.20603525,1.74093591,-0.0540928559,0.0752804477,0.0504900713
94553.354820,0.460979931,0.0757065286,2.26267956,-0.0806648114,0.155726274,-0.00468290297
94553.364847,-0.681928414,1.18530466,-0.485103481,0.135578269,-0.0187736161,-0.00290364472
94553.374874,-0.205986214,0.135350978,-1.95715639,0.0534937925,-0.0556493427,0.0392443437
94553.384901,0.888606793,-1.89325888,0.560516163,-0.0780642309,-0.0246815726,0.0896659691
94553.394928,0.0826335245,-1.10298229,0.673312521,-0.0489601434,0.0433083971,0.0532496397
94553.404955,0.225225009,1.03348796,-0.0944581499,0.0619732982,0.00474795536,-0.0122063335
94553.414982,-0.0860830198,0.648686166,-0.82666534,0.00645091551,-0.070005114,0.0313813586
94553.425009,0.140419724,-1.36364742,0.0801847157,-0.0351572463,-0.0405220527,0.0805212084
94553.435036,0.188348108,-0.445657506,1.02839437,-0.0175875739,0.0244817131,0.0366411034
94553.445063,-0.586167581,0.885109269,0.451255578,0.0949968344,0.0117758226,0.0511136364
94553.455090,-0.418626802,-0.177821557,0.0715834761,-0.120537316,0.11785831,0.0692076881
94553.465118,0.551073824,-0.175811259,1.06826227,-0.0319802889,0.109474679,0.0114807423
94553.475145,0.663662531,1.69068185,-1.48501936,0.0997878632,-0.0567608948,-0.026328421
94553.485172,0.431215053,0.193931716,-1.9493653,0.00688215372,-0.111498977,0.0419784647
94553.495199,0.367403237,-1.66905265,-0.0933241775,-0.108704095,-0.136750798,0.0651711349
94553.505226,-0.567042901,-0.0530327645,0.532915039,0.0160705934,-0.0425904791,0.0473074477
94553.515253,-0.684617361,1.33677912,0.971549618,0.0918702802,0.0678026055,0.0149716132
94553.525280,-0.376062576,0.0939645995,1.42381934,-0.0571580806,0.0832601239,0.0642688547
94553.535307,-0.0401178259,-0.909586794,0.933110874,-0.0721426212,0.0643940244,0.0441641186
94553.545334,0.298405688,1.02023451,-0.0825339034,0.0636453054,0.0886346449,-0.00830814222
94553.555361,0.559858238,1.06341446,-0.792563749,0.0672514907,0.0129939516,0.00306994675
94553.565388,0.26312234,-0.847947573,-1.38437463,-0.0279250943,-0.0606496434,0.0374377754
94553.575416,0.0614836229,-1.53488164,-0.888344675,-0.0968612858,-0.0927966635,0.0658089642
94553.585443,0.0300252393,-0.467042312,0.0758048932,-0.0260465012,-0.0730264212,0.0457945068
94553.595470,0.258868336,0.712531519,0.957757239,0.0548302403,0.0154118363,0.0355141733
94553.605497,-0.133121688,0.192915853,1.49127784,-0.0168133208,0.0965469007,0.0469117027
94553.615524,-0.411092023,-0.298554353,0.734483321,-0.015035928,0.096470197,0.0493397054
94553.625551,0.492001676,-0.0244172214,-0.25290216,-0.00632073378,0.0737510372,0.0520492058
94553.635578,0.69587692,0.186691134,-0.869425455,-0.0371305772,-0.0376452568,0.0423489075
94553.645605,0.0159598891,0.452212504,-1.41355688,-0.0215244533,-0.110614809,0.0207240407
94553.655632,-0.32312652,0.718592281,-0.498019077,0.0368517696,-0.0444158118,0.00332907235
94553.665659,0.259460602,0.256937477,1.07373866,0.0277536142,0.0188201491,0.00628305061
94553.675686,0.230639655,-0.743126066,1.56550744,-0.0817177498,0.169763317,0.0343935166
94553.685714,0.723896415,-0.467559066,1.10602998,-0.125635138,0.235421156,-0.0378801513
94553.695741,0.470308608,1.36827711,-1.94476044,0.0787179938,-0.154012347,-0.0857249077
94553.705768,-0.431213166,0.0622485149,-3.978799,-0.0398384796,-0.284986342,0.000858457964
94553.715795,0.56250846,-2.27293581,0.723570298,-0.0093751128,-0.0907132726,0.0903356124
94553.725822,0.239176962,-0.743902165,2.61027836,-0.0102523581,0.132793849,0.0714846898
94553.735849,-0.363839931,0.702197537,1.45176416,-0.056220913,0.16642638,0.0582093645
94553.745876,-0.033937822,0.743015724,-0.414414326,-0.0175616701,-0.0408266697,0.0361908835
94553.755903,-0.360292833,0.966626253,-1.69582075,0.0410140253,-0.134855429,0.033383378
94553.765930,0.199271653,0.265800253,0.218670226,0.0528581685,-0.0181996531,0.0349724863
94553.775958,-0.234815345,-0.270467838,1.53516725,-0.0385580302,0.141005983,0.0391840089
94553.785985,-0.341109555,-0.231179254,0.594759209,-0.0144098194,0.122444009,0.0271028441
94553.796012,0.274340338,0.176205651,-1.18000882,0.0306708406,-0.0497104402,0.0255720589
94553.806039,0.133438267,-0.43629405,-1.60345752,-0.00160693851,-0.126906956,0.0566972207
94553.816066,0.205573968,-1.00031555,0.141395848,-0.0389034429,-0.0438309822,0.0482909542
94553.826093,0.152814291,-0.172912249,1.32285312,0.0203806518,0.0467758824,0.0320134472
94553.836120,-0.487061894,-0.0291278194,0.52307286,-0.040636094,0.0667365391,0.0551802863
94553.846147,-0.575481936,-0.367994749,-0.0738274498,-0.0786082425,0.0168656551,0.0635221053
94553.856174,0.111819141,0.871648241,-0.551517443,-0.026304295,0.0134299111,0.0192893978
94553.866202,0.629935764,1.51999809,-0.347570157,0.0252134914,-0.060511424,-0.0127050223
94553.876229,-0.0753308127,0.434203311,-0.366910817,0.0359494931,-0.0688279446,0.0194992546
94553.886256,-0.593799318,-0.835588369,0.480466475,0.00615777381,0.0528660018,0.0600642573
94553.896283,-0.159259242,-1.01984099,1.00256727,-0.0653686055,0.149315571,0.057680459
94553.906310,0.441679237,-0.0539476691,-0.101116439,-0.0156002517,0.0263518349,0.043781155
94553.916337,0.446424605,0.567957848,-1.78013803,0.032056751,-0.125999088,0.0484427523
94553.926364,0.281620704,0.0782364718,-1.13346744,0.00924943786,-0.110874469,0.079444078
94553.936391,-0.265804066,-0.200086526,0.620625472,-0.00594948904,-0.0275966178,0.0687320505
94553.946419,-0.634251959,0.594472966,0.862516412,0.00626909387,0.0150949203,0.0555019949
94553.956446,-0.128407665,0.420031322,1.05145844,-0.0238885411,0.0674478684,0.0618432474
94553.966473,0.493707311,0.401313105,1.09052905,0.0276137984,0.0704372649,0.026785129
94553.976500,-0.189197503,0.987193021,-0.473642176,0.056315752,0.0516473365,0.0161711008
94553.986527,-0.0605158132,-0.0321797269,-1.15427525,-0.0080744249,0.0205325626,0.0278224323
94553.996554,0.321031143,-0.745720393,-1.14153618,-0.0478138493,-0.122689049,0.0495194692
94554.006581,0.197084007,-0.363914348,-0.906271376,-0.0101841816,-0.121839764,0.0550252881
94554.016609,0.475500623,0.339594973,0.999077676,0.017529473,-0.00558346067,0.0355317492
94554.026636,-0.292347278,0.780888212,1.33738316,0.0349225758,0.0405025419,0.0129729111
94554.036663,-0.883015561,0.438558255,0.303565017,0.0340152367,0.0598852944,0.0277196329
94554.046690,-0.27769441,-0.747755333,0.0911462547,0.00853677586,0.0701469828,0.0643663306
94554.056717,0.845282176,-0.904771868,-0.0569493803,-0.00741875518,0.0336265278,0.0610355113
94554.066744,0.370880923,-0.285341162,-0.971043416,-0.00793354373,-0.114597569,0.0665991206
94554.076771,-0.560128153,-0.10143199,-1.26677642,-0.0786434018,-0.0929399382,0.0539288644
94554.086799,-0.0346421709,0.678172738,0.608961922,0.051900497,-0.0156179841,0.00193597304
94554.096826,-0.323801277,1.12614681,0.681726714,0.114065597,0.0212790456,0.0111153566
94554.106853,-0.29497032,-1.09157396,0.84264559,-0.122149331,0.0867105101,0.0604440246
94554.116880,-0.0409018889,-1.37766805,0.914711294,-0.0656509006,0.0274567802,0.0326981481
94554.126907,-0.249554868,1.01926267,-1.06816757,0.0859562031,-0.0104083091,0.0101108125
94554.136934,0.204592044,0.406693994,-0.648625818,0.0291150215,0.0186374572,0.0471402008
94554.146961,0.226312804,-1.18115851,-0.0653466217,-0.0124710377,-0.0335232157,0.0962062825
94554.156989,0.0377194471,-1.04155101,-0.440084774,-0.103714665,-0.0293516412,0.101544854
94554.167016,0.105901587,0.565943658,0.0973228976,-0.0257562154,-0.0459178339,0.0400724385
94554.177043,-0.579853648,1.81426249,-0.296168471,0.0679495058,-0.0555371705,0.0214833088
94554.187070,-0.672565469,0.680468228,0.316745985,0.0298058468,0.0216726617,0.0369208541
94554.197097,-0.0513638809,-0.382273779,1.18062725,0.0170610233,0.0642832343,0.06272236
94554.207124,-0.71891937,-0.37407765,0.237162745,-0.0325677821,0.0342078928,0.0679155264
94554.217152,-0.50742028,0.147738102,-0.605330866,-0.0206834261,0.0591609154,0.0364715804
94554.227179,0.538452097,0.876797222,-0.348299055,-0.000305984313,-0.00614272454,-0.0118610652
94554.237206,0.218109624,0.599416524,-1.09584585,0.0380954689,-0.130343507,-0.00150163544
94554.247233,-0.36413621,-0.76534177,-0.601177838,-0.018288979,-0.106054942,0.0363085952
94554.257260,-0.932900194,-0.95190238,0.887538625,-0.0324149185,0.018132522,0.0592903432
94554.267287,-0.602991655,0.072755104,1.31178637,0.0212317987,0.120338512,0.0382108886
94554.277315,0.131147526,0.535515933,0.759606657,-0.0630165019,0.078017426,0.0310637627
94554.287342,-0.401453476,0.0992624137,-0.652868862,-0.0457600185,-0.0453351352,0.0469244842
94554.297369,-0.0464165607,0.885955291,-0.97629593,0.0550720527,-0.00154850562,0.00283638781
94554.307396,0.327367798,1.04680578,0.0825052677,0.0317504874,-0.00607002037,0.00509448184
94554.317423,-0.33233537,-0.408585849,-0.217470782,0.0424598551,-0.0826617356,0.0454352472
94554.327450,-0.704328096,-1.09969932,0.11107436,-0.0912247055,0.0175647356,0.100247895
94554.337478,-0.0971543028,-0.373255446,1.67283326,-0.0862091758,0.154332166,0.0356151063
94554.347505,0.381815866,2.07617213,0.241605112,0.152731503,0.0820049767,-0.0474219907
94554.357532,0.0772995431,1.16935094,-1.86297121,0.011242281,-0.0462081197,-0.0093031002
94554.367559,0.508538385,-1.99858622,-0.762874713,-0.124846047,-0.114066529,0.0589332108
94554.377586,-0.0965622552,-0.875426458,-0.139993574,-0.0522765049,-0.112122427,0.028895152
94554.387613,-0.662682227,1.64644421,0.342156321,0.171799729,0.0606128697,-0.0117646584
94554.397641,0.157000564,0.631454899,1.38248955,-0.0210506764,0.1602324,0.0193053756
94554.407668,0.176948031,-1.40075214,0.687466134,-0.144786468,0.0197461315,0.0650726009
94554.417695,0.104555653,-0.00845378704,-1.35493401,-0.0376304516,-0.128450538,0.0299532276
94554.427722,-0.160920161,2.21748542,-0.983707083,0.121934975,-0.079100291,-0.02151529
94554.437749,-0.313149389,1.27443387,0.875727775,0.0365907832,0.0385179531,-0.0109678412
94554.447777,-0.601011806,-0.871660238,1.52576989,-0.077125957,0.145414402,0.0164588012
94554.457804,0.559562762,-0.391676508,0.836305866,-0.0248307974,0.125420456,-0.0316051271
94554.467831,0.358226097,1.01168003,-1.29443191,-0.00548745945,-0.0402571883,-0.0308826163
94554.477858,0.213936722,-0.0702249415,-1.78557116,-0.0638325268,-0.134242545,-0.0068606369
94554.487885,-0.0844629443,0.309552648,-0.4699819,0.0144143424,-0.0673511277,-0.035383093
94554.497912,-0.292913022,1.28156855,0.561536738,0.0265663474,0.000549629623,-0.0310637101
94554.507940,0.0316449495,0.23993505,1.30281863,-0.0479917766,0.0784625311,-0.0165060729
94554.517967,-0.0272446811,0.349714471,1.10070207,0.0480998701,0.0770622466,-0.0335026335
94554.527994,-0.217024399,0.680101879,-0.506891535,0.0347225464,0.0742845659,-0.0260907903
94554.538021,0.617492023,-0.275517779,-0.540749965,-0.0460628473,-0.00291700684,-0.0157963399
94554.548048,0.110837071,-0.426779897,-0.965665815,-0.0507050024,-0.0965460266,-0.0181838635
94554.558076,-0.0314202132,0.748661694,-0.942758402,0.0756390861,-0.0811468314,-0.0497175555
94554.568103,0.295784692,1.14317707,0.498757918,0.0170495401,0.0363909837,-0.0560460266
94554.578130,0.144544476,-0.266712377,1.30910107,-0.048555834,0.0384195161,-0.0287736587
94554.588157,-0.604901361,0.462565555,-0.218612937,-0.0184498632,-0.0468703497,-0.083561274
94554.598184,-0.451880618,1.4066856,-0.562233483,0.080573926,0.0256643028,-0.0669063952
94554.608212,0.682618283,0.385266225,0.778150614,0.0384725428,0.0897948195,-0.0757443633
94554.618239,0.540515824,-0.248098167,0.105451259,-0.0113679857,-0.00447708671,-0.0503908049
94554.628266,-0.161141256,-0.616133059,-1.34435709,-0.0197928955,-0.0946850132,-0.0285273164
94554.638293,-0.0347551298,-0.361194933,-0.616936548,-0.0387149208,-0.0592910673,-0.0500035759
94554.648321,0.0811718545,0.897017587,0.543290303,0.0602212458,-0.000149982747,-0.0847245406
94554.658348,0.0386460604,0.997272517,0.505600916,0.0757485426,0.0345241104,-0.075603212
94554.668375,-0.163962963,-0.644594015,0.479312629,-0.0352418923,-0.00130206637,-0.0271776251
94554.678402,-0.299616392,-1.08719392,0.117236974,-0.0247660835,0.0437405121,-0.028537967
94554.688429,0.634279346,0.739205445,0.0802747321,0.0945770911,0.0337613795,-0.0919251915
94554.698457,0.390348278,0.608261436,-0.713638096,0.00300030111,-0.0498759921,-0.049005958
94554.708484,-0.0360032301,-1.44315365,-0.56160103,-0.0850049236,-0.0571783807,-0.00621055884
94554.718511,-0.0451410608,0.265790188,-0.0389431835,0.0478817581,-0.0333747815,-0.0764245342
94554.728538,0.213158943,1.62631284,0.195294611,0.0632639102,-0.00656713522,-0.0743195664
94554.738565,0.123718034,-0.19688731,0.772025409,0.0345481097,0.00661391369,-0.0436490129
94554.748593,-0.257935743,-0.704928657,0.360475821,0.0439253657,0.00747491396,-0.0210640736
94554.758620,-0.021080094,-0.808806014,0.279326647,-0.0895623841,0.0471954283,-0.00682628041
94554.768647,-0.167766155,0.0553118018,0.165195826,0.0472007862,-0.0274891953,-0.0419094365
94554.778674,-0.173771167,1.59784297,-0.887879395,0.0527060724,0.0467349675,-0.0902740311
94554.788701,0.977589656,0.291704839,0.429805963,0.0322780295,0.043123455,-0.0857322763
94554.798729,0.316026905,-0.907068382,-0.844125594,-0.0172604953,-0.1022689,-0.0739206251
94554.808756,-0.59326353,-1.00644024,-1.27317577,-0.100911712,-0.161979894,-0.0423749562
94554.818783,-0.452887676,-0.376282758,0.753351688,0.0563857614,-0.0312985803,-0.0585451301
94554.828810,0.066197865,0.925232751,1.63081374,0.156497712,0.149025922,-0.0741722982
94554.838838,-0.110625048,-0.954948835,1.4276199,-0.100464573,0.150740464,0.00265936574
94554.848865,0.00882784523,-1.98570175,-0.246481772,-0.0836997085,0.0460944783,0.0158784978
94554.858892,0.782416117,0.626697037,-1.79231362,0.0379015601,-0.118850539,-0.0387818169
94554.868919,0.064568218,1.56149535,-1.67085757,0.0282931405,-0.107100139,-0.0573096897
94554.878947,0.0028685715,0.266882715,0.235195245,0.138468901,-0.048943619,-0.0387972619
94554.888974,-0.721559582,-0.81041323,0.414050175,-0.00832798678,0.0621980813,0.0144800723
94554.899001,-0.126664694,-2.06843863,1.29129361,-0.153125396,0.0855300326,0.0549950052
94554.909028,1.19619441,-0.285374151,0.494133766,-0.0168847234,-0.0085727626,-0.00917572228
94554.919056,0.256004178,2.03427331,-0.961761793,-0.0200520211,-0.0539956379,-0.0608567547
94554.929083,-0.461889167,1.60110913,-0.504579166,0.0766180626,-0.100224654,-0.0803484347
94554.939110,-0.885312805,0.93625077,-0.223270408,0.150793756,-0.0204874787,-0.052177253
94554.949137,-0.24283937,-1.23686564,1.454021,-0.043541366,0.100516168,0.0226999197
94554.959164,0.335156406,-2.0456677,1.90459561,-0.119390061,0.140187686,0.0416978423
94554.969192,0.205961433,0.455942703,-0.303157599,-0.0173300055,0.00565544213,-0.0290295861
94554.979219,-0.626679405,2.24569766,-2.05959444,0.125845516,-0.0834011983,-0.078474636
94554.989246,-0.0883547642,0.612759039,-0.761181353,-0.0073777714,0.0209648882,-0.0346461933
94554.999273,0.84741254,-1.40053703,1.07928402,-0.0538728328,0.00476061995,-0.0116127811
94555.009301,0.0545993433,-0.253384127,-0.193031921,-0.0321491637,-0.0349609579,-0.0231844827
94555.019328,-0.423968821,0.801266253,-0.295841723,0.0294596053,-0.0173976801,-0.042390133
94555.029355,0.148916626,0.846530897,0.360793801,0.0826631731,0.000883057366,-0.0485026192
94555.039382,-0.43280007,-0.119070422,0.205047944,-0.0476468966,0.0210897916,-0.010905179
94555.049410,-0.589900338,-0.693607125,0.313159359,-0.0316125357,0.0437002976,-0.0431536611
94555.059437,0.108600325,0.807708342,-0.179256494,0.0680666513,0.000497697971,-0.079611006
94555.069464,0.0645440334,0.067368196,-0.421936539,-0.0988869124,-0.0157278783,-0.0601073455
94555.079491,-0.343150925,-0.542712361,-0.0049859688,0.0313480555,-0.0478216286,-0.0648512345
94555.089519,-0.555106818,0.715293677,-0.32282793,0.0226823932,0.0269274407,-0.0657348733
94555.099546,0.108222285,-0.0803707163,0.984721819,-0.04413099,0.0730019857,-0.0409080859
94555.109573,0.393987146,-0.319530871,0.665824211,-0.00478331951,0.0377598491,-0.0496267404
94555.119600,-0.21098563,0.694649826,-0.851851219,0.0506013765,-0.023895527,-0.0643367123
94555.129628,-0.152156497,-0.01542448,-0.926172009,0.0254486187,-0.00219209469,-0.0207564782
94555.139655,0.51237716,-1.09268294,0.239393865,-0.0791158729,0.0092216807,-0.0110423311
94555.149682,-0.0489250364,0.0553939363,-0.247903914,0.00873515223,-0.0956549372,-0.0501782846
94555.159710,-0.526491549,0.924069333,-0.803177497,0.012934957,-0.0540169429,-0.0447792586
94555.169737,0.0108697994,-0.0879393067,1.29219027,-0.0236630009,0.0277889736,-0.0547703679
94555.179764,-0.325010434,0.224865089,1.35513626,0.0112667533,0.0966601793,-0.074063639
94555.189791,-0.445101406,0.404268959,0.109333069,0.0492580778,0.109580775,-0.0466868754
94555.199819,0.304595775,-0.477224099,-0.503151179,-0.0391314381,0.0636963744,-0.0290538229
94555.209846,1.39740299,-0.634744383,-0.716806205,-0.0529244819,-0.0844917621,-0.0183881286
94555.219873,0.146741255,0.213680847,-1.43142572,-0.0209236738,-0.121624219,-0.0222329337
94555.229900,-0.450925509,1.3107774,-0.376583485,0.0747447929,-0.0524834942,-0.0668978717
94555.239928,0.446360454,1.02079119,1.10651514,0.0546059741,0.087219273,-0.0625188377
94555.249955,0.650830814,-0.690860968,1.37381875,0.0914766363,0.0446819377,-0.000916993041
94555.259982,-0.333608239,-1.50399697,-0.595714312,-0.0963521206,0.0273815088,0.0377579641
94555.270010,0.125856799,-0.753863514,-0.475318585,-0.137241771,-0.0691202681,-0.0165023438
94555.280037,0.223651769,1.85354207,-0.838712921,0.140740047,-0.0563757035,-0.0898074459
94555.290064,0.552217879,1.70048925,-0.00292085296,0.0594875461,-0.0124692328,-0.10163721
94555.300091,-0.354762963,-0.931158794,0.751432118,-0.0442913116,-0.0290554005,-0.02829988
94555.310119,-0.0909655312,-1.50835604,0.729276985,-0.0484242716,0.0869809215,-0.015030681
94555.320146,0.381764501,0.552438938,0.670631319,0.049780058,0.0713827882,-0.060099351
94555.330173,0.596015301,0.697612329,-0.795249042,0.0184823221,0.0184735016,-0.0335521649
94555.340201,0.503228223,-0.750966404,-1.20759124,-0.0112683826,-0.127735371,-0.012083628
94555.350228,-0.558513266,-0.359721427,-1.3528724,-0.019049607,-0.117916832,-0.00254285315
94555.360255,0.452919374,0.102899263,0.913237714,-0.0228688472,-0.00109780172,-0.0109195605
94555.370282,0.795644505,0.681186971,1.84558228,0.0537223353,0.0670943011,-0.0567498978
94555.380310,-0.0962321465,0.90226411,0.40210021,0.088807354,0.0383004707,-0.0234611824
94555.390337,-0.594078719,-0.611273637,-0.665588643,0.00149481607,0.00729621551,0.0300369274
94555.400364,0.366467271,-1.11874181,-0.229580906,-0.205289533,0.0316660043,-0.00435939504
94555.410392,0.356871321,2.47809669,-1.28461135,0.067657592,-0.0787973951,-0.0839245271
94555.420419,0.365235099,2.49504432,-1.2837147,0.267547528,-0.0763880338,-0.101816709
94555.430446,0.206181359,-0.680429298,0.37538639,0.0122020545,0.0657826934,-0.010806375
94555.440473,-0.142056398,-2.84293379,1.35093706,-0.193402773,0.0158572134,0.0794446964
94555.450501,0.183130081,-0.429330969,-0.408267494,-0.0380592399,-0.0542061988,0.00501879977
94555.460528,0.303881709,2.52352632,-0.571945314,0.138294483,-0.0372104372,-0.105569231
94555.470555,0.0333331217,1.51963701,0.359777902,0.107166128,0.0243645117,-0.0743836116
94555.480583,-0.11665483,-1.61892698,0.779943342,-0.0666125917,0.0399927397,-0.0159181718
94555.490610,-0.377042746,-1.73687063,0.0583563303,-0.0806735435,-0.0575042542,0.0046944271
94555.500637,-0.549298863,0.444304653,-0.676646628,0.0865316934,-0.063358682,-0.0388248179
94555.510665,0.0171542134,0.870003762,0.511597526,0.118505867,0.115738106,-0.0289194573
94555.520692,-0.057018911,-1.05751138,0.86798286,-0.0754686647,0.115518925,0.00396605276
94555.530719,0.0192717901,-1.44693492,-0.863684865,-0.104728279,-0.0334109019,0.00119609872
94555.540747,0.170462688,0.167319201,-1.95336635,0.00400139185,-0.209565426,-0.000822044704
94555.550774,-0.842636278,0.981943357,-1.1410709,0.0928433782,-0.149100761,0.0283401024
94555.560801,0.0752298972,0.201416921,1.91711314,-0.0296697521,0.0690571491,0.0199479472
94555.570829,-0.529977345,0.491379416,2.55358091,-0.0330562272,0.141226952,-0.015430549
94555.580856,-0.829923584,1.13106439,0.0289034413,0.0777935929,0.0883453612,-0.0369733896
94555.590883,0.20466679,0.250055608,-0.976406989,0.106533626,0.0578212712,-0.00375791339
94555.600910,0.35626035,-1.33576061,-1.11901279,-0.0611773447,-0.0403758686,0.0263336759
94555.610938,0.0562395847,-1.4702021,-1.29513158,-0.129456525,-0.144463132,0.0184973248
94555.620965,0.0407697745,0.253916558,-0.631170825,0.0124412163,-0.140877719,-0.00516539419
94555.630992,-0.301538884,1.13944205,0.694600224,0.0273863434,-0.0612457308,-0.0401028719
94555.641020,-0.941446561,0.451602993,1.61879129,0.0560363664,0.0617313248,-0.0138148086
94555.651047,-0.757062857,-0.657057337,1.58565591,-0.011189278,0.184361627,0.0158344295
94555.661074,-0.0441110602,-0.833533994,0.785437264,-0.0410957762,0.115020645,0.0387115155
94555.671102,0.442639022,-0.182281222,-1.09862233,-0.0414406561,0.0186927777,0.0296088319
94555.681129,0.707449723,0.847695557,-1.46826696,0.009436372,-0.10158516,-0.00219623631
94555.691156,-0.33601267,1.22951358,-1.45547587,0.0315227679,-0.124939757,-0.018765359
94555.701184,-0.105683865,0.400970794,0.313460388,0.0383455179,-0.0138377349,-0.015427619
94555.711211,-0.0191172695,-0.288013268,1.452956,-0.0274947488,0.0871280332,-0.00325297823
94555.721238,-0.167207717,-0.539467716,0.99715343,-0.0305736304,0.0416023557,-0.00238851624
94555.731266,-0.266390268,0.0812796799,-0.451043391,0.00489008872,0.00994535838,-0.00761283914
94555.741293,0.638932505,0.129646117,-0.138685999,-0.0158546043,0.0214062717,-0.00186706873
94555.751320,0.565516848,0.0300670046,0.0246124661,0.00406823753,-0.0417348805,-0.0151871348
94555.761348,-0.935181729,0.350139273,-1.16638946,0.0453323222,-0.0632699977,0.00278254386
94555.771375,0.00331967626,-0.507431058,0.145246678,-0.0610164867,0.0238992565,0.011243406
94555.781402,0.238666967,-0.282933918,1.24845108,-0.056778332,-0.00811087224,-0.00766130889
94555.791430,-0.740137734,0.778539969,0.0577244621,0.0669920764,0.030051959,-0.0184516374
94555.801457,-0.00951130987,0.721766015,0.455883822,-0.00317369654,0.113795591,-0.0256863821
94555.811485,0.405758686,-0.208499476,0.657528092,-0.0651659572,0.0729562838,-0.0196817543
94555.821512,0.252438376,-0.0203232027,-1.0129174,0.0739357344,-0.0530154991,-0.0268794771
94555.831539,0.0474477179,0.0610866589,-1.61438925,0.032483103,-0.0305077906,0.00788303019
94555.841567,0.509704726,-1.27494213,0.299083487,-0.131114876,0.0116524447,0.0329553608
94555.851594,0.870944295,-0.135023065,0.685430829,-0.0740739682,0.0958530803,-0.0410323132
94555.861621,0.604380832,1.937359,-0.959207432,0.230206574,-0.0707843702,-0.0826519307
94555.871649,-0.145634475,-0.0796484116,-2.47926011,0.0129227157,-0.112618903,-0.00840539651
94555.881676,0.180869296,-3.20036074,0.535063742,-0.264947256,-0.128347273,0.115670745
94555.891703,-0.0719604595,-1.15760053,1.17072253,-0.0422569157,-0.120366308,0.0908599395
94555.901731,-0.120768695,2.56058617,0.922171547,0.145054126,0.0336248551,-0.03892815
94555.911758,-0.242775145,1.93434462,2.17960497,0.0889431855,0.147947704,-0.0394461367
94555.921785,-0.808969863,-1.11633467,1.13506494,-0.0646860578,0.148349573,0.0451161538
94555.931813,-0.0835244945,-1.17825468,-0.654495002,0.00579742788,0.0708896716,0.0282306459
94555.941840,0.854895881,0.703192394,-1.36464058,0.0201169777,-0.0349360954,0.0152802255
94555.951867,0.709526602,-0.00036373466,-1.38744161,-0.098639501,-0.113605338,0.0289094869
94555.961895,-0.159851655,0.182647923,-0.640050882,-0.0229340864,-0.108566369,-0.0217398431
94555.971922,-0.543258633,1.60299436,-0.0496907874,0.0983795619,-0.0465834315,-0.0567401673
94555.981950,-0.383125354,-0.0245992908,1.01508013,0.0614329933,0.0934514378,0.00434635181
94555.991977,0.161342758,-1.62685821,1.39100136,-0.100131398,0.0792469357,0.0431973461
94556.002004,-0.325794716,-0.607692563,-0.200064889,-0.0443893091,-0.0347078617,0.0408207413
94556.012032,-0.0892240213,1.1161981,-1.07060094,0.0703599102,-0.00822885032,0.0130333167
94556.022059,0.334862246,1.17965321,0.132030638,-0.0237077342,0.0365199794,-0.0207621965
94556.032086,0.21381105,0.197995586,0.0870914264,0.0466250202,-0.0558967728,0.0041918887
94556.042114,-0.562100769,-0.171315007,-0.802780022,-0.0402092093,-0.065420496,0.00353248997
94556.052141,-1.22120005,-0.0500214356,0.437593548,-0.0112792931,-0.00365993217,-0.0130584704
94556.062168,-1.81919495,0.599221732,0.0873813493,0.11275504,0.0538449038,-0.0213105406
94556.072196,-1.45034557,-0.303599836,-0.488214891,0.0143520341,0.0387716789,0.0409970407
94556.082223,-0.595214591,-1.60901918,-0.274659819,-0.198807915,0.00154628162,0.078385425
94556.092251,0.444648681,0.0545364974,0.0217664291,-0.050484752,-0.0717915769,0.0483742628
94556.102278,0.336542965,2.54762323,-0.546484709,0.110336358,-0.0350524771,-0.00603598149
94556.112305,0.678140553,2.43866236,0.781522721,0.0565114713,0.0421546933,-0.0780465256
94556.122333,-0.208614225,0.687428569,0.719393304,0.0532674773,-0.00593320629,-0.0230882007
94556.132360,-0.106579061,-0.639367366,-0.356546659,-0.021201167,0.0326496076,0.000804879908
94556.142387,0.441829313,0.205477886,0.447733834,0.0164282343,0.0314112355,-0.0557191174
94556.152415,0.614033627,1.10552707,-0.418097983,0.0713878891,-0.0153679873,-0.064579184
94556.162442,0.141029234,-0.178858408,-0.731491733,0.0152308767,-0.0709910344,-0.0341757376
94556.172470,0.276030556,-1.05929805,0.181331553,-0.0510117912,0.00403047842,-0.0227369282
94556.182497,0.742056488,-0.146105893,1.06758715,0.0617083668,0.0451576759,-0.0518753741
94556.192524,0.129266096,0.531083613,-0.140122169,0.0174370392,0.0334275153,-0.0385537099
94556.202552,0.343937021,-0.799393604,-0.434469272,-0.0446878501,-0.0197028152,-0.00156107152
94556.212579,0.509633341,-0.477029307,-0.570284103,-0.0370472388,-0.113411995,-0.0150063073
94556.222607,0.076720355,0.887878588,-0.200958038,0.0789560622,-0.0749524857,-0.0191499207
94556.232634,0.0476906598,0.404292011,1.2231407,0.0172138664,0.0741560434,-0.0299253341
94556.242661,-0.0751156356,-0.207990961,1.47316117,0.0112755506,0.139930253,-0.0254440334
94556.252689,0.335998702,-0.388489512,0.110703773,0.0316234327,0.075039943,-0.0148465166
94556.262716,0.333863517,-0.437216681,-1.48473703,0.0451285898,-0.0735058587,-0.00376776678
94556.272743,0.432004815,-1.17413665,-1.300584,-0.0819260308,-0.122607353,0.0429515366
94556.282771,-0.165487104,-0.582044364,0.358069929,-0.124838343,-0.0283538278,0.00318761051
94556.292798,0.269941737,1.85641558,1.11965753,0.0693215451,0.032081553,-0.122490953
94556.302826,0.204720274,2.01363034,0.394454079,0.156036193,0.0537823227,-0.114946748
94556.312853,-0.310511661,-1.50655381,0.344269952,-0.0137262053,0.0612684686,-0.0343019727
94556.322880,-0.208756629,-2.57339642,-0.182663672,-0.0899027341,-0.0240056838,0.0974672411
94556.332908,0.182361654,-1.21710486,-0.60879825,-0.100408634,-0.0214061725,0.0537397351
94556.342935,0.863821238,1.37525206,0.293284446,0.0377481713,0.00813707267,-0.00538217535
94556.352963,0.407713693,1.79878961,0.0416810898,0.0843676052,-0.0143858145,-0.0440129254
94556.362990,-0.331052929,0.0157326739,-0.383751477,0.0334530271,0.0603014727,0.0149558533
94556.373017,0.916381446,-1.45993235,0.298979442,-0.0850137004,-0.0163999617,0.0229338847
94556.383045,0.181077897,-0.509477433,-0.558462732,-0.0696885416,-0.126560564,-0.000120567884
94556.393072,-0.629092457,0.527646844,-0.393453956,0.0836149922,-0.0414608407,-0.0107833331
94556.403100,0.081581239,0.719726399,1.26377374,0.0377023651,0.0980669681,-0.0328074086
94556.413127,0.396134899,-0.341222113,1.74554603,-0.0523209998,0.121210632,0.0074047262
94556.423154,0.149477256,-0.800057475,0.108297296,-0.0880406478,0.0584838663,0.00686676728
94556.433182,0.331764134,0.743829305,-1.08970604,0.0574382528,-0.0126193378,-0.0405300434
94556.443209,0.420710829,1.35273964,-1.50576112,0.0952873624,-0.0578850869,-0.0372679371
94556.453237,0.433925554,-0.870658513,-0.466477107,-0.149878015,-0.0400270063,0.0181818485
94556.463264,0.303556934,-1.11633518,0.853383257,-0.131302735,-0.0498394247,-0.0248359281
94556.473291,-0.0655091645,1.72072744,0.188613526,0.16016374,-0.0297959417,-0.0803002517
94556.483319,-0.259586872,1.32817715,0.198317759,0.135777975,0.107964588,-0.0475076835
94556.493346,-0.0197219574,-1.91916241,1.2851649,-0.171114063,0.0924567331,0.036462852
94556.503374,0.137402714,-1.84947629,-0.0869347687,-0.113801246,-0.0282933868,0.0406826299
94556.513401,0.5113305,1.48908156,-1.12725631,0.0399699419,-0.0419759068,-0.0346643243
94556.523429,0.409925743,2.07922685,-0.146223408,0.0755196831,0.0243695576,-0.0679359909
94556.533456,0.0409199967,0.0320521871,0.187973475,-0.0500816533,0.00625340571,-0.0321678769
94556.543483,-0.203269137,-0.934515119,-0.248995801,-0.00216925397,-0.0423729855,-0.00923885571
94556.553511,0.192927106,-0.273210908,-0.180988432,0.00400315438,-0.0132145684,0.00566712229
94556.563538,0.189046977,-0.211253707,0.728764944,0.029819038,0.00858873152,0.0077334691
94556.573566,-0.274819001,-0.120915712,0.365549471,-0.0575582103,0.0890769113,0.0119846735
94556.583593,0.386288116,0.104897533,0.558157617,-0.0349415817,0.0907589693,-0.0145721024
94556.593620,1.10912264,1.17825949,-0.66285425,0.0526087715,-0.0379872906,-0.0597297277
94556.603648,0.489449654,0.559267176,-1.66442842,0.0432344473,-0.130631472,-0.0145321561
94556.613675,-0.612896963,-1.14169744,-0.444367566,-0.0380505563,-0.102210226,0.0220607419
94556.623703,-0.306833484,-0.540677348,1.03963707,0.0377770944,0.0307148055,-0.0110732427
94556.633730,0.481452883,0.188963316,1.81623226,0.0303447454,0.156076466,0.00390490863
94556.643758,0.507659922,-0.661736946,1.01740244,-0.0999562645,0.104367984,0.0107300582
94556.653785,-0.0681679354,-0.0779307301,-1.21599491,-0.010007736,-0.0512985687,-0.0197250534
94556.663812,-0.111850864,0.879796184,-2.20489372,0.0682268835,-0.0744113501,-0.0255009185
94556.673840,0.775884231,-0.216002892,-0.40167701,-0.0604621225,-0.0649643193,0.0244890128
94556.683867,0.529649855,-0.78807295,0.855343744,-0.0855315232,-0.0339981418,0.00659470094
94556.693895,0.0945452039,1.18013405,0.622948946,0.0610728322,-0.0081332575,-0.0347748425
94556.703922,-0.568749486,1.3779074,0.116316352,0.0915401897,0.0676898633,-0.0273917641
94556.713950,0.407181632,-0.38395037,0.665792647,-0.0280796808,0.0880060543,0.00223697091
94556.723977,0.777194363,-0.964257346,0.0584001694,-0.0617313848,-0.0395047616,0.0203933373
94556.734004,0.143020992,0.329424182,-1.19640408,0.0374231621,-0.0929160591,-0.00965644026
94556.744032,0.0987458704,0.954128372,-0.391758258,0.0761788136,-0.0247540462,-0.00339827759
94556.754059,-0.152940049,-0.301505969,0.739221456,-0.0614618712,0.0446503323,0.0119066427
94556.764087,0.348399919,-0.392795538,0.973592522,-0.00247977857,0.0446956058,-0.01937032
94556.774114,0.533355504,0.875329779,-0.136933602,0.108623306,-0.0110787123,-0.0330656271
94556.784142,0.141851218,-0.292755457,-0.515612601,0.00645246337,0.0225610056,0.0130427472
94556.794169,0.263286517,-1.31662599,0.0272299552,-0.0350497046,-0.00942568923,0.0135612648
94556.804196,0.24953564,0.0913990416,-0.703847354,-0.0159630978,-0.0888214435,-0.00389362572
94556.814224,0.205944262,0.223000464,-0.221204123,-0.0203360074,-0.05503898,0.0356449943
94556.824251,0.03857168,0.426760192,0.929127942,0.0327477178,0.0448514011,-0.0270924222
94556.834279,0.185195708,1.59791603,0.66083181,0.152180115,0.0815007512,-0.0598160129
94556.844306,0.270126154,-0.453215776,-0.202589439,-0.0249555276,0.0535452899,0.019462296
94556.854334,0.787336841,-2.36732586,-0.234244222,-0.153023472,-0.0356722053,0.0693297211
94556.864361,0.542757904,0.0208062417,-1.09228202,0.0236423689,-0.137420664,0.00659416869
94556.874389,-0.372140288,2.38118238,-1.23398124,0.135903398,-0.116321246,-0.0557195421
94556.884416,-0.457442563,0.438694558,0.800771026,0.0126376555,-0.0407732229,-0.00826467181
94556.894443,-0.24442547,-1.70915027,2.07488262,-0.0861419195,0.0833031808,0.0249713112
94556.904471,-0.192618199,-0.742652311,1.67723062,0.0335229619,0.113574264,0.00432382405
94556.914498,-0.667965136,0.802325187,-0.515894925,0.0382223784,0.0619440984,-0.012789117
94556.924526,0.206135401,-0.0920517469,-0.706426265,-0.0708897316,0.0219668553,0.0128102528
94556.934553,0.699380691,-0.307621785,-0.484587933,0.0561281389,-0.0565175663,-8.15771334e-05
94556.944581,-0.165521883,0.713245805,-1.24549047,0.0881001896,-0.0751053717,0.0172369603
94556.954608,-0.109554058,-0.705964868,0.243089213,-0.0484091879,-0.0191211931,0.0614435684
94556.964636,0.257500262,-0.779272242,1.42240246,-0.00279216721,0.104607669,0.0486026045
94556.974663,0.658276161,0.951709693,0.710823629,0.0950912482,0.140880202,0.012878963
94556.984690,0.198573734,0.655682381,-1.40482763,0.0110043392,-0.0542397636,0.0363928091
94556.994718,-0.220076553,-0.711414219,-2.24096515,-0.103255128,-0.196614752,0.0601833586
94557.004745,-0.0189739155,0.430161927,-0.661067366,0.0310483522,-0.162421624,-0.00159292089
94557.014773,-0.255705646,1.80959274,1.01827571,0.13989895,-0.011870737,-0.0395914379
94557.024800,-0.350864495,-0.0377419093,2.16794961,0.0174345395,0.137334203,0.0100839745
94557.034828,-0.448935066,-1.61963235,1.71063312,-0.141839003,0.163330649,0.0402472031
94557.044855,0.0228801898,-0.102730761,-0.27521453,-0.0317708233,0.0131624446,-0.0156099366
94557.054883,-0.053549116,1.87052944,-2.10640938,0.107407043,-0.131780619,-0.0484176863
94557.064910,0.065612101,0.580957359,-0.919581524,0.0782970882,-0.032401311,-0.00631497221
94557.074938,0.287521599,-1.15507116,1.12368605,-0.010099082,0.0457225193,0.0112885229
94557.084965,-0.727223746,-1.04765021,0.432799299,-0.10561016,0.0387476992,0.028216907
94557.094993,0.261082724,0.0091319513,0.192029472,-0.033978583,0.000957709972,-0.00418843774
94557.105020,0.9793799,1.39076513,0.368785385,0.0708796552,0.0281251476,-0.0301326874
94557.115047,0.420416669,0.752253508,0.480174798,0.0163548945,0.0436063719,-0.0112287698
94557.125075,0.141424152,-0.267615025,0.0427279685,-0.023584265,0.074418341,-0.0155577397
94557.135102,0.825938447,0.0958138533,-0.364731719,0.0533752314,0.0218787037,-0.0201149385
94557.145130,0.778624762,-0.230724149,-1.20378133,0.0182071238,-0.0847494702,0.0150278669
94557.155157,0.739632183,-1.31081701,-0.526197124,-0.130088335,-0.0722637724,0.0310542371
94557.165185,0.338841305,0.142801385,0.714925219,0.000137576108,-0.0429687339,-0.0259105105
94557.175212,-0.0576138081,1.88856823,0.368470327,0.133406962,0.0218965479,-0.0523192163
94557.185240,0.469967247,-0.103674079,1.24106331,0.0245153534,0.117664886,-0.00615225246
94557.195267,0.95415157,-1.73380204,1.11720897,-0.0686470845,0.0919744347,0.0319064494
94557.205295,0.370568423,-0.86968375,-0.936189545,-0.0601289624,-0.023579058,0.00212485177
94557.215322,0.32687395,0.536413174,-1.67695706,0.0162544942,-0.09860004,-0.0165652137
94557.225350,0.743072387,0.409818848,-0.452513463,-0.026134243,-0.0539380263,-0.0111382229
94557.235377,0.717129479,-0.0398416124,1.13263158,-0.00307579405,0.0247546521,-0.0186395485
94557.245405,0.255169846,0.330092546,0.89436584,0.0455841518,0.0717589085,-0.0213067036
94557.255432,0.258970262,-0.259688981,0.223085705,-0.0364966036,0.0417570744,0.00785943607
94557.265459,0.645584584,-1.03290272,-0.0993020828,-0.0446136498,0.0102342994,0.0282512617
94557.275487,1.08233715,-0.117033418,-0.289929869,0.0163117519,-0.00846535223,0.000962116029
94557.285514,0.810897676,0.424295848,-0.418475,0.00843305726,-0.0216551914,0.00829539562
94557.295542,0.322269964,-0.436480037,-0.339194543,-0.0758099162,-0.0398626875,0.0105255267
94557.305569,0.233532965,-0.0106548636,-0.00327098157,-0.017249936,-0.0471672069,-0.0174549732
94557.315597,0.584616905,0.615648222,0.419739911,0.0355171359,-0.0189691267,-0.0082359107
94557.325624,0.289864728,-0.020444217,0.90651922,-0.0117355946,0.0414055337,0.0097300403
94557.335652,-0.172942753,-0.257698465,0.752153418,-0.0259408967,0.0704877798,0.0142675352
94557.345679,0.245381443,0.246736547,-0.114655719,0.0164766016,0.0645579894,-0.0045045547
94557.355707,0.98861878,0.260629025,-0.544302689,-0.0205831488,-0.0124414514,0.00348732501
94557.365734,0.647176748,-0.37884417,-0.798175159,-0.0525125877,-0.0592374529,0.00436377127
94557.375762,0.504594981,0.31068505,-0.47756198,0.00778351145,-0.0442952539,-0.022140539
94557.385789,0.524269038,0.654110018,0.254504341,-0.00326354682,-0.0135591801,-0.00974538902
94557.395817,0.389429118,-0.0980752998,0.786834856,0.00553154227,0.00326853502,0.00451903345
94557.405844,0.418379026,-0.01590324,0.779155991,0.000776734816,0.0587171477,0.00688498581
94557.415872,0.805555439,-0.11396128,0.849683234,-0.0151273969,0.0995686997,0.0110171467
94557.425899,0.906975247,0.0890072968,-0.109433601,0.00549452452,0.0274319269,-0.00761219839
94557.435927,0.847284383,0.174742027,-1.25475924,-0.0113334569,-0.072285081,0.00781922249
94557.445954,0.891831819,-0.332666721,-0.839908268,-0.010792569,-0.0680051174,0.0086972669
94557.455982,0.960928152,0.105678738,0.364834601,0.00477361659,-0.0076845258,-0.00685800498
94557.466009,0.777911864,0.2178216,0.808468011,0.00734569811,0.0327201572,-0.00234421415
94557.476037,0.686192854,-0.244521113,0.476093082,-0.010203202,0.0152807108,0.0038985016
94557.486064,0.787003371,-0.357321087,0.0856196003,-0.0154203351,-0.000315292853,0.0109305784
94557.496092,0.860553688,-0.0946532164,0.0392307741,0.000200170298,0.000174995164,0.00417680221
94557.506119,0.702352546,0.186210839,0.0101718528,0.00691692883,0.00179819181,-0.00311759653
94557.516147,0.689087406,-0.0389761547,0.0653559799,0.000121607069,0.0010879268,0.00688789992
94557.526174,0.696978963,-0.279000013,0.143898186,-0.014884507,0.00222456386,0.00954786522
94557.536202,0.759326406,-0.0383045299,0.198761995,-0.00621937934,0.00949259685,0.00622956662
94557.546229,0.761150041,0.203899769,0.155201086,0.00897049278,0.0109030067,0.00830683226
94557.556257,0.682315501,0.101616073,-0.0209995305,-0.000460826295,-0.002092154,0.0119455096
94557.566284,0.624362567,-0.0647318331,-0.117871759,-0.0134131105,-0.0120156247,0.014625448
94557.576312,0.630257908,0.011071194,0.0312771847,-0.00659887978,-0.00520006311,0.00637497494
94557.586339,0.613282077,0.275886763,0.157411163,0.00782693111,0.0055226225,-0.00128427593
94557.596367,0.510958452,0.191759925,0.124116796,-0.000438988352,0.00292231213,0.000688061323
94557.606394,0.378194826,-0.0403421276,-0.017274957,0.000349040989,-0.00538781588,-0.000220343266
94557.616422,0.466029981,-0.046325184,-0.025153143,0.00252404463,-0.00343039236,0.00784317611
94557.626449,0.5135435,-0.115918607,0.143628137,-0.000454700986,0.00351832737,0.00742346162
94557.636477,0.492477916,-0.0380245622,0.171821966,-0.00337112878,0.00572715304,0.00991591366
94557.646504,0.39508539,0.0406357815,0.0239116244,-0.00594001377,0.0021015259,0.00816621745
94557.656532,0.468086548,0.177807643,-0.017074466,0.00642184707,-0.00497768889,0.000655303914
94557.666559,0.608214273,0.196920449,0.0642231765,-0.00418365907,-0.00216911943,0.00382526472
94557.676587,0.547668619,0.0724987455,0.161499309,-0.00165711817,-0.0005634994,0.000999118406
94557.686614,0.491497819,0.249417822,0.0853027894,0.0119055624,0.00598920812,-0.00444757918
94557.696642,0.599989611,0.111157124,0.125438985,-0.00140278632,0.0112071394,-0.000435526278
94557.706669,0.683629141,-0.137031912,0.137768305,-0.00297804616,0.00312071759,-0.000960701872
94557.716697,0.644043492,-0.0495782767,-0.0850724819,0.00585752333,-0.00117309706,-0.00315061936
94557.726724,0.655109879,-0.0436202542,-0.0974585008,-0.000105027951,-0.00684110238,-0.00111489909
94557.736752,0.655892846,-0.170486301,-0.0295545929,-0.00299961769,-0.0128175027,0.00203056049
94557.746779,0.616515433,-0.137540154,0.079645202,-0.00696240153,-0.00367114204,0.000172739122
94557.756807,0.582439415,-0.0110121435,0.247976985,0.000629205521,0.00351060438,-0.000648845714
94557.766834,0.535408418,0.0224417248,0.177138193,-0.00390003246,0.00441954122,-0.000356430914
94557.776862,0.566672083,-0.0223970681,0.110647659,-0.00575971763,0.0025784981,-0.000213951599
94557.786889,0.597870573,0.0547364131,0.0153203217,0.0040337907,-0.00455717579,-0.00289335826
94557.796917,0.532963509,0.063770893,-0.0516407525,-0.000433662031,-0.00958522386,0.00157569276
94557.806945,0.489640719,-0.0570926983,0.0395738884,-0.00566277859,-0.00572310784,0.000272873994
94557.816972,0.42059999,-0.0222120761,0.11083529,-0.00389630414,-0.00067188998,0.0018518625
94557.827000,0.371886008,0.0454259383,0.099604871,-0.00468433343,0.00063199358,0.00380715515
94557.837027,0.386416711,0.0626213394,0.101219905,-0.00631605202,0.00278009917,0.00550199088
94557.847055,0.345130469,0.152202351,0.0341688145,-0.00244488122,-0.0017480735,0.00201591311
94557.857082,0.301615006,0.227579627,-0.00770867176,0.00164307098,-0.00224635075,-0.000866692308
94557.867110,0.306604046,0.175181678,0.0353933879,-0.00024937128,-6.20261981e-05,-0.00130930988
94557.877137,0.263513458,0.172700091,0.0386830771,0.00912708629,-0.00410523754,-0.00712698584
94557.887165,0.19766714,0.139667234,-0.026661794,0.00954999615,-0.0038975107,-0.00180146171
94557.897192,0.209577724,-0.0757420153,0.0662707567,-0.00287950921,0.00164452742,0.00136343876
94557.907220,0.165146096,-0.107428627,0.0966138725,-0.000656035989,0.00272284146,0.000690191258
94557.917247,0.139343692,0.00560011478,-0.0198316558,0.000793256246,0.000371802716,0.00276825598
94557.927275,0.210522822,-0.00588363059,0.00245791747,-0.00154393396,-0.000206103197,0.00225959226
94557.937302,0.289791443,-0.00426802122,0.0211953512,0.000993792348,-0.00379045191,0.00255919781
94557.947331,0.30805461,0.0718181611,0.0239262374,0.00121909569,-0.0018886883,0.00118767025
94557.957359,0.329833531,0.0675909171,0.076758833,-0.00139772633,0.000517477632,0.00302684886
94557.967386,0.3758818,0.0930271634,0.0876601662,-0.00336766659,0.00131536066,0.00126649972
94557.977414,0.397044853,0.133839057,0.0823755038,0.00214427783,0.00488186605,-0.000884535518
94557.987441,0.417318484,0.159323874,0.0245826555,0.00896330204,-0.00184101786,-0.00550538654
94557.997469,0.40686789,0.1026321,-0.0210234959,0.00730468545,-0.00440937024,-0.0066396266
94558.007496,0.374260555,-0.0531726844,0.0328811128,0.00350435431,-0.00164207967,-0.00590938775
94558.017524,0.365604882,-0.137504279,0.0678957275,0.00369796602,-0.00028679706,-0.00639914328
94558.027551,0.335891077,-0.142350495,0.0813502524,0.00294722084,0.00130044704,-0.00532695444
94558.037579,0.325194473,-0.178502617,0.0491501105,-0.00154286864,0.00213135337,-0.0037181394
94558.047606,0.372905268,-0.191086423,0.0524263557,-0.00984367516,0.000577398752,0.000784467179
94558.057634,0.362899788,-0.0962938324,0.0524181724,-0.00561564063,-0.00228869519,-0.000585729051
94558.067662,0.359427655,0.10574699,-0.00906593159,0.000217747149,-0.00206818548,-0.00160305647
94558.077689,0.362900957,0.146858771,0.00262742882,0.00157516034,-0.00152330275,-0.00183421912
94558.087717,0.344448551,0.111398869,0.0692126554,-0.00624015202,0.00113905943,-0.00317139158
94558.097744,0.170695327,0.181073002,0.0500777468,0.00396454826,-0.00483068242,-0.00563108714
94558.107772,-0.0277858753,0.250363304,-0.0890402165,0.00181537753,-0.00414518476,-0.00757466329
94558.117799,-0.121242523,0.168325346,0.00856967835,5.74248574e-05,-0.004594194,-0.00788252315
94558.127827,-0.276593171,0.187047382,-0.0337473684,0.00652065061,-0.00229561957,-0.00584999917
94558.137854,-0.240014521,0.139542612,-0.0376344389,0.00312325594,0.000434919611,-0.00447953658
94558.147882,-0.0926914051,0.0114790076,0.0727741472,-0.00571550961,0.000518542891,-0.00157216357
94558.157909,-0.0550904271,0.025197508,0.0378781904,-0.000573744326,0.00279421406,-0.00154180339
94558.167937,-0.0393108934,0.115336455,0.00730711107,-0.00161956771,0.00412179972,-0.00239374934
94558.177965,-0.045617227,0.160580057,-0.0397194285,0.00310860857,0.00108739408,-0.00505344829
94558.187992,0.0238919972,0.152213302,-0.0630547114,0.00194161132,-0.00499579846,-0.00260973142
94558.198020,0.0259292752,0.068214264,-0.0396451942,0.00214560938,-0.00468980125,-0.00341054404
94558.208047,-0.00103267373,0.0529581513,0.0281558378,-0.00219800623,0.00280806259,-0.00215805953
94558.218075,0.0268908137,0.0518820557,0.0848258196,0.00084305744,0.00428585033,-0.0013886716
94558.228102,0.0499299632,0.0753696887,0.00592763941,0.000836932132,0.00124452054,-0.00538341401
94558.238130,0.0557311968,0.0485182327,0.0144388626,-0.00645240603,0.00217156694,-0.00116283612
94558.248158,0.0761304263,0.13460626,0.0160626645,0.00125078732,-3.03345715e-05,-0.00112928057
94558.258185,0.0819953728,0.341201422,-0.0703255792,0.0192431028,0.00565471524,-0.0128985874
94558.268213,0.208318225,0.131846614,0.0255687439,-0.00117375442,0.000495107031,0.00280287743
94558.278240,0.217003636,-0.285872986,0.062833768,-0.00247231193,-0.000347250722,0.00484445665
94558.288268,0.290981749,0.0339240728,0.0403740989,0.00573768121,0.00295054144,-0.00315381473
94558.298295,0.224768571,0.0627933258,0.0200116943,0.00207849781,-0.00416702288,0.000569284167
94558.308323,0.0891719864,-0.0899091637,-0.0148047675,0.00767752741,-0.00400803215,-0.00097428428
94558.318350,-0.0296508654,-0.0385421655,-0.00837619576,-0.00131277155,0.00265759393,-0.000799581204
94558.328378,-0.0458724439,-0.127398443,0.029909988,-0.00642790479,5.30222914e-05,0.0033413686
94558.338406,-0.0921220808,-0.0219619372,-0.0710761053,0.00130458319,-0.00256672944,0.00245932929
94558.348433,-0.0494371506,0.083638792,-0.0225870919,-0.00664149059,0.00194040453,0.00560478887
94558.358461,-0.0419051477,0.0781489533,0.0655237377,-0.00476662509,0.00258568837,0.00504019877
