t,ax,ay,az,gx,gy,gz
101673.632244,0.196241972,-0.110901484,0.0510083027,-0.00891590491,-0.0077232318,0.0519243889
101673.642272,0.158131821,-0.0714064727,0.101700379,-0.036974173,-0.0118322233,0.07147865
101673.652299,0.12873459,-0.000495966823,0.175420864,-0.0586299337,-0.0108702891,0.0839126781
101673.662327,0.0880351615,0.099987803,0.165390469,-0.0567161851,0.000569851603,0.0916496962
101673.672354,0.0660072714,0.201853784,0.119688456,-0.0440693684,0.00821392238,0.0877494961
101673.682382,0.0377810564,0.311558825,0.042938978,-0.0288635138,0.00657314947,0.0713446885
101673.692409,-0.0147732793,0.437315678,-0.0998877767,-0.0131756309,-0.00179716595,0.0412578955
101673.702437,-0.0141839442,0.437031089,-0.099869072,0.00671312213,-0.00918477494,0.0124419592
101673.712464,-0.00517155742,0.415974455,-0.100839378,0.0214824807,-0.01242238,-0.00715757534
101673.722492,-0.00370885532,0.359845412,-0.000984919384,0.0217503943,-0.0152330799,-0.0232888721
101673.732519,-0.0129239434,0.337772915,0.107273211,0.0147058014,-0.0128072063,-0.0326243192
101673.742547,0.00616142697,0.290389306,0.20029987,0.00730460975,-0.00303899776,-0.0123656522
101673.752574,0.0724434237,0.218016545,0.243353998,-0.00372833386,0.0102003748,-0.0271880068
101673.762602,0.0580997862,0.184407888,0.260717221,-0.00153921556,0.00667887693,-0.0198555272
101673.772629,0.124217761,0.0804388337,0.128618197,-0.0069174692,0.0104837352,-0.0109834708
101673.782656,0.123283978,0.0797753648,0.128641577,-0.00977077987,0.00568338716,-0.00969077274
101673.792685,0.143994821,0.0921615298,0.0664630615,-0.00760589633,-0.00199929997,-0.00643159635
101673.802712,0.164804778,0.0523733074,0.0280436067,0.00280226977,-0.00277827447,0.00045640301
101673.812740,0.203380903,0.0316789675,0.0311632,0.0165897217,-0.00632161042,0.0123902941
101673.822767,0.167248043,0.040260443,0.0608937369,0.0139236301,-0.0206446238,0.0157783665
101673.832795,0.063485717,0.0948356444,0.156625563,0.0159162078,-0.0228933953,0.0103385951
101673.842822,-0.0467179212,0.144139883,0.28104923,0.0251038466,-0.0108292764,-0.00207280088
101673.852850,-0.166436324,0.194143575,0.46826107,0.0307822395,0.0150840795,-0.0187852029
101673.862877,-0.27472558,0.204556504,0.626269612,0.0277225338,0.0392373502,-0.0396350883
101673.872905,-0.327204686,0.16688078,0.646599868,0.0253115743,0.0574437864,-0.0569738671
101673.882932,-0.357541665,0.116423353,0.58283379,0.0206396859,0.0697352737,-0.0729678571
101673.892960,-0.412777193,0.0339845045,0.465507972,0.0169717148,0.0770184845,-0.0830886662
101673.902987,-0.434351969,-0.054243814,0.356551923,0.0185626857,0.0877196044,-0.0795450658
101673.913015,-0.437517484,-0.173659225,0.257576585,0.0268150233,0.0949817747,-0.0669714808
101673.923042,-0.411383949,-0.270938828,0.0723673171,0.034089718,0.0834580138,-0.0492649227
101673.933070,-0.342675885,-0.307549298,-0.159088738,0.0335791893,0.0592621304,-0.0222431608
101673.943097,-0.299863839,-0.319668263,-0.342765974,0.0295977611,0.0315133221,0.00513626589
101673.953125,-0.293337744,-0.250242516,-0.415043859,0.0239478648,0.00674272887,0.0275182705
101673.963152,-0.336469358,-0.165315613,-0.370588047,0.0276025198,-6.93707261e-05,0.0434975028
101673.973180,-0.389572259,-0.054439227,-0.323580212,0.0260474999,-0.00699438807,0.0468909033
101673.983207,-0.501603624,0.0877052811,-0.202042914,0.0262371171,-0.00432962924,0.0480975807
101673.993235,-0.551566765,0.161947123,-0.047290159,0.0218628757,0.00487718452,0.0395227373
101674.003262,-0.593716054,0.232306681,0.0674006346,0.0073851333,0.0108402688,0.0255754944
101674.013290,-0.636064226,0.278389875,0.0784311472,0.0039608404,0.0158406198,0.00838052854
101674.023318,-0.655979545,0.307836882,-0.000641220513,0.0103457691,0.0200095326,-0.0140803047
101674.033344,-0.698456239,0.285339877,-0.0497930817,0.00815025903,0.0115071237,-0.0360569768
101674.043373,-0.70622943,0.230301917,-0.0791606305,0.00121938274,0.000648351212,-0.0547941774
101674.053400,-0.694813206,0.163292218,-0.0706207657,-0.00440787664,-0.00145288277,-0.0681944042
101674.063428,-0.65444101,0.126136097,-0.0285287599,-0.00954831019,0.00125049194,-0.0774166659
101674.073455,-0.601899141,0.0653244859,-0.0165191731,-0.0060148281,0.00520395488,-0.075544998
101674.083483,-0.540021544,-0.00745451726,-0.0923819311,4.14664901e-05,0.00403029937,-0.0695249215
101674.093510,-0.45511236,-0.0509757156,-0.15686697,-0.00238733646,-0.0043160473,-0.0585931763
101674.103538,-0.411303139,-0.130149279,-0.223568517,-0.00431360072,-0.0169897638,-0.04604543
101674.113565,-0.362705587,-0.184427799,-0.250138544,-0.00696983794,-0.026102569,-0.0267295204
101674.123593,-0.383344287,-0.217009049,-0.196034613,-0.0111573925,-0.0324901603,-0.00865278393
101674.133620,-0.364169814,-0.243243889,-0.121809686,-0.0256718863,-0.0397872217,0.0089688208
101674.143648,-0.379728143,-0.22226507,0.0265928234,-0.0533157624,-0.0381294042,0.0206888616
101674.153675,-0.430630537,-0.179073469,0.224781984,-0.0728314072,-0.0181008354,0.0297752991
101674.163703,-0.477088958,-0.104281883,0.367896324,-0.0710636005,0.0119649218,0.0316895805
101674.173730,-0.490187509,-0.0279646962,0.342761298,-0.065809451,0.0299694873,0.02545432
101674.183758,-0.461980821,0.0486907099,0.204442961,-0.0547810346,0.0312222391,0.0154453628
101674.193785,-0.405270434,0.0579407688,-0.0241483528,-0.0466416143,0.0166989565,0.00674401643
101674.203813,-0.367783475,0.0439546213,-0.203245275,-0.0260724258,-0.00740185194,0.00106882025
101674.213840,-0.366201028,0.0145945617,-0.325282924,0.00788527448,-0.0237765647,-0.000995129347
101674.223868,-0.360252969,-0.0218424505,-0.310960385,0.028586559,-0.0433792919,-0.00477468781
101674.233895,-0.386878891,-0.0260892212,-0.179651049,0.0303748716,-0.0566258579,-0.00992337801
101674.243923,-0.422578748,-0.0152446962,0.0266413387,0.028405197,-0.0609508306,-0.0171738323
101674.253950,-0.434522978,0.0237149298,0.181756497,0.0239105802,-0.0477106571,-0.019457493
101674.263978,-0.414882385,0.0484703452,0.329557533,0.0140198665,-0.0364657268,-0.018374918
101674.274005,-0.383551318,0.0542294932,0.412770069,-0.00588699663,-0.0205139257,-0.0130653754
101674.284032,-0.341567485,0.0438169664,0.545148495,-0.0315769129,-0.00710144732,-0.00803732686
101674.294060,-0.342022389,0.0568547272,0.602085019,-0.0607366599,0.00647108676,-0.0061994791
101674.304088,-0.407750561,0.0875432589,0.631556613,-0.068187654,0.0297567025,-0.00820004568
101674.314116,-0.469886041,0.110336544,0.487381366,-0.0465015322,0.0486632809,-0.0175400171
101674.324143,-0.465063772,0.141980257,0.220531341,-0.0268237032,0.0445945039,-0.0359840058
101674.334171,-0.428170796,0.132054382,-0.0427916785,-0.00848890468,0.0244455598,-0.05431135
101674.344198,-0.366047116,0.0870329348,-0.223734521,0.0177613404,0.00920908246,-0.0624893829
101674.354226,-0.30564551,-0.0158706826,-0.284928702,0.0427354015,-0.00192053383,-0.0598081127
101674.364253,-0.292137337,-0.0869874882,-0.224986567,0.0495432392,-0.00746363774,-0.0528825633
101674.374281,-0.318316191,-0.108177649,-0.04068097,0.0407502837,-0.0105166854,-0.0431250073
101674.384308,-0.381375399,-0.0918608664,0.175716632,0.0182111487,-0.00162918423,-0.0327613167
101674.394336,-0.482414318,-0.112871615,0.400576943,-0.00347417244,0.0200590678,-0.0167013891
101674.404363,-0.593547894,-0.13474921,0.527344543,-0.0216494482,0.0385459326,-0.00474858843
101674.414391,-0.61988298,-0.142943805,0.445281761,-0.0377391987,0.0480712615,0.00869611371
101674.424418,-0.567447238,-0.145077712,0.262236978,-0.0381932706,0.0490579642,0.025534749
101674.434446,-0.496521462,-0.152095263,0.0278583133,-0.0315601341,0.0306190327,0.0380076617
101674.444473,-0.458240319,-0.10779212,-0.218019066,-0.0337556452,-0.00219244277,0.0379669145
101674.454501,-0.505774699,-0.0492161586,-0.281008314,-0.0268439427,-0.0219464414,0.0310461596
101674.464528,-0.573229913,0.00098221597,-0.135571084,-0.0187282264,-0.0193959288,0.0169662945
101674.474556,-0.639249213,0.0640872722,0.0727957716,-0.00559644541,-0.000605997629,-0.00301646907
101674.484583,-0.678235216,0.104123368,0.209977798,0.0124323564,0.0230359472,-0.026384376
101674.494611,-0.710149965,0.102031036,0.224227858,0.0186007693,0.0360502861,-0.0474254787
101674.504638,-0.685970851,0.0502807921,0.179216749,0.0102893105,0.0350241698,-0.0569236428
101674.514665,-0.651687181,-0.0417357397,0.107902156,0.00928876083,0.0313519351,-0.0534026772
101674.524693,-0.61733841,-0.126544203,0.00530979685,0.0153751485,0.021070268,-0.0460393019
101674.534720,-0.539791717,-0.167460918,-0.143960727,0.0145176109,0.000160992728,-0.0305804536
101674.544748,-0.526749573,-0.188025531,-0.166862879,0.000870508549,-0.0154262232,-0.0103545431
101674.554776,-0.533197689,-0.199865825,-0.0394675025,-0.00404462172,-0.0143889217,0.0147809032
101674.564803,-0.527098167,-0.196545412,0.0586100099,-0.00865109172,-0.00254397979,0.0403283425
101674.574831,-0.551734596,-0.194022104,0.105245504,-0.0233562682,0.000873920973,0.0590370484
101674.584858,-0.587148621,-0.193822417,0.0760837072,-0.0403765291,-0.00969909504,0.0709664077
101674.594885,-0.603879684,-0.112327572,-0.00358311918,-0.0505394191,-0.0216937065,0.0679546446
101674.604912,-0.649560252,-0.0108257107,-0.0322094942,-0.045857314,-0.0237683095,0.0542625338
101674.614940,-0.686473248,0.0688111955,-0.0541635519,-0.0262508579,-0.0236948058,0.0348326415
101674.624967,-0.707808151,0.128019427,-0.0534615411,-0.00840874389,-0.0206313692,0.0140306912
101674.634995,-0.69440879,0.187067098,-0.017224691,0.00725570368,-0.0160784312,-0.00917129964
101674.645022,-0.631066418,0.179154973,0.0279290404,0.0154744852,-0.0133489566,-0.0238029733
101674.655050,-0.570478094,0.148497311,0.0652928486,0.0132459514,-0.0228636339,-0.0356306061
101674.665077,-0.534992026,0.142997691,0.050307461,0.011260299,-0.0286682583,-0.0434336662
101674.675105,-0.537152784,0.0723978949,0.104904728,0.012647273,-0.0286493488,-0.0414232463
101674.685132,-0.576495162,0.0587911751,0.189442375,0.00814200379,-0.0196649097,-0.0382386371
101674.695160,-0.588090323,0.0273610313,0.245711375,0.00743999425,-0.0184398554,-0.0382953621
101674.705187,-0.588636084,0.0433111358,0.168052966,0.00821311027,-0.0144562991,-0.0375848338
101674.715215,-0.603297281,0.0531867062,0.108806412,0.00661281636,-0.0211576112,-0.0425582863
101674.725242,-0.597947188,0.083015735,0.105102296,-0.000572125835,-0.0244074687,-0.0467972383
101674.735270,-0.600249985,0.0899377528,0.166789814,-0.000486904639,-0.0262045674,-0.0529424846
101674.745297,-0.638184287,0.110924573,0.211705061,0.00174269383,-0.0157404765,-0.0644268319
101674.755325,-0.671244772,0.129840541,0.318707053,0.00640269276,-0.00401111552,-0.0808513463
101674.765352,-0.710157563,0.14286884,0.355917717,0.0183922444,0.0116219064,-0.0916933417
101674.775380,-0.727141724,0.100791703,0.336495808,0.0291306414,0.0157663189,-0.0971488282
101674.785407,-0.709259153,0.0167088505,0.304493819,0.0200252943,0.010499917,-0.104032829
101674.795435,-0.743275478,0.0153875753,0.293472074,0.0196378045,0.0127494885,-0.104633376
101674.805462,-0.757097155,-0.0518374835,0.340037426,0.0298904423,0.0155977393,-0.10193985
101674.815490,-0.779219044,-0.0606921134,0.393753819,0.0237768888,0.0295023695,-0.0962907523
101674.825517,-0.833829024,-0.104944183,0.526069701,0.013346619,0.0243890993,-0.0949165672
101674.835545,-0.976784082,-0.0611438757,0.535150248,-0.00205577281,0.0329040252,-0.102410167
101674.845572,-1.14407432,-0.0692152097,0.70464523,-8.50336583e-05,0.0534950569,-0.103051454
101674.855600,-1.15602925,-0.0545348694,0.73133976,-0.00179398409,0.0840079561,-0.102228008
101674.865627,-1.27033762,-0.128001234,0.798953745,-0.0404867828,0.10213875,-0.112022318
101674.875655,-1.44114179,-0.152698745,0.71447455,-0.0501551218,0.110634767,-0.129194915
101674.885682,-1.51147745,-0.142495769,0.549711273,-0.0269579329,0.139514402,-0.147202075
101674.895709,-1.52101305,-0.156193017,0.498487866,-0.00808224641,0.170811608,-0.154544145
101674.905737,-1.60089615,-0.320351021,0.472150479,-0.00800794456,0.186448887,-0.150244728
101674.915764,-1.56231508,-0.464653328,0.3793436,-0.0171561688,0.191989064,-0.129029989
101674.925792,-1.62374496,-0.62030442,0.350567588,-0.0263925437,0.200938627,-0.0984446406
101674.935819,-1.73668804,-0.693592359,0.333614115,-0.0444245413,0.201684043,-0.0798773542
101674.945847,-1.99161016,-0.680151278,0.366393518,-0.073152326,0.214128986,-0.0708071589
101674.955874,-2.26621782,-0.629198651,0.459473368,-0.0912610218,0.243887693,-0.069981575
101674.965902,-2.56057413,-0.592408917,0.398444607,-0.0923121721,0.274668247,-0.0764626488
101674.975929,-2.8341143,-0.574251438,0.19407062,-0.0984632745,0.288245052,-0.0957828164
101674.985957,-3.06659385,-0.597208535,-0.0837093798,-0.0960150287,0.276292235,-0.113250487
101674.995984,-3.24019773,-0.609410503,-0.381595763,-0.0805215538,0.260807037,-0.136638641
101675.006012,-3.35938174,-0.642803252,-0.549133765,-0.039673198,0.249924004,-0.147061184
101675.016039,-3.34409825,-0.703107864,-0.637818596,-0.00798770413,0.23215273,-0.146913379
101675.026067,-3.32364612,-0.746063282,-0.598247048,-0.0101701654,0.202668607,-0.143591091
101675.036094,-3.44868236,-0.778797677,-0.413452206,-0.0191383585,0.195300445,-0.148924872
101675.046122,-3.66017758,-0.822350841,-0.147435125,-0.0231147241,0.20406571,-0.163795426
101675.056149,-3.90357746,-0.818569934,-0.0427975237,-0.0371016487,0.219231069,-0.191725597
101675.066177,-4.25110525,-0.804313665,0.123525257,-0.0450807437,0.243652269,-0.234124452
101675.076204,-4.56822094,-0.760245244,0.0380570512,-0.0336541869,0.282412469,-0.281037629
101675.086232,-4.83785504,-0.813514185,-0.107325233,-0.0171092972,0.31518051,-0.322815418
101675.096259,-5.03080806,-0.91708971,-0.314323139,-0.00115536479,0.320245057,-0.359642148
101675.106287,-5.10887797,-1.09174032,-0.610172464,0.0146936392,0.308329016,-0.383189023
101675.116314,-5.04208933,-1.36952397,-0.837325269,0.0194630958,0.274091929,-0.396743983
101675.126342,-5.02292695,-1.57416173,-1.04296007,0.0400661081,0.246253371,-0.388279915
101675.136369,-4.87393407,-1.8450676,-1.19601888,0.0892001018,0.201905355,-0.351622313
101675.146396,-4.79995493,-2.1399586,-1.35432962,0.0935098976,0.132431462,-0.305726439
101675.156424,-4.81661205,-2.3629784,-1.32373691,0.0830215663,0.0376293287,-0.257320583
101675.166451,-4.81878209,-2.4415,-1.18305594,0.0803980902,-0.0362912342,-0.204354838
101675.176479,-4.73388438,-2.4576141,-0.915020503,0.0822164938,-0.0831215903,-0.139933512
101675.186506,-4.57601729,-2.3455446,-0.526609799,0.055070091,-0.121597342,-0.0814318359
101675.196534,-4.44641125,-2.11289787,-0.0682896924,0.0149538303,-0.132034272,-0.0394729376
101675.206561,-4.39721351,-1.86306401,0.323216055,-0.0100037176,-0.112440594,-0.00732885115
101675.216589,-4.39522146,-1.7031926,0.589177607,-0.0397855826,-0.0754689947,0.0197666809
101675.226616,-4.35781761,-1.61105149,0.711521545,-0.0788714588,-0.0494347326,0.0331208371
101675.236644,-4.28413716,-1.48501118,0.645320934,-0.119117953,-0.0388228334,0.029247269
101675.246671,-4.23942475,-1.36704619,0.390506215,-0.137429312,-0.0427704379,0.0155873839
101675.256699,-4.21238798,-1.23261024,0.112392453,-0.132210851,-0.0488421768,-0.00996138528
101675.266726,-4.21000664,-1.07849184,-0.152447985,-0.11437007,-0.0486307219,-0.0471572205
101675.276754,-4.13972606,-0.932435091,-0.36417818,-0.104550995,-0.0623968691,-0.0955942646
101675.286781,-4.00401528,-0.799974466,-0.555718989,-0.0781129971,-0.0631348342,-0.134410903
101675.296809,-3.78033628,-0.777880489,-0.759229637,-0.0307313651,-0.056753099,-0.170330554
101675.306836,-3.67263404,-0.818444189,-0.934822351,0.0274531115,-0.0530643538,-0.195639119
101675.316863,-3.63114146,-0.98370504,-1.06981476,0.076062195,-0.0739422068,-0.219086647
101675.326891,-3.69721055,-1.20617268,-1.17061965,0.107323974,-0.109036542,-0.231416821
101675.336918,-3.78943437,-1.50325791,-1.06971481,0.129629284,-0.1402978,-0.223043039
101675.346946,-3.80225235,-1.8047578,-0.855787977,0.145763248,-0.152184293,-0.181776032
101675.356973,-3.69452438,-2.0703438,-0.528751487,0.138635293,-0.158181459,-0.104122236
101675.367001,-3.47739203,-2.34837383,-0.261427415,0.0681363642,-0.164101928,-0.00383185409
101675.377028,-3.2855008,-2.43076701,-0.0202969381,-0.0160711966,-0.174803585,0.10423816
101675.387056,-3.11744579,-2.3785033,0.0653460401,-0.0798839927,-0.173839509,0.202090412
101675.397083,-3.07329715,-2.1710936,0.0919201588,-0.108587809,-0.148396745,0.282378078
101675.407111,-3.12940511,-1.94127625,0.0405424383,-0.110824868,-0.120222621,0.343845427
101675.417138,-3.2262072,-1.72539347,-0.0535930585,-0.105554208,-0.123633064,0.3745839
101675.427166,-3.30668972,-1.46206343,-0.225224467,-0.0897677839,-0.146229997,0.386147618
101675.437193,-3.38520007,-1.26252052,-0.406997331,-0.0656749681,-0.172047734,0.380459636
101675.447221,-3.45977367,-1.02775797,-0.505507974,-0.0461244397,-0.208817199,0.353333473
101675.457248,-3.49247124,-0.707074941,-0.55171969,-0.0253461879,-0.242235616,0.294418752
101675.467275,-3.54696066,-0.3888914,-0.416941802,0.0109215379,-0.242761061,0.223091841
101675.477303,-3.57730524,-0.206091422,-0.220707282,0.0440746956,-0.234255448,0.149424538
101675.487330,-3.55135568,-0.0768609387,-0.0948164648,0.0628055111,-0.227777585,0.0731803775
101675.497358,-3.4579029,-0.0600859277,0.0734159493,0.0844871029,-0.21679391,0.00516483653
101675.507385,-3.39298123,-0.128296381,0.244033797,0.100430384,-0.207682967,-0.05093465
101675.517413,-3.31515214,-0.269607689,0.365309814,0.103063188,-0.200271115,-0.0923878178
101675.527440,-3.12625863,-0.419830436,0.485917139,0.0941884667,-0.189620078,-0.115659051
101675.537468,-2.96336056,-0.533480087,0.677242259,0.0779650211,-0.15789783,-0.116165049
101675.547495,-2.85042158,-0.674130995,0.963528806,0.0409995429,-0.118764535,-0.107218958
101675.557523,-2.75751533,-0.710092974,1.13168289,-0.0139214937,-0.0982797667,-0.105498828
101675.567550,-2.73588656,-0.7070425,1.02536245,-0.0530244224,-0.0705155134,-0.104814127
101675.577578,-2.75452521,-0.712226917,0.887876475,-0.0508289114,-0.0295246746,-0.0966427475
101675.587605,-2.7692537,-0.706185226,0.66107263,-0.041279614,-0.00447231811,-0.0957274213
101675.597632,-2.78787511,-0.715360685,0.506814965,-0.0490712263,-0.00929077528,-0.105806954
101675.607660,-2.83805105,-0.711994277,0.298454539,-0.0508619361,-0.0300123002,-0.11432454
101675.617687,-2.87136295,-0.81703666,0.124198627,-0.0210286714,-0.0315923505,-0.108123101
101675.627715,-2.94190539,-0.977650124,0.11220073,-0.00449763192,-0.0246076807,-0.105115063
101675.637742,-3.0359915,-1.09462808,0.258760242,-0.0100921346,-0.011717448,-0.100646809
101675.647770,-3.03426365,-1.20074817,0.474631774,-0.0432122722,0.00163457647,-0.0966193154
101675.657797,-3.05928616,-1.25583052,0.65632865,-0.0803298056,0.0268656295,-0.08968018
101675.667825,-3.07366539,-1.3371587,0.631639615,-0.0825495571,0.0663121045,-0.076294601
101675.677852,-3.16540172,-1.47073482,0.430982602,-0.0594157428,0.0955557451,-0.0562090427
101675.687879,-3.27436858,-1.64388043,0.112001408,-0.0443707481,0.093086727,-0.0396982431
101675.697907,-3.39503641,-1.72810097,-0.0727519325,-0.0489247516,0.0792585313,-0.0203714166
101675.707934,-3.43996977,-1.77667854,-0.0346457814,-0.0559877232,0.0704663694,0.0110107418
101675.717962,-3.43124228,-1.83729858,-0.0269102188,-0.0599054992,0.0786912814,0.0480079055
101675.727989,-3.46583311,-1.85130109,0.0348287368,-0.0883368701,0.100034654,0.0837997273
101675.738017,-3.54803326,-1.81879802,0.197167417,-0.142474666,0.115813613,0.111039609
101675.748044,-3.66338076,-1.73683826,0.21111294,-0.184902817,0.139134645,0.125849172
101675.758072,-3.77412165,-1.65211926,0.103330026,-0.197044179,0.170000419,0.12873365
101675.768099,-3.91149131,-1.53970723,-0.168264563,-0.177029192,0.160923034,0.115709461
101675.778127,-4.03126861,-1.39862381,-0.708933282,-0.134810627,0.113010101,0.090880543
101675.788154,-4.15726435,-1.32143492,-1.09176999,-0.0869560167,0.0356724411,0.0591913164
101675.798181,-4.25618153,-1.1853949,-1.33419459,-0.0355032198,-0.0396894254,0.0375994742
101675.808209,-4.35471614,-1.16699678,-1.30667413,0.00650788099,-0.0944996774,0.0227315798
101675.818236,-4.3753974,-1.10668552,-0.931841874,-0.0032808336,-0.140851468,0.00734836236
101675.828264,-4.30443293,-1.09293443,-0.470953963,-0.0541099273,-0.158569753,-0.00681299716
101675.838291,-4.21826184,-1.23066481,-0.0370803151,-0.11780981,-0.136060983,-0.0194180049
101675.848319,-4.18660326,-1.32849726,0.242769476,-0.166447386,-0.0919145495,-0.0407781526
101675.858346,-4.12169356,-1.40665865,0.183709969,-0.176728517,-0.0462937988,-0.0676342696
101675.868374,-4.02596787,-1.50114267,-0.120755793,-0.163782626,-0.0197386239,-0.0997266918
101675.878401,-3.84686569,-1.5477501,-0.545793807,-0.117740832,-0.0149198985,-0.136103347
101675.888428,-3.62991133,-1.61692184,-1.01011929,-0.0319441594,-0.0218988769,-0.164633781
101675.898456,-3.39485053,-1.72771519,-1.32591309,0.0786686316,-0.0523057841,-0.177108824
101675.908483,-3.25143048,-1.9211744,-1.41502053,0.17412965,-0.0910310745,-0.182074815
101675.918511,-3.3065094,-2.08733614,-1.23988082,0.246799856,-0.140681446,-0.179244146
101675.928538,-3.43905324,-2.19494721,-0.907061653,0.307279468,-0.177366227,-0.171308458
101675.938566,-3.54906728,-2.25620817,-0.370593892,0.364397883,-0.188851371,-0.145552486
101675.948593,-3.63427128,-2.30742471,0.213826875,0.382741719,-0.184853435,-0.106891394
101675.958621,-3.67476374,-2.37477215,0.810502728,0.365141153,-0.202416986,-0.0439374559
101675.968648,-3.64502181,-2.36349366,1.22251,0.311232656,-0.222411737,0.0173868891
101675.978675,-3.61770885,-2.21517546,1.57707805,0.273759037,-0.225934029,0.0802143216
101675.988703,-3.54405179,-1.95342057,1.79567755,0.269638062,-0.173516899,0.157904327
101675.998730,-3.32931744,-1.73698264,2.05976746,0.247807324,-0.124493957,0.248919457
101676.008758,-3.07479411,-1.51439349,2.22962426,0.169604927,-0.0730627254,0.340365738
101676.018785,-2.89986044,-1.29502417,2.45033271,0.068949163,-0.00646292837,0.431049049
101676.028813,-2.75422477,-1.00500648,2.62202491,-0.0336480513,0.0601283498,0.511386216
101676.038840,-2.66463305,-0.598367569,2.41261001,-0.132050529,0.120367721,0.537027359
101676.048867,-2.7332641,-0.0583832519,1.79180626,-0.18665944,0.126857847,0.503433764
101676.058895,-2.87954772,0.556355095,0.967999229,-0.162044644,0.118974358,0.40324831
101676.068922,-3.0272187,1.10723541,0.214244224,-0.0621971376,0.108509734,0.256448478
101676.078950,-3.15222835,1.4150556,-0.367404741,0.0621099025,0.0967694521,0.105090648
101676.088977,-3.15467633,1.54056721,-0.615943448,0.158960551,0.0814157948,-0.0485668257
101676.099005,-3.04538827,1.60908179,-0.598525865,0.203370884,0.0487515926,-0.194671035
101676.109032,-2.94846957,1.39633804,-0.577039425,0.213307932,0.0443129018,-0.302631587
101676.119059,-2.82910991,0.953627955,-0.358838573,0.205055073,0.0644573197,-0.389547855
101676.129087,-2.72549172,0.508432776,-0.0834668032,0.159106225,0.109559819,-0.435625315
101676.139114,-2.49133663,0.00342266793,0.197007842,0.0815626904,0.153295577,-0.45113346
101676.149142,-2.18234024,-0.415522473,0.134464,0.0134385014,0.17947419,-0.440732479
101676.159169,-1.85705176,-0.79801135,-0.182286074,-0.0380230919,0.212490201,-0.400643647
101676.169197,-1.68787593,-1.1917754,-0.443671403,-0.039492622,0.244183138,-0.365303487
101676.179224,-1.71841983,-1.41951696,-0.899378697,0.0155967269,0.252037883,-0.33487156
101676.189252,-1.78008587,-1.56767529,-1.39890701,0.103869066,0.246978134,-0.308411181
101676.199279,-1.97103338,-1.66308504,-1.57302965,0.181955069,0.193332478,-0.275076121
101676.209306,-2.11852419,-1.78765294,-1.80251002,0.232594281,0.106189854,-0.231484443
101676.219334,-2.37858557,-1.90409481,-1.67714294,0.269788533,0.0207375325,-0.170396328
101676.229361,-2.64140678,-1.96181036,-1.08201548,0.278910667,-0.0337123908,-0.100427628
101676.239389,-2.98839709,-1.87230428,-0.260796716,0.216489613,-0.0954396725,-0.0336243622
101676.249416,-3.18605025,-1.77464499,0.307591785,0.104381986,-0.122293122,0.032841213
101676.259444,-3.37568639,-1.57470285,1.02896603,0.0300395824,-0.0615157969,0.0895132869
101676.269471,-3.61152315,-1.2149351,1.72875447,-0.0432527401,0.0287760179,0.103851736
101676.279498,-3.66861369,-0.82771266,1.89117381,-0.114650227,0.127730563,0.110355452
101676.289526,-3.41593657,-0.759731157,1.78455644,-0.214440733,0.184409559,0.119098604
101676.299553,-3.02603621,-0.817279602,1.13484633,-0.289323747,0.183357343,0.123061657
101676.309581,-2.69038825,-0.829144447,0.139932787,-0.294415176,0.173424289,0.119373977
101676.319608,-2.70118145,-0.685620211,-0.534435378,-0.180335239,0.182640955,0.126439333
101676.329636,-2.7368671,-0.728200731,-1.0276719,-0.102679588,0.145439252,0.125417218
101676.339663,-2.75887025,-0.705743912,-1.54984752,-0.0854768977,0.0320871286,0.109661698
101676.349690,-2.75495279,-0.735433021,-1.94680802,-0.0695764944,-0.0650857612,0.0977003723
101676.359718,-2.86336406,-0.807118493,-1.4696026,-0.0463667735,-0.0788164809,0.0915745646
101676.369745,-3.11564605,-0.866572479,-0.697230569,-0.0445779301,-0.07867001,0.0588914566
101676.379773,-3.37315746,-0.767676563,-0.305169526,-0.0704705194,-0.083121486,0.00721680932
101676.389800,-3.55276204,-0.73990549,-0.0980213983,-0.114551693,-0.0866123587,-0.053813789
101676.399828,-3.7005017,-0.786031866,0.183947285,-0.129698947,-0.0262254477,-0.108135879
101676.409855,-3.69053619,-0.971387995,0.613980624,-0.139693797,0.0287126359,-0.148369312
101676.419882,-3.35565483,-1.23306383,0.49446694,-0.149314195,0.0306586064,-0.166382939
101676.429910,-2.91409618,-1.51539959,-0.0457440986,-0.104570962,0.0228877701,-0.166720897
101676.439937,-2.59695009,-1.71649967,-0.487569582,-0.0181359351,-0.00490764203,-0.157869875
101676.449965,-2.36917492,-1.88992878,-1.01812958,0.0707430691,-0.0729066655,-0.149153084
101676.459992,-2.24060261,-2.11155157,-1.30100135,0.17295678,-0.134063765,-0.11998482
101676.470019,-2.19878985,-2.34999515,-1.04182727,0.244129762,-0.149648845,-0.0763896704
101676.480047,-2.3839357,-2.39211462,-0.247505857,0.250501394,-0.143464446,-0.0196305178
101676.490074,-2.60846956,-2.46012579,0.476686953,0.187335193,-0.135483757,0.0239688903
101676.500102,-2.88907718,-2.36683741,0.944976665,0.154803351,-0.109166667,0.0687842965
101676.510129,-3.08939313,-2.30301888,1.12714174,0.134881303,-0.0793102309,0.127278239
101676.520157,-2.97000774,-2.11727945,1.0230343,0.116202697,-0.0695002154,0.18205148
101676.530184,-2.72884336,-1.77735483,0.876219355,0.0911860242,-0.0521867424,0.243432015
101676.540211,-2.52130624,-1.62806444,1.1563503,0.0582014471,-0.0178495403,0.306251198
101676.550239,-2.41831626,-1.36159187,1.34839906,-0.0146820825,-0.0177997388,0.350323319
101676.560266,-2.24415781,-1.13449415,0.976862334,-0.0772863477,-0.0147741204,0.374822795
101676.570294,-2.11129716,-0.906106033,0.884150148,-0.115019873,0.025876902,0.368506849
101676.580321,-2.28186152,-0.614414193,1.15570324,-0.113749012,0.114102907,0.336594701
101676.590348,-2.47014274,-0.421686914,1.24255617,-0.100110434,0.181497663,0.269109666
101676.600376,-2.6350124,-0.151114435,0.935453635,-0.121825047,0.191079184,0.169252858
101676.610403,-2.59577345,0.0562880697,0.306782807,-0.0877285972,0.245670781,0.0967552215
101676.620431,-2.31729612,0.0096487759,0.222247497,-0.0382467955,0.297844499,0.0507975779
101676.630458,-1.99176491,-0.0298396963,-0.183180392,-0.070726715,0.236131608,-0.000738052651
101676.640486,-1.73106903,-0.0444665894,-1.16780927,-0.0635268539,0.168720603,-0.0225706473
101676.650513,-1.73311646,-0.0839628431,-1.54316701,0.0443306379,0.170362979,-0.0214766208
101676.660540,-2.10611464,-0.116205728,-1.45074767,0.136958301,0.104949616,-0.0427092053
101676.670568,-2.27684238,-0.074709131,-1.88033268,0.142943755,-0.0185789801,-0.0615609251
101676.680595,-2.26475373,-0.287253675,-1.73918526,0.130894825,-0.0787443146,-0.050640896
101676.690623,-2.3215092,-0.293550839,-0.656773471,0.13714233,-0.0600659698,-0.0364462472
101676.700650,-2.46506793,-0.0813931022,0.163374453,0.0883923694,-0.0649014637,-0.0465127304
101676.710677,-2.31869458,0.0415839832,0.172442141,0.0689648762,-0.00693297619,-0.020464886
101676.720705,-2.25165621,-0.146112133,0.596189531,0.0383331999,0.0785715431,0.0262181982
101676.730732,-2.20703264,-0.133407769,0.944300373,-0.0432713814,0.0986917242,0.0510021076
101676.740760,-2.12866579,-0.0337058337,0.594414338,-0.110050417,0.120876119,0.0715651736
101676.750787,-2.14830981,-0.0416416682,0.420987278,-0.119399175,0.137543246,0.0789434612
101676.760815,-2.23487488,-0.0435190064,-0.086864629,-0.11470136,0.106736332,0.0686897561
101676.770842,-2.10517254,-0.101365192,-0.738668495,-0.103453763,0.0654687881,0.0465176105
101676.780869,-2.12205178,-0.0248335951,-0.834155991,-0.0411954485,0.0377663188,0.00867702067
101676.790897,-2.26343359,0.0499830148,-0.981369583,0.0364538059,0.023099225,-0.0248100981
101676.800924,-2.27758224,-0.0704067941,-0.978037808,0.0535430461,-0.0254778992,-0.0562292747
101676.810952,-2.28074304,-0.230415095,-0.951617419,0.00468868623,-0.120074973,-0.0801873356
101676.820979,-2.18606145,-0.441399842,-0.921903248,0.020947285,-0.162885025,-0.0804824233
101676.831006,-2.10567376,-0.582207073,-0.51644847,0.0761500821,-0.164770275,-0.0715648234
101676.841034,-2.15443166,-0.713228203,-0.141032857,0.0913183838,-0.141341642,-0.0702012777
101676.851061,-2.21386511,-0.803659731,0.536997337,0.0139530245,-0.153523743,-0.083909899
101676.861089,-2.21621241,-0.792498431,0.877689428,-0.0933755636,-0.218414858,-0.106817886
101676.871116,-1.76872919,-0.929530528,0.294670344,-0.0506310277,-0.201675832,-0.11634241
101676.881143,-1.63584457,-0.829676069,0.15775369,0.0456528962,-0.10461399,-0.126695707
101676.891171,-1.76355778,-0.65062357,0.62756842,0.109856196,-0.0082599679,-0.149008468
101676.901198,-1.68462409,-0.680046649,0.865030437,0.11556761,0.0035546138,-0.166460693
101676.911226,-1.37132722,-0.78863328,0.50780573,0.0861764327,-0.0269609503,-0.142559886
101676.921253,-0.826676011,-1.08043128,0.114550508,0.0854094476,-0.0355877317,-0.0734979883
101676.931281,-0.590734663,-1.16449035,0.2331009,0.0927158296,-0.00316640548,0.00632786285
101676.941308,-0.578733041,-1.1641487,0.721663,0.0479081422,0.00829024706,0.0827826932
101676.951335,-0.587921688,-1.051117,0.77189155,-0.0190045778,-0.0140126627,0.128202364
101676.961363,-0.778405024,-0.9118909,0.657033584,-0.0485587418,0.0224606618,0.150377452
101676.971390,-1.11547337,-0.579237118,1.11480249,-0.0427788831,0.1005022,0.151489049
101676.981418,-1.45738974,-0.265847314,1.4472195,-0.0945344865,0.129914418,0.127059877
101676.991445,-1.45542034,-0.0363732263,0.901211173,-0.121545598,0.105086029,0.123369269
101677.001472,-1.0391316,-0.144508059,0.0236339736,-0.0811347961,0.102050826,0.138840899
101677.011500,-1.02727917,0.0905146394,-0.0206780464,-0.0398627222,0.130761027,0.132637858
101677.021527,-1.25819287,0.298861183,0.0977531027,-0.0176231954,0.137283653,0.115976863
101677.031555,-1.27116618,0.305549648,0.085797292,-0.0468681678,0.13321726,0.0782092437
101677.041582,-1.50669679,0.417612833,0.482523404,-0.10887748,0.109072514,0.0283852275
101677.051609,-1.5002409,0.342726008,0.290188815,-0.0885908455,0.0820715278,-0.0198060032
101677.061637,-1.27082731,0.187878085,-0.489343606,-0.00168018229,0.0665072128,-0.0522491634
101677.071664,-1.3149913,0.100652112,-0.535887915,0.0830437616,0.115924031,-0.0747331679
101677.081692,-1.57306502,0.0903920359,0.130824182,0.08811149,0.147939757,-0.0945052728
101677.091719,-1.70898901,-0.045567646,0.368211381,0.0271410793,0.131549865,-0.10195893
101677.101746,-1.60837642,-0.194075807,0.000398059407,-0.0249194577,0.045589149,-0.0831197277
101677.111774,-1.39415047,-0.392501079,-0.675493369,-0.055022236,-0.00185959262,-0.0501428694
101677.121801,-1.15479007,-0.61465224,-0.534518965,-0.00224770186,-0.000470221508,-0.00206988305
101677.131829,-1.26986898,-0.478719263,-0.25384149,0.00446133316,0.023096092,0.00464794133
101677.141856,-1.42744089,-0.455719532,0.203652687,0.0110864788,0.052794598,0.0105223414
101677.151884,-1.49706387,-0.426834141,0.520913633,-0.0383359306,0.0132535798,-0.0055543622
101677.161911,-1.43549545,-0.370030669,0.0494867922,-0.0476237051,-0.0486771651,-0.00974564627
101677.171938,-1.27519895,-0.552771866,-0.166102416,0.0213764012,-0.0470957831,0.000594610348
101677.181966,-1.44769925,-0.515934858,0.107780576,0.0616348721,-0.054825075,-0.0139212161
101677.191993,-1.46273783,-0.489732167,0.440083024,0.0651406571,-0.0494888984,-0.0249339212
101677.202021,-1.40013334,-0.53167775,0.73617434,0.0697279498,-0.00397281069,-0.0419821441
101677.212048,-1.37942957,-0.643586658,1.11629126,0.0601182021,0.0228042081,-0.0619430691
101677.222075,-1.32737498,-0.601134988,1.04158469,-0.0029891259,0.00772778736,-0.0922535658
101677.232103,-1.09328587,-0.742307144,0.477635048,0.019332692,0.0472957008,-0.0860223025
101677.242130,-0.852647633,-0.82301705,0.366864058,0.0557407662,0.12474975,-0.0797116756
101677.252158,-0.740732588,-0.70459781,0.456965185,0.0486197397,0.162800729,-0.0781329572
101677.262185,-0.512151431,-0.506816317,0.00665419719,0.0164564773,0.190745801,-0.0496046469
101677.272212,-0.221537011,-0.593160466,-0.415679819,-0.0493105538,0.180196762,0.00640243199
101677.282240,0.0392614951,-0.608378822,-1.02076811,-0.0919839814,0.171385691,0.0531004295
101677.292267,0.0529237079,-0.398307865,-1.16634446,-0.0907762349,0.19313173,0.101520427
101677.302295,-0.0218772661,-0.162166027,-1.19445821,-0.133599341,0.142245919,0.119343102
101677.312322,0.0622073768,0.100290293,-1.92880358,-0.106647342,0.0501301028,0.116983272
101677.322349,-0.0376318115,0.300176285,-2.41655612,0.014530479,-0.0385307893,0.0922949687
101677.332377,-0.290929733,0.48309229,-2.56983587,0.128377944,-0.148536921,0.0376836546
101677.342404,-0.484404798,0.762929661,-2.34101777,0.244786054,-0.224537417,-0.0244092774
101677.352432,-0.806967248,0.911144538,-1.15481242,0.302424848,-0.243880481,-0.0900759026
101677.362459,-1.10076563,1.00518943,0.25602351,0.280356556,-0.270078003,-0.17044425
101677.372486,-1.12591929,0.984255148,0.832608177,0.27415061,-0.288022101,-0.241630003
101677.382514,-0.870155525,0.830387213,0.933470936,0.3157987,-0.255925149,-0.289748549
101677.392541,-0.69985595,0.528010386,1.4625404,0.313630372,-0.203836396,-0.333832651
101677.402569,-0.605616116,0.472097288,2.33431564,0.252401888,-0.0946649015,-0.362230211
101677.412596,-0.594475165,0.370564009,3.11727803,0.189395502,0.0367330723,-0.365995109
101677.422623,-0.49977776,0.0874734085,3.24538887,0.0703545958,0.139296472,-0.337915272
101677.432651,-0.122523496,-0.302318886,2.89264919,-0.0110382643,0.237201184,-0.270194829
101677.442678,0.0325399683,-0.587239332,2.39476046,-0.0715460852,0.330604911,-0.187888741
101677.452706,0.179160489,-0.727371587,1.78506497,-0.13929078,0.367894769,-0.0835583508
101677.462733,0.271020442,-0.972281875,0.918345848,-0.236582711,0.319569021,-0.000667994842
101677.472760,0.255530283,-1.10664154,0.00884264715,-0.237415746,0.300034761,0.0911002755
101677.482788,0.0918388372,-1.09841468,-0.422791697,-0.169954941,0.310192317,0.177224502
101677.492815,-0.131953332,-0.863268981,-0.601773469,-0.109919839,0.280757457,0.228532702
101677.502843,-0.168913821,-0.709502314,-1.02286187,-0.100351103,0.178337067,0.257084697
101677.512870,-0.279576455,-0.648073594,-1.26311556,-0.0924300626,0.0770288259,0.268177032
101677.522897,-0.524858206,-0.509773632,-1.08605453,-0.0675121918,0.028437594,0.2568762
101677.532925,-0.836102449,-0.231014047,-0.5464625,-0.0538765416,0.037315771,0.232972994
101677.542952,-1.15479774,-0.176358839,0.137175597,-0.0772029012,0.049059514,0.176784292
101677.552980,-1.44292502,-0.175083814,0.526787494,-0.0979539901,0.0990355983,0.0996780545
101677.563007,-1.60040661,-0.128049676,0.780635413,-0.0729884505,0.19859761,0.00792549364
101677.573034,-1.74321174,-0.0205104713,0.808061765,-0.0403940231,0.24450092,-0.107868485
101677.583062,-1.40908968,0.0425723732,-0.129791917,0.00430287514,0.246905744,-0.19252637
101677.593090,-0.814323163,-0.109572793,-1.18677876,0.061681211,0.229226887,-0.215289742
101677.603118,-0.315446006,-0.398638997,-1.74506321,0.0936021283,0.224968493,-0.20321551
101677.613145,-0.168869689,-0.362417271,-1.81328452,0.149082959,0.245075896,-0.161181241
101677.623172,-0.150230967,-0.409243393,-1.7395424,0.126838118,0.191293359,-0.0997663438
101677.633200,-0.0757579094,-0.515921232,-2.13302033,0.11981456,0.0694055334,-0.018100515
101677.643227,-0.0758893537,-0.521234024,-2.46445009,0.140329689,-0.0487783663,0.0710919425
101677.653255,-0.377226097,-0.470266492,-2.10204359,0.128819495,-0.177418366,0.13042824
101677.663282,-0.696530312,-0.197581624,-1.50909816,0.104095779,-0.330149859,0.149999544
101677.673309,-0.78219974,0.0730433166,-1.18375327,0.138943776,-0.389334083,0.143387184
101677.683337,-1.04645588,0.290910115,-0.162639124,0.232150689,-0.340536177,0.114892691
101677.693364,-1.38012472,0.605621157,1.22277128,0.225025401,-0.282536536,0.0349413976
101677.703392,-1.49748414,0.9650075,1.98312027,0.176494345,-0.248123169,-0.0702212378
101677.713419,-1.23437301,1.04554789,2.06795427,0.13740474,-0.204086199,-0.157416865
101677.723446,-0.751756817,0.980879607,1.82069801,0.112927355,-0.148119867,-0.212738171
101677.733474,-0.256289249,0.788407947,1.35914082,0.113438152,-0.0783591643,-0.228156537
101677.743501,0.0401405795,0.592218874,1.40823072,0.0820738375,0.0689932704,-0.220942304
101677.753529,0.020454759,0.496145833,1.87363289,-0.0246643275,0.207478717,-0.21039699
101677.763556,0.199172181,0.390846699,1.61370595,-0.11712262,0.310292184,-0.179382339
101677.773583,0.408705377,0.259656898,0.868504836,-0.181237966,0.336535752,-0.113302395
101677.783611,0.697767161,-0.0171026721,-0.332971141,-0.185517386,0.247304156,-0.0284769889
101677.793638,1.02080004,-0.214220258,-1.74428872,-0.140200779,0.0847477391,0.0728328526
101677.803666,1.14192248,-0.27437399,-2.7370822,-0.062317431,-0.1292748,0.151408628
101677.813693,1.15209484,-0.27558059,-3.18311624,0.0759778619,-0.256594151,0.20962958
101677.823720,0.627725437,-0.0923550431,-2.10944481,0.178407297,-0.28438291,0.228188619
101677.833748,-0.0989095062,0.232395674,-0.471796843,0.165524527,-0.348067343,0.204454005
101677.843775,-0.410927729,0.389906569,0.334772053,0.103530921,-0.441281706,0.126170635
101677.853803,-0.617835692,0.434164886,0.701979225,0.121546678,-0.464110583,0.00873136614
101677.863830,-0.819982504,0.566077886,1.34200381,0.201225519,-0.377815902,-0.120405316
101677.873858,-0.818203074,0.881901274,2.22590144,0.254554272,-0.231475204,-0.245494261
101677.883885,-0.577802226,1.03232857,2.82114872,0.195123419,-0.100428775,-0.355453521
101677.893912,-0.0881435629,1.04176662,2.88963482,0.0950653553,0.0047115963,-0.426505595
101677.903940,0.4804744,0.649629445,2.33697404,0.0567203611,0.132164359,-0.446671575
101677.913967,0.981328885,0.239419143,1.65351364,0.0340579227,0.233589247,-0.421345204
101677.923995,1.37654569,-0.113206912,0.801858819,-0.00270008855,0.267296106,-0.357207745
101677.934022,1.75138365,-0.458299283,-0.19508535,-0.0267516281,0.245490387,-0.246686295
101677.944049,1.79846718,-0.838579068,-0.991042835,-0.0270411149,0.186276853,-0.107603505
101677.954077,1.65498138,-1.10656394,-1.4981939,-0.00366335362,0.0967424586,0.0496183448
101677.964104,1.366974,-1.12359194,-1.7114912,-0.00688551227,-0.0299081653,0.182672799
101677.974132,1.00050383,-0.83213771,-1.63483817,-0.0440664366,-0.187542275,0.279265106
101677.984159,0.827883925,-0.574834755,-1.50200791,-0.0475027151,-0.280505478,0.358655542
101677.994186,0.865169846,-0.293007598,-0.91727968,-0.0228639469,-0.298488468,0.417488217
101678.004214,0.64868515,0.133175348,-0.09881401,-0.0507666841,-0.270797998,0.423095793
101678.014241,0.393506347,0.510045252,0.714961457,-0.122048587,-0.210914969,0.394077718
101678.024269,0.214972575,0.773478966,1.37959499,-0.208410636,-0.116579674,0.347535521
101678.034296,0.330694574,0.916801833,1.50754508,-0.254754692,-0.0292362515,0.304930776
101678.044323,0.582037489,0.930043154,0.91192546,-0.255039126,0.0248032827,0.263499469
101678.054351,0.889824395,0.938566871,0.196713243,-0.223497972,0.0338010378,0.212063983
101678.064378,1.22540119,0.970356167,-0.538074611,-0.1553341,0.0320984796,0.157844692
101678.074406,1.40152406,0.995412283,-0.942740869,-0.0729561448,0.0218839254,0.101496994
101678.084433,1.30053972,0.979350279,-1.05205932,0.0188739132,0.0445194617,0.0459021702
101678.094460,0.965212521,0.968460855,-0.56004562,0.0578737743,0.0586169064,-0.0060281409
101678.104488,0.497972976,0.901351824,-0.00843523539,0.0374878086,0.0295032281,-0.064907968
101678.114515,0.23369671,0.724779159,0.0856844793,0.0339719057,-0.00642893929,-0.118232444
101678.124543,-0.013048684,0.63365585,0.0331909065,0.0631031543,-0.0137781985,-0.16635789
101678.134570,-0.0250616683,0.445299881,0.192024793,0.108005919,0.0320625268,-0.185513481
101678.144598,0.012752441,0.235839458,0.780192346,0.072469227,0.0525723286,-0.209112272
101678.154625,0.0732611606,0.207321366,1.12001584,-0.012486673,0.0524740592,-0.235254928
101678.164652,0.280440414,0.0946961994,0.900586904,-0.00385030778,0.0697185621,-0.239054993
101678.174680,0.488780017,-0.0718301415,0.448567943,0.042116385,0.0945120603,-0.235686094
101678.184707,0.611602971,-0.174670119,0.154731128,0.0746215954,0.108170882,-0.222538069
101678.194735,0.759287943,-0.232335395,0.0813572637,0.0673730075,0.100141451,-0.189029917
101678.204762,0.896002426,-0.293212108,0.0300187062,0.061299134,0.110185564,-0.133829772
101678.214789,0.862667069,-0.390085578,0.102404728,0.0808217004,0.135293573,-0.0584021322
101678.224817,0.740841748,-0.513206054,0.203283854,0.0519285351,0.132529736,-0.000848292373
101678.234844,0.450607194,-0.443465798,0.240372352,0.0255967975,0.0800087526,0.0475804918
101678.244872,0.397805651,-0.531303291,-0.0356213485,0.0456160419,0.0632175207,0.102576897
101678.254899,0.143631934,-0.458067447,0.225146726,0.053863585,0.0590688437,0.139093906
101678.264926,-0.154145473,-0.313086802,0.673097999,0.0144613218,0.0203677863,0.163781673
101678.274954,-0.106698553,-0.277500452,0.66649407,-0.00508175325,-0.00215856032,0.195679948
101678.284981,-0.0187307848,-0.198461621,0.637412353,0.0130402585,0.0113093108,0.234101102
101678.295009,-0.041790977,-0.0590847147,0.720954559,-0.025008589,0.0331432372,0.256096423
101678.305036,-0.0527870393,0.177439145,0.80479195,-0.0850072131,0.0506532565,0.252167463
101678.315064,-0.0411694111,0.335474648,0.724749276,-0.135104731,0.0898613781,0.229991049
101678.325091,0.0662537296,0.488301038,0.472535679,-0.171433702,0.141174361,0.210076466
101678.335118,0.35158714,0.531200122,-0.079147771,-0.185278952,0.196706593,0.201327175
101678.345146,0.618968934,0.605800678,-0.567728576,-0.209321171,0.213381976,0.219054773
101678.355173,1.00417536,0.52484973,-1.17406365,-0.22035864,0.183370546,0.25521785
101678.365201,1.20383028,0.449626147,-1.78856801,-0.186609194,0.14827089,0.275817901
101678.375228,1.01968127,0.702505514,-2.07990015,-0.114038602,0.0570091568,0.279412925
101678.385255,0.843392898,0.912349019,-2.5966818,-0.0303138737,-0.098530367,0.243502334
101678.395283,0.673585563,1.03023664,-2.96977335,0.0883832127,-0.287962079,0.182421669
101678.405310,0.411786246,1.1190684,-2.99121829,0.208771691,-0.409773469,0.100777671
101678.415338,-0.000566547842,1.09654568,-1.97048759,0.334652394,-0.427226484,0.00823841337
101678.425365,-0.368413224,1.19710638,-0.208565594,0.365593523,-0.381158322,-0.104431674
101678.435392,-0.594215345,1.25749831,1.38459499,0.303854793,-0.321143985,-0.221396372
101678.445420,-0.737484254,1.12520983,2.31492179,0.16809909,-0.262259632,-0.342709512
101678.455447,-0.707276966,0.945655076,2.69191912,0.0927113816,-0.164625764,-0.445780486
101678.465475,-0.325090909,0.816451188,2.47354057,0.138994202,-0.013513213,-0.514202118
101678.475502,0.21101748,0.56363495,2.18214647,0.162374094,0.0946265757,-0.545014083
101678.485530,0.915997677,0.281389057,1.55987265,0.119139798,0.107973538,-0.547744095
101678.495557,1.51829269,-0.0211095697,0.696969288,0.0986603498,0.0957610831,-0.496976584
101678.505584,1.87394693,-0.273212253,0.0395890831,0.131406322,0.120726086,-0.40367645
101678.515612,1.94445488,-0.503489985,-0.132149293,0.15908882,0.149981976,-0.284788668
101678.525639,1.84623022,-0.699068087,-0.0923608883,0.126304775,0.125352532,-0.158766553
101678.535667,1.73891229,-0.849997703,-0.23325989,0.101571456,0.0823382139,-0.0414543077
101678.545694,1.44792882,-0.92185181,-0.347347457,0.113752484,0.066108115,0.0735023767
101678.555722,1.0704364,-0.926200288,-0.211862882,0.0930631906,0.0179672129,0.167472541
101678.565749,0.827366623,-0.742609561,-0.302863003,0.0596120209,-0.0346352756,0.239008248
101678.575776,0.582844093,-0.523151987,-0.0849526579,0.0641729459,-0.0153531916,0.287696689
101678.585804,0.219537435,-0.13697591,0.663789488,0.0355924368,0.00816518348,0.287615448
101678.595830,0.0563681127,0.268602421,0.971945336,-0.0348316617,0.0356759019,0.246555373
101678.605858,-0.0432017206,0.610912322,1.27944535,-0.0587492436,0.0917660743,0.201401755
101678.615885,-0.0507447199,0.63352499,1.49729958,-0.0317613035,0.182567611,0.149176359
101678.625912,-0.121137924,0.738247055,1.46109488,-0.0163517185,0.23813127,0.0919178575
101678.635940,-0.0299617153,0.738350662,0.970935282,-0.0287447385,0.254429549,0.0475767627
101678.645967,0.105590007,0.655722355,0.496429765,-0.0402392112,0.283542186,0.00729405601
101678.655995,0.0635298576,0.515286222,0.561609801,-0.0684817657,0.326833189,-0.0219831392
101678.666022,0.0655165744,0.458161482,0.453343487,-0.145345911,0.326571405,-0.0405102186
101678.676050,0.184133967,0.414813923,-0.242681214,-0.168623,0.32433036,-0.0298115015
101678.686077,0.303846169,0.29460685,-0.831951175,-0.116552353,0.341063797,0.015037463
101678.696104,0.299372384,0.18678017,-1.07622521,-0.109433196,0.302574456,0.0609876439
101678.706132,0.316932664,0.20110819,-1.32380764,-0.131121442,0.201893896,0.100692183
101678.716159,0.284498275,0.251537013,-1.7021371,-0.145738199,0.0687113553,0.121722102
101678.726187,0.135167984,0.459026355,-1.96458099,-0.126369566,-0.0550026,0.113541394
101678.736214,-0.0301747735,0.585009892,-1.84568632,-0.0447519347,-0.097688809,0.0984111875
101678.746241,-0.175288105,0.708577235,-1.04351653,-0.0164683647,-0.0938575864,0.0552575886
101678.756269,-0.325401948,0.810286821,-0.106328623,-0.0838743076,-0.0984717757,-0.0125246551
101678.766296,-0.196699288,0.856454113,0.378595412,-0.112055078,-0.0608530343,-0.0819857568
101678.776324,-0.0687627167,0.775965887,0.629969051,-0.0934129506,0.0162188485,-0.146896839
101678.786351,-0.0834715525,0.794317756,0.682022479,-0.0684633926,0.0486609451,-0.210188195
101678.796379,0.175196335,0.603473989,0.39880175,-0.0395739526,0.0491490997,-0.249920174
101678.806406,0.466123108,0.473384916,-0.0598071107,-0.00271074101,0.0254259296,-0.266793162
101678.816433,0.659587944,0.292827785,-0.403994642,0.0394779891,0.0309346784,-0.268718094
101678.826461,0.748074183,0.0548825869,-0.17805472,0.0787598789,0.076825738,-0.241559431
101678.836488,0.703348395,-0.145847637,0.221249719,0.0414170362,0.0998849869,-0.213919282
101678.846516,0.662642144,-0.267293896,0.15156828,-0.0158947203,0.0833648667,-0.189316198
101678.856543,0.66384341,-0.380729721,-0.211988554,-0.0156678185,0.0930419937,-0.146911755
101678.866571,0.553401141,-0.515907861,-0.337820334,-0.011777739,0.0927895233,-0.105842352
101678.876598,0.4301821,-0.579804214,-0.373054145,-0.0495421626,0.0136763286,-0.0681924522
101678.886625,0.681138024,-0.684643037,-0.934557563,0.000669342931,-0.0657657608,-0.000563601032
101678.896653,0.910142229,-0.659940119,-1.27167998,0.127526358,-0.12129657,0.0877263173
101678.906680,0.874900016,-0.384042572,-1.00964934,0.210011378,-0.176182449,0.155455828
101678.916708,0.714981549,-0.0540269929,-0.172339265,0.210435078,-0.229694933,0.179186732
101678.926735,0.369710534,0.260988366,0.883677855,0.180897966,-0.256617635,0.164876759
101678.936763,0.0386809552,0.53329578,1.53232939,0.160415322,-0.20991537,0.109936818
101678.946790,-0.369967577,0.69493106,2.32490367,0.145823061,-0.0977385119,0.025882924
101678.956818,-0.659128729,0.786475591,3.0158933,0.0888490006,0.0260622632,-0.0745089278
101678.966845,-0.574248771,0.820933375,3.10734584,0.0317111388,0.141803786,-0.152363509
101678.976872,-0.208369413,0.835715642,2.50281518,-0.00187824457,0.209502399,-0.191510916
101678.986900,0.348783627,0.817512461,1.28108552,-0.0159557126,0.25224638,-0.180567712
101678.996927,0.821995817,0.657655296,0.479194552,-0.0481149815,0.275904566,-0.116368487
101679.006955,1.19800107,0.581741831,-0.0899666867,-0.0975895897,0.255259484,-0.0319843702
101679.016982,1.51161394,0.512804707,-0.861860575,-0.126857728,0.20053421,0.0716996789
101679.027010,1.568045,0.510147178,-1.49722243,-0.14130111,0.0948354676,0.153561264
101679.037037,1.42432787,0.531675704,-2.08437233,-0.106424622,-0.0439658239,0.202985272
101679.047064,1.19394843,0.479637985,-2.29100841,-0.0300635435,-0.154050246,0.223116904
101679.057092,0.710312169,0.6189145,-1.82682847,0.0105579188,-0.226278901,0.187928826
101679.067119,0.171530871,0.868745732,-0.910545403,0.0543200448,-0.231425196,0.133834958
101679.077147,-0.0407508934,1.12352837,0.114445294,0.0569626987,-0.252091616,0.0573364533
101679.087174,-0.0179993287,1.29164739,0.490251368,0.0322123468,-0.304024309,-0.0307686366
101679.097202,0.172422852,1.26710653,0.496713842,0.0658986717,-0.289437652,-0.112843268
101679.107229,0.217035973,1.23389619,1.03273386,0.157233387,-0.178236276,-0.191720501
101679.117257,0.135333403,1.31973411,1.90075997,0.142907172,-0.0934774503,-0.286213696
101679.127284,0.362623717,1.17082854,2.10915372,0.0587843023,-0.0663869753,-0.350001752
101679.137311,0.768537418,0.683279274,1.80400289,-0.0148957763,-0.0421064049,-0.380660355
101679.147339,0.971850059,0.203289334,1.29086808,-0.00653744489,0.0666301921,-0.376540661
101679.157366,0.898298501,-0.167816746,1.43449797,0.0232534744,0.195629999,-0.354600489
101679.167394,0.945594797,-0.341803559,1.21327514,-0.0378631428,0.261657476,-0.322347999
101679.177421,1.13519901,-0.503454257,0.558140079,-0.0753474012,0.308858812,-0.254635811
101679.187449,1.24351289,-0.667389704,0.157867087,-0.10453032,0.33133322,-0.174943656
101679.197476,1.24597387,-0.712848118,-0.445218048,-0.130368844,0.276713103,-0.0907129273
101679.207503,1.44139459,-0.833747703,-1.42491298,-0.111759737,0.185861513,0.00870020874
101679.217531,1.6609473,-0.929621202,-2.17236976,-0.0290581994,0.104122974,0.124021478
101679.227558,1.54760047,-0.89866843,-2.33082312,0.0575208999,0.024419358,0.222845793
101679.237586,1.1855197,-0.685395682,-1.83556824,0.0939636007,-0.0686983392,0.286284387
101679.247613,0.715804483,-0.402249552,-1.10832481,0.109253071,-0.15722394,0.312770367
101679.257641,0.208270264,-0.109903852,-0.342520475,0.12197233,-0.2040921,0.306560934
101679.267668,-0.198449492,0.129099258,0.541601032,0.0945566818,-0.216120809,0.255087614
101679.277696,-0.518366871,0.383324414,1.30031804,0.0516150743,-0.163244814,0.171485394
101679.287723,-0.640834655,0.663590312,1.95646023,-0.013832109,-0.0564749576,0.0604670011
101679.297751,-0.741450016,0.965649378,2.30643862,-0.0379057564,0.097968407,-0.0441949628
101679.307778,-0.586805763,1.10575306,2.19353939,-0.0137367686,0.264753401,-0.134097159
101679.317805,-0.304350757,1.09266211,1.51079093,-0.0396565162,0.336459279,-0.200670317
101679.327833,0.143765058,0.87817217,0.489620669,-0.0935884565,0.322541595,-0.218283147
101679.337860,0.605392682,0.583916617,-0.420396326,-0.0932875201,0.29102999,-0.170145437
101679.347888,1.07112431,0.299362009,-1.22940385,-0.0388815366,0.233149678,-0.05261508
101679.357915,1.34671155,0.113350558,-1.98891406,0.0118958903,0.0847194493,0.076963149
101679.367943,1.32879683,0.035106677,-2.54897663,0.0420495309,-0.145430923,0.174383178
101679.377970,0.893729658,0.0484493389,-2.42689163,0.0726647004,-0.353457093,0.229181722
101679.387998,0.320726211,0.0645431263,-1.45876848,0.152484164,-0.423914492,0.244828582
101679.398025,-0.330146731,0.233458481,0.198438752,0.222788155,-0.383103669,0.213711947
101679.408053,-0.955809025,0.43368945,1.96637431,0.189272806,-0.304861069,0.122044608
101679.418080,-1.28971642,0.607537001,3.09474764,0.0836720765,-0.238584042,-0.00104749296
101679.428107,-1.3139903,0.693254432,3.438156,-0.0246615857,-0.168505087,-0.139576077
101679.438135,-1.08232418,0.758167561,3.25166488,-0.0356559157,-0.0698472261,-0.256813228
101679.448162,-0.593838292,0.744382197,2.56393396,0.0206592903,0.0574987456,-0.327068448
101679.458190,0.0512751369,0.654466729,1.99268831,0.0471761152,0.179335982,-0.354602337
101679.468217,0.628973976,0.309608897,1.66555947,0.0120756542,0.274424404,-0.338605285
101679.478245,1.0039151,-0.0653683981,1.26487614,-0.0512473918,0.353516817,-0.289386868
101679.488272,1.16688404,-0.315158494,0.58820204,-0.104162537,0.415731728,-0.209644645
101679.498300,1.21189756,-0.531270923,-0.255437235,-0.149496198,0.417242527,-0.104124874
101679.508327,1.42322838,-0.821924359,-1.48547529,-0.156521887,0.340820998,0.0298007
101679.518355,1.61137458,-1.04437132,-2.78268484,-0.100016795,0.219826683,0.177715331
101679.528382,1.58874058,-1.27906395,-3.5691836,-0.0331770442,0.0537530109,0.311263263
101679.538409,1.37582541,-1.16273861,-3.7953696,0.0556729324,-0.110874288,0.412424505
101679.548437,1.02542259,-0.679183383,-3.31816359,0.0934354961,-0.280872911,0.461824834
101679.558464,0.651999316,-0.0578860065,-2.60381589,0.10451664,-0.402560741,0.469385266
101679.568492,0.312505568,0.482207397,-1.41860657,0.1318665,-0.414654166,0.439955473
101679.578519,-0.0989905356,1.08965935,0.0672556731,0.136721715,-0.327479571,0.359386563
101679.588547,-0.462206446,1.50696524,1.60497494,0.0712327212,-0.204723269,0.25450784
101679.598574,-0.553889801,1.76331111,2.5373388,-0.0571375079,-0.108787961,0.107393228
101679.608602,-0.4738198,1.92175424,2.55429578,-0.128181323,0.00815197174,-0.0276860297
101679.618629,-0.164216091,1.88855545,2.08023508,-0.100543298,0.131538093,-0.128719702
101679.628657,0.322734555,1.6889535,1.09084936,-0.051616773,0.185388282,-0.195718706
101679.638684,0.771696978,1.45432173,0.0345189402,-0.00688205799,0.183759481,-0.242197528
101679.648712,0.942775064,1.23561556,-0.567349806,0.0513247885,0.167511538,-0.264948666
101679.658739,0.857800925,1.04810708,-0.83485391,0.0935268402,0.137801856,-0.2747733
101679.668766,0.663976535,0.83556067,-0.863231864,0.083141841,0.0588148795,-0.268657625
101679.678794,0.574042362,0.463297676,-0.930260742,0.0784472227,-0.0193321165,-0.239257127
101679.688821,0.546409893,0.115907549,-0.913067615,0.11760927,-0.0809342265,-0.20251137
101679.698849,0.324464009,-0.102597474,-0.740668145,0.160321847,-0.138453707,-0.169206411
101679.708876,0.13549137,-0.102037064,-0.433113185,0.182029814,-0.201239601,-0.150236443
101679.718904,0.0786743083,-0.120300815,0.0599795447,0.184608817,-0.240414962,-0.122755557
101679.728931,0.13780067,-0.0668300681,0.761847711,0.189230457,-0.240970224,-0.09780626
101679.738959,0.241526345,0.111275432,1.40262223,0.159350857,-0.218202859,-0.0908641964
101679.748986,0.235335965,0.256758985,1.94745918,0.102764547,-0.17383647,-0.116728291
101679.759014,0.168243885,0.292715191,2.42664321,0.0785947591,-0.0775400326,-0.143290654
101679.769041,0.231679781,0.128044415,2.55835879,0.0574021228,0.0364171639,-0.161291227
101679.779069,0.372484894,0.0438343194,2.33557178,0.0357812494,0.139181897,-0.175407842
101679.789096,0.548978867,-0.0317637232,1.80462716,0.032819815,0.234851435,-0.174983338
101679.799124,0.6601759,-0.10206724,1.36739427,-0.0162665062,0.29028219,-0.150963217
101679.809151,0.784553975,-0.226730926,0.692729751,-0.0514540523,0.302104771,-0.0989040136
101679.819179,1.0059168,-0.228621416,-0.144702485,-0.0422981046,0.277942151,-0.0199785735
101679.829206,1.23850953,-0.235013382,-1.04415074,-0.0301381126,0.208000109,0.0800755918
101679.839233,1.46846132,-0.225220887,-1.76707689,-0.0305988379,0.0897312537,0.197111666
101679.849261,1.46387808,-0.145631072,-2.06786017,-0.00531212427,-0.0322191529,0.298850536
101679.859288,1.19835521,0.0358293652,-1.76959852,0.0277496874,-0.0932894349,0.364907324
101679.869316,0.650128407,0.379914021,-0.762667795,0.0285768658,-0.118262962,0.379881203
101679.879343,0.198260034,0.781056269,0.0258329449,-0.0228330605,-0.140606076,0.339361489
101679.889371,-0.0733455875,1.18098425,0.454769136,-0.0586954542,-0.140054539,0.264075756
101679.899398,-0.0823863876,1.44837013,0.631315205,-0.0369204842,-0.101969033,0.165940002
101679.909426,-0.0180675716,1.6477374,0.534003416,0.0165882818,-0.0311534498,0.0589911863
101679.919453,0.155068324,1.78430158,0.541217001,0.0455355085,0.0363060161,-0.0510876477
101679.929481,0.338991351,1.81751967,0.669110975,0.0209891554,0.0634548143,-0.141232461
101679.939508,0.692641123,1.73444157,0.530963318,0.010531188,0.0872344449,-0.190241545
101679.949536,0.887921484,1.56921302,0.239039642,0.012637482,0.0830535442,-0.213773772
101679.959563,1.00025417,1.380501,-0.258885914,0.0307650864,0.0596765876,-0.206073776
101679.969591,1.01008144,1.04630266,-0.580760491,0.0220520217,0.041792661,-0.182862729
101679.979618,0.877621916,0.798368273,-0.364613064,-0.0205953065,0.0431713797,-0.163143352
101679.989646,0.810693721,0.645913639,-0.197764214,-0.0948138759,0.0327400416,-0.152359948
101679.999673,0.873008211,0.551377672,-0.546403464,-0.115907706,0.026769504,-0.14013125
101680.009700,0.956453972,0.472008294,-0.927190833,-0.101799078,0.0315661244,-0.144229054
101680.019728,0.930401027,0.583042319,-1.08627548,-0.031427715,0.029797785,-0.147391558
101680.029755,1.14897714,0.66732095,-1.42255092,0.0215731859,-0.0186786707,-0.133162022
101680.039783,1.45416508,0.598543693,-1.62858846,0.0194064379,-0.107021049,-0.0904230699
101680.049810,1.6768479,0.385148487,-1.529429,0.0159872063,-0.174223781,-0.0449844822
101680.059838,1.56668233,0.330562911,-1.1177701,0.042685397,-0.162560999,-0.00353930518
101680.069865,1.06997119,0.333257776,-0.237981658,0.032667648,-0.136304095,0.0183406938
101680.079893,0.70739051,0.247839108,0.359673854,-0.0153302364,-0.126545206,0.0134519283
101680.089920,0.31350795,0.19270072,0.657446256,-0.027759742,-0.120874286,-0.0116861816
101680.099948,-0.0235775672,0.123312711,0.641621495,0.0221473631,-0.090965122,-0.0698613375
101680.109975,-0.162952063,0.161426826,0.540021654,0.0984908715,-0.0695407912,-0.126111299
101680.120003,-0.0144091952,-0.0158505531,0.365484002,0.139666274,-0.0843841806,-0.162819251
101680.130030,0.264689267,-0.226021317,0.171762342,0.183411092,-0.0999634117,-0.182787091
101680.140058,0.396284871,-0.235302575,0.278300809,0.196269095,-0.0891427174,-0.180794522
101680.150085,0.437058342,-0.290683613,0.816904412,0.164906651,-0.0591454059,-0.165909052
101680.160113,0.305074761,-0.40097566,1.47325294,0.0706110373,-0.0193125028,-0.143603206
101680.170140,0.254687586,-0.449789156,1.84655901,-0.0184077863,0.0320276469,-0.120782845
101680.180168,0.263370585,-0.444489807,1.80130942,-0.0777398124,0.0985206515,-0.0837800801
101680.190195,0.340146366,-0.518747614,1.53021401,-0.0900572017,0.177197099,-0.0189946946
101680.200223,0.457359737,-0.638758215,1.22088678,-0.102026246,0.21987772,0.061706014
101680.210250,0.599883271,-0.66544668,0.828982972,-0.176588371,0.17241779,0.129741788
101680.220278,0.683787151,-0.549260826,0.228545721,-0.199430034,0.109576769,0.19607766
101680.230305,0.678187139,-0.40751098,-0.201032275,-0.131154567,0.107115209,0.252723634
101680.240333,0.459915997,-0.172679968,-0.115677466,-0.0683910549,0.114476718,0.274592966
101680.250360,0.211527147,0.0570642417,0.0573135403,-0.0702158511,0.0738589838,0.252425373
101680.260387,0.100549236,0.215513367,0.0126548989,-0.0792540908,0.0236496106,0.207488775
101680.270415,0.0380772903,0.320158933,-0.0810761087,-0.0442854576,0.0190705713,0.161485597
101680.280442,-0.0398198961,0.455141915,0.0456464834,-0.00158006931,0.0403399058,0.119510457
101680.290470,-0.0920947117,0.572997164,0.152097272,0.014113673,0.059224382,0.0757275522
101680.300497,-0.0900108181,0.73391246,0.214164729,0.0269253403,0.0700450689,0.0353734717
101680.310525,0.0718468734,0.778271753,0.193485513,0.00109081506,0.0632273778,-0.00571643934
101680.320552,0.330111002,0.807857475,0.149857384,-0.0325816609,0.0660633817,-0.027232917
101680.330580,0.649213411,0.72086805,0.0779857415,-0.0584358945,0.0922201499,-0.0232858453
101680.340607,0.869181785,0.626940351,-0.130773329,-0.0720592961,0.125094205,-0.0182719119
101680.350635,0.919039164,0.601330109,-0.402228217,-0.0846105069,0.152624384,-0.0194317196
101680.360662,0.87951847,0.481817083,-0.551325138,-0.084815301,0.164831236,-0.022351874
101680.370690,0.897755407,0.389274043,-0.741005414,-0.113523908,0.128944084,-0.0162023697
101680.380717,0.962244392,0.368863781,-1.2278385,-0.0940596685,0.0410871878,0.0112838494
101680.390745,1.19809905,0.323973742,-1.87767019,-0.042555999,-0.0549938045,0.0532392859
101680.400772,1.30224112,0.33382352,-2.1562615,0.0339446329,-0.121798396,0.0992818847
101680.410800,1.0728089,0.371218527,-1.59684951,0.0430012457,-0.174729511,0.107060976
101680.420827,0.671946418,0.498696029,-0.682356241,0.0118803456,-0.205151603,0.0673516467
101680.430855,0.356813423,0.682072163,0.00686871673,0.0291280411,-0.183417022,0.0162711516
101680.440882,0.139606697,0.682231153,0.396870489,0.08877673,-0.122174971,-0.0531089902
101680.450910,0.0511200925,0.737451228,0.756837189,0.108907297,-0.0739669651,-0.129605904
101680.460937,0.136624101,0.708282563,0.989747535,0.0756436139,-0.0490490943,-0.197710648
101680.470965,0.371954148,0.516990468,1.02651805,0.0608675964,0.0116968108,-0.222475126
101680.480992,0.70566544,0.255960236,1.10985743,0.060963735,0.0790803805,-0.207957968
101680.491020,1.00664124,0.0638373891,0.856019448,0.0306007694,0.0888248831,-0.168795109
101680.501047,1.32496003,-0.167910708,0.234325473,0.0150079625,0.0571090318,-0.106256627
101680.511075,1.47177702,-0.358589566,-0.355709627,0.0340849832,0.0348995999,-0.0242629591
101680.521102,1.36087875,-0.409429454,-0.447322327,0.0795976073,0.0447908454,0.0541716591
101680.531130,1.13425625,-0.334508068,-0.123892922,0.0732363835,0.0500425994,0.104260929
101680.541157,0.919416181,-0.16076069,0.168296127,0.00257126614,0.0304073822,0.130333275
101680.551185,0.80332458,0.0628548078,0.233237093,-0.0714994967,-0.00588910701,0.153703302
101680.561212,0.786408298,0.163207791,0.0856681127,-0.0684562996,-0.000926306355,0.175506338
101680.571239,0.712204851,0.281044554,0.141228087,-0.0300346147,0.037197642,0.183272377
101680.581267,0.54828219,0.447192417,0.369649305,-0.0407290719,0.0461314842,0.158660248
101680.591294,0.446107179,0.608648981,0.482581272,-0.0657731667,0.0290899165,0.110331602
101680.601322,0.551250831,0.705693643,0.357659007,-0.0329576991,0.0271721743,0.0666823909
101680.611349,0.622923005,0.845963041,0.120444243,0.0361768976,0.0447674096,0.0341944918
101680.621377,0.676061525,0.909186901,0.000706102443,0.0949720368,0.0420222245,-0.000110751949
101680.631404,0.654828402,0.855207912,-0.0607861849,0.123879321,0.0308041926,-0.0182609931
101680.641432,0.576288314,0.709327908,0.0232405903,0.130540952,0.0116565973,-0.018035423
101680.651459,0.608428835,0.552257085,0.120766899,0.111033298,0.00603865879,0.00810190476
101680.661487,0.550269711,0.40363538,0.415102312,0.0612502918,-0.013772863,0.0378874987
101680.671514,0.478228703,0.385488168,0.561405218,0.00554681616,-0.0189551078,0.0599256903
101680.681542,0.369158087,0.524519549,0.690910134,-0.021809442,-0.00164908811,0.0700012222
101680.691569,0.273862753,0.740835391,0.814358235,-0.0493111089,0.0185951982,0.0604394078
101680.701597,0.250658915,0.915545915,0.79795129,-0.0559575595,0.0350090563,0.0437147617
101680.711624,0.298147226,0.956104062,0.63814885,-0.0440465696,0.0454603657,0.0220129266
101680.721652,0.386891897,0.967156129,0.41168695,-0.0398819186,0.0330228694,0.00282059005
101680.731679,0.507024955,0.924453736,0.170384039,-0.0212286059,0.03329904,-0.00928507559
101680.741707,0.711251642,0.802086052,0.153749131,-0.00469836453,0.0581849478,-0.00733777136
101680.751734,0.702361137,0.787237442,0.279299756,-0.0472375713,0.0461631753,-0.0164444502
101680.761762,0.641376726,0.790045777,0.15504034,-0.098669596,0.016994372,-0.0308356415
101680.771789,0.521943488,0.732375387,-0.0615641835,-0.0734236315,0.0210176092,-0.0390626788
101680.781817,0.346734951,0.651523588,-0.171484109,-0.0176631659,0.0283655375,-0.055784665
101680.791844,0.251068664,0.58942296,-0.28496845,0.0264800601,0.00143085758,-0.0735878944
101680.801872,0.303855083,0.41429326,-0.384755689,0.0464260727,-0.057437785,-0.0743397102
101680.811899,0.441489164,0.27647447,-0.293050634,0.04183558,-0.127072513,-0.0665960312
101680.821927,0.587973565,0.160866123,0.0392278485,0.0357467942,-0.158865869,-0.0521289483
101680.831954,0.751590155,0.0511877509,0.436857632,0.0314268805,-0.144619018,-0.0345669985
101680.841982,0.784272674,0.0493486259,0.69120824,0.0138052786,-0.0825572535,-0.0218115188
101680.852009,0.787095111,-0.00929455563,1.02756143,-0.00870216079,0.0167190004,-0.00689355657
101680.862037,0.680313483,-0.0849171482,1.40369834,-0.0771800205,0.0802236721,-0.0183472801
101680.872064,0.60690864,-0.0378344214,1.14137427,-0.124515839,0.107509889,-0.0335781649
101680.882092,0.693361984,0.00771904994,0.460539536,-0.0851018578,0.17146571,-0.0376067311
101680.892119,0.755998108,0.136357266,-0.0197135853,-0.0454324782,0.190380812,-0.0301594641
101680.902147,0.933283232,0.196779075,-0.706675274,-0.0528756417,0.15670988,-0.0147025641
101680.912174,1.16119095,0.145783266,-1.16936293,-0.0523483381,0.108031288,0.0235782452
101680.922202,1.33847154,0.110143286,-1.52733173,-0.0387150832,0.0595742799,0.0675915107
101680.932229,1.35880764,0.0908200155,-1.69612061,-0.0116669554,0.0265058074,0.10931845
101680.942257,1.19366589,0.133554338,-1.47654555,-0.00773746101,-0.0228431001,0.135932744
101680.952284,1.01181499,0.284809387,-1.24886375,-0.0210575275,-0.0807293057,0.154011875
101680.962312,0.875435585,0.281462561,-1.03857089,-0.019715827,-0.114434004,0.150758833
101680.972339,0.68174505,0.438727225,-0.60691843,0.0215871371,-0.0891757905,0.134204358
101680.982366,0.439544241,0.699726478,0.0478565607,0.00354555342,-0.0626445785,0.0804689601
101680.992394,0.364854107,0.906412322,0.434424852,-0.0204844158,-0.0533054024,0.0329400524
101681.002421,0.608719415,0.971132705,0.336900882,-0.0138723189,-0.0362502523,0.000376786105
101681.012449,0.798913778,0.959043769,0.318784795,0.00647955807,-0.0192262605,-0.0142908394
101681.022476,0.800870538,0.804730648,0.405868035,0.0226148516,-0.0161329992,-0.0205942765
101681.032504,0.59494333,0.629346097,0.561798601,0.0440264009,-0.0256346259,-0.0369913578
101681.042531,0.268506852,0.504966122,0.718422995,0.0721224844,-0.0587805957,-0.0527801737
101681.052559,0.0772933753,0.372340517,0.78099431,0.0937300399,-0.0937657431,-0.0639785007
101681.062586,0.0234241302,0.249813842,0.9455267,0.0982925668,-0.107714854,-0.0623379946
101681.072614,0.0521148026,0.185857283,1.16368254,0.0804517865,-0.0936962366,-0.0647500157
101681.082641,0.0843870599,0.151860687,1.49952778,0.0322131515,-0.0542068817,-0.0635145754
101681.092669,0.261918925,0.1312899,1.61414492,-0.0280669667,-0.013337479,-0.0596572533
101681.102696,0.519918338,0.189175249,1.26418348,-0.0719127208,0.02309989,-0.0549400002
101681.112724,0.705303694,0.261538182,0.874102217,-0.101480998,0.0412003323,-0.0544827357
101681.122751,0.836145777,0.337093774,0.313907544,-0.100349687,0.0570077896,-0.049103681
101681.132779,1.00858324,0.361062313,-0.148973002,-0.0705891326,0.0902309865,-0.0356472619
101681.142806,1.18927912,0.366627327,-0.514243654,-0.0399467945,0.0929324999,-0.00872376747
101681.152834,1.40613609,0.333489246,-1.13766781,-0.0269891862,0.0459562056,0.0282355808
101681.162861,1.58062011,0.247722934,-1.73496911,-0.011317282,-0.0409720354,0.0770422667
101681.172889,1.67457338,0.224473941,-1.99994749,0.00600737939,-0.125853896,0.120959394
101681.182916,1.57411891,0.293693754,-2.04649998,0.0495852195,-0.21695292,0.150445908
101681.192944,1.34662124,0.403144236,-1.680328,0.106352091,-0.265603274,0.156871319
101681.202971,1.07924836,0.476610673,-0.738038381,0.126159087,-0.301227838,0.149732709
101681.212999,0.885702931,0.5705326,0.0456558358,0.117988244,-0.332616657,0.111197308
101681.223026,0.740096628,0.707450496,0.613652707,0.12614657,-0.309752375,0.0645381957
101681.233054,0.457024441,0.859909733,1.21983464,0.147291005,-0.224086732,-0.0140950978
101681.243081,0.274071354,1.01628782,1.8125866,0.153009355,-0.111737289,-0.0969676077
101681.253109,0.257956086,1.02396377,2.22821381,0.104070559,-0.017603064,-0.176526099
101681.263136,0.449191482,0.914402956,2.15454359,0.0406977162,0.0545539521,-0.218072474
101681.273164,0.876307618,0.793626632,1.60783852,0.000381451799,0.109107204,-0.211963713
101681.283191,1.35657258,0.655595879,0.755382899,-0.030690182,0.119773701,-0.165709138
101681.293219,1.76213096,0.540224702,-0.234577402,-0.054169938,0.119460508,-0.088843368
101681.303246,2.02085847,0.447668803,-0.806878693,-0.0430706814,0.104652539,0.00517740007
101681.313274,2.11757814,0.380959292,-1.32773329,-0.0710810125,0.0377589948,0.0971017331
101681.323301,2.22079506,0.336254912,-1.81225284,-0.0749849454,-0.0504459664,0.182573766
101681.333329,2.18491433,0.374410017,-2.05746795,-0.0295431577,-0.110672295,0.24590531
101681.343356,1.84629247,0.654353916,-1.94427646,0.0136834085,-0.165431932,0.251995713
101681.353384,1.32673741,0.989225045,-1.4294664,0.0161228646,-0.207396701,0.205658823
101681.363411,0.913249986,1.29900535,-0.656413406,0.0198158696,-0.209683284,0.122891784
101681.373439,0.674555285,1.46271722,-0.0352852484,0.0417291597,-0.16511023,0.0398312509
101681.383466,0.555021581,1.42968326,0.488924504,0.0750961676,-0.117912099,-0.0389511809
101681.393494,0.538732856,1.36097695,0.679206837,0.110501029,-0.126765504,-0.106839418
101681.403521,0.675421912,1.19784427,0.529899488,0.147302195,-0.174209177,-0.152242839
101681.413549,0.885334098,0.934943274,0.487531003,0.187195554,-0.206864864,-0.176738858
101681.423576,0.911357085,0.714940487,0.959749287,0.201241598,-0.196518481,-0.194696307
101681.433604,0.871185015,0.563765152,1.65932262,0.162887007,-0.150566697,-0.199238598
101681.443631,0.99019674,0.414343968,2.24035491,0.0816355571,-0.0760964751,-0.190956414
101681.453659,1.1116449,0.26787966,2.49876912,-0.0214514099,0.0126986485,-0.177751392
101681.463686,1.24840958,0.0806784877,2.28547884,-0.100584842,0.104554266,-0.147261411
101681.473714,1.43723835,-0.0770232531,1.7306302,-0.145529404,0.168446437,-0.108153418
101681.483741,1.72339528,-0.154687873,0.779849231,-0.159890503,0.19200103,-0.0471664965
101681.493769,2.04121035,-0.172571466,-0.172085582,-0.140028924,0.187414542,0.03008781
101681.503796,2.27070417,-0.109442445,-0.973241221,-0.0679366216,0.16419524,0.115246646
101681.513824,2.37696572,0.00958827788,-1.62859314,-0.00219062902,0.0965352207,0.185188711
101681.523851,2.3195626,0.127102458,-1.96165838,0.0197511539,-0.0108868387,0.239092678
101681.533879,2.16004833,0.198223575,-1.87641405,0.013345453,-0.110712774,0.267644703
101681.543906,1.84951771,0.368086951,-1.40769296,0.0437017642,-0.158141792,0.270165116
101681.553933,1.4070003,0.580621448,-0.732120681,0.0922373384,-0.149987996,0.227626979
101681.563961,0.960484469,0.845321163,0.0538292053,0.125759885,-0.122817107,0.160068989
101681.573988,0.78606416,0.985223482,0.612716303,0.122349963,-0.0939652175,0.0814367533
101681.584016,0.764237017,1.04285361,1.04570966,0.0973306298,-0.0562202297,0.00724481186
101681.594043,0.870119139,1.0725607,1.27832599,0.0776472092,-0.00801701657,-0.0586641654
101681.604071,1.12742831,1.09810262,1.20884329,0.0650011897,0.0483160317,-0.107379235
101681.614098,1.38934657,1.0036094,1.04152215,0.0611481294,0.112755738,-0.128171861
101681.624126,1.55914434,0.876093756,0.836132844,0.047983326,0.179590434,-0.122765653
101681.634153,1.6149862,0.741640351,0.534283987,0.0123883132,0.219102949,-0.101492323
101681.644181,1.68062114,0.660996131,0.00797229405,-0.0498910397,0.210855946,-0.0734710693
101681.654208,1.83324769,0.651164034,-0.700361853,-0.0875678435,0.184099436,-0.0284745693
101681.664236,2.06373841,0.636769744,-1.36494454,-0.0158630311,0.170693606,0.0501720384
101681.674263,2.17592131,0.642510699,-1.78353469,0.0751289278,0.149236262,0.128058046
101681.684291,2.13221471,0.710424836,-1.91604814,0.0910884514,0.0757183582,0.191816241
101681.694318,1.96679151,0.781711445,-1.63107443,0.0376428068,-0.0144317728,0.223500669
101681.704346,1.59844057,0.917293709,-1.0646885,-0.0139452899,-0.0575595349,0.22036773
101681.714373,1.17514619,1.15650863,-0.503904046,-0.0236282777,-0.0493370257,0.191412508
101681.724401,0.782834166,1.33747405,-0.130969144,0.00700233644,-0.0164760146,0.133675188
101681.734428,0.511633398,1.46889503,-0.035302784,0.0366017744,0.0129463226,0.0524375886
101681.744456,0.331576837,1.55180113,0.154606624,0.0524108335,0.033089675,-0.0475451984
101681.754483,0.320265096,1.52095021,0.342662514,0.0310237836,0.0367927998,-0.13945061
101681.764511,0.549275074,1.35948729,0.253176304,0.0177439302,0.0600102358,-0.181497127
101681.774538,0.98524657,1.06658761,0.11074001,0.0326885283,0.100073494,-0.177198261
101681.784566,1.27895055,0.855882012,-0.0726081401,0.0301270969,0.110344246,-0.140993387
101681.794593,1.41595547,0.714153136,-0.37641573,-0.0205246285,0.0683459267,-0.0993183851
101681.804621,1.40894822,0.60336746,-0.563911063,-0.0784071088,0.0194838494,-0.0541892573
101681.814648,1.3450515,0.521168412,-0.622725071,-0.0943687633,-0.00206218823,-0.00477376767
101681.824676,1.26216455,0.526471633,-0.707572515,-0.0690439641,-0.0124088349,0.0443943106
101681.834703,1.2034247,0.580034223,-0.819537099,-0.0441364795,-0.0411922783,0.0753098801
101681.844731,1.04229583,0.619741233,-0.676439126,-0.0622654147,-0.0899158791,0.0791099444
101681.854758,0.86908775,0.639806481,-0.341997912,-0.0944595784,-0.131009787,0.0661225095
101681.864786,0.808303319,0.61535067,-0.0728477941,-0.0829118416,-0.119848743,0.064118214
101681.874813,0.875019551,0.558728473,0.176456637,-0.0497309826,-0.0810619369,0.061659053
101681.884841,0.822309632,0.579188274,0.372633289,-0.0713523924,-0.0723813623,0.0452427939
101681.894868,0.697742465,0.62081858,0.488418308,-0.128161877,-0.094364427,0.000956555828
101681.904896,0.566046103,0.662491411,0.499146622,-0.144660249,-0.104979537,-0.0510634109
101681.914923,0.540122045,0.69419354,0.399268198,-0.0903900713,-0.0799351707,-0.0962750912
101681.924951,0.640424467,0.670573522,0.272910348,-0.0292074084,-0.0618799999,-0.12068136
101681.934978,0.936917935,0.516305847,0.126046885,-0.0165254362,-0.0802377015,-0.130356893
101681.945006,1.21377899,0.421747595,-0.0262853649,-0.0291363019,-0.101507835,-0.13866064
101681.955033,1.35147657,0.381993969,0.0432400068,-0.0304708127,-0.0803793818,-0.134305298
101681.965061,1.41730937,0.278427431,0.19006606,-0.0463112928,-0.035321895,-0.128750473
101681.975088,1.43518332,0.149279803,0.224772632,-0.0958146676,-0.00555494428,-0.122089386
101681.985116,1.55644443,0.0404955304,-0.0289256502,-0.12546657,-0.00549662113,-0.12004967
101681.995143,1.70290691,0.0333778804,-0.556175501,-0.0892981738,-0.0113675594,-0.107560247
101682.005171,1.88812261,-0.0391691772,-1.12211135,0.010676357,-0.0319087878,-0.0669672787
101682.015198,2.0841695,-0.134098309,-1.51069624,0.0879184157,-0.100097425,-0.0172670987
101682.025226,2.09099496,-0.166927761,-1.44583009,0.115523942,-0.176726699,0.0308421087
101682.035253,1.95881089,-0.156182568,-0.83372929,0.128434137,-0.219695732,0.0771185309
101682.045281,1.62669139,-0.12780425,-0.00122165075,0.135552511,-0.221205741,0.11467202
101682.055308,1.28672206,-0.0556928073,0.761169081,0.144000053,-0.213340357,0.126918301
101682.065336,0.928624081,0.0775166627,1.20239543,0.148786813,-0.200651735,0.105660155
101682.075363,0.577146539,0.21201778,1.6190099,0.157792032,-0.17499724,0.0588383228
101682.085391,0.354068399,0.324329277,2.09316763,0.16066052,-0.113436669,0.00646086875
101682.095418,0.264634614,0.380751933,2.5896652,0.130333781,-0.0387786776,-0.0400539041
101682.105446,0.413703441,0.465944318,2.72790053,0.0813561231,0.0277276449,-0.0788492411
101682.115473,0.6610662,0.549272662,2.40488263,0.0583304279,0.104406707,-0.0951389968
101682.125501,0.924944808,0.546990397,1.8550223,0.0546872243,0.180332899,-0.0936183333
101682.135528,1.07774453,0.511904251,1.229111,0.0201191287,0.235675246,-0.0901570171
101682.145556,1.16238966,0.447890921,0.670423227,-0.0539164841,0.279697031,-0.0646234304
101682.155583,1.42165894,0.335965427,0.0770820706,-0.115535103,0.322332114,0.0135845579
101682.165611,1.95137562,0.191068734,-0.783767282,-0.15229845,0.32566905,0.139795229
101682.175638,2.3906086,0.149598733,-1.88176126,-0.180517316,0.296608895,0.280900925
101682.185666,2.61799873,0.224301507,-2.75248552,-0.199091256,0.212550491,0.410811275
101682.195693,2.57085967,0.423023825,-3.36699105,-0.221939847,0.0855845511,0.521128476
101682.205721,2.47762521,0.70231496,-3.7489118,-0.184143201,-0.047668308,0.589285135
101682.215748,2.20713069,1.14982594,-3.83834774,-0.114917256,-0.176132277,0.603550375
101682.225776,1.77906851,1.58265965,-3.34793446,-0.071367912,-0.299073398,0.555858493
101682.235803,1.31628981,2.00298876,-2.55487854,-0.0396459363,-0.387948126,0.450192481
101682.245831,0.942473085,2.36950736,-1.58491708,0.00987820793,-0.410754651,0.314826161
101682.255858,0.693308574,2.56930922,-0.637208939,0.0471334346,-0.383587748,0.162633434
101682.265886,0.594439034,2.67381121,0.232485983,0.0619533956,-0.331827879,0.00507282885
101682.275913,0.645087564,2.6151863,0.906949425,0.0548677891,-0.282861918,-0.142589867
101682.285941,0.83125194,2.37211609,1.13208212,0.0612303466,-0.233421132,-0.274301827
101682.295968,1.00468938,2.09965202,1.25850719,0.0755584165,-0.173876315,-0.387506962
101682.305996,1.17730015,1.86756848,1.35655723,0.104207903,-0.122224569,-0.472393334
101682.316023,1.44051781,1.53984971,1.26825176,0.102686711,-0.0839783773,-0.527027547
101682.326051,1.63649105,1.22368364,1.25086983,0.0808133706,-0.0551962666,-0.549165606
101682.336078,1.80841136,0.797291438,1.14011404,0.0587584004,-0.0248090662,-0.541261852
101682.346106,1.88274983,0.395781233,0.948291489,0.0517484285,0.00442924676,-0.509005904
101682.356133,1.89169886,0.0688406043,0.634294513,0.0494871363,0.0284288563,-0.461300492
101682.366161,1.97448996,-0.238381836,0.235876794,0.0465701781,0.0284813195,-0.38949421
101682.376188,2.17779734,-0.50209349,-0.255393396,0.0431104638,0.0131063582,-0.303123623
101682.386216,2.39536851,-0.642652299,-0.631759442,0.0383569859,-0.0103259971,-0.202666253
101682.396243,2.58456992,-0.677519249,-0.831247995,0.0315909609,-0.0248769764,-0.104324773
101682.406271,2.67533652,-0.673355773,-0.823821644,0.0220653657,-0.032188952,9.24514607e-05
101682.416298,2.72890766,-0.604942819,-0.805322695,-0.0116486559,-0.0437995344,0.0863969773
101682.426326,2.71051159,-0.442250139,-0.777077429,-0.0399767011,-0.0643029436,0.159405679
101682.436353,2.61031197,-0.161329064,-0.815938197,-0.0366184525,-0.0803783163,0.222458944
101682.446381,2.48966519,0.133640701,-0.760852855,-0.00267779781,-0.100851104,0.273872316
101682.456408,2.3058728,0.380990637,-0.62509823,0.025076868,-0.143975407,0.314552367
101682.466436,2.10336417,0.636856107,-0.375827117,0.0395876355,-0.201176912,0.3312006
101682.476463,1.88889023,0.883981002,-0.0304699571,0.0530613661,-0.25403294,0.314682066
101682.486491,1.59282332,1.18395778,0.357265624,0.0930340812,-0.272255361,0.265233546
101682.496518,1.27294766,1.45449285,0.94695118,0.149085626,-0.249719158,0.178192154
101682.506546,1.04637324,1.69327574,1.50718677,0.203576297,-0.206433728,0.0674150288
101682.516574,0.908325389,1.80607327,1.97900816,0.224364668,-0.145204455,-0.0395180732
101682.526601,0.89071053,1.70211781,2.41364052,0.182847053,-0.0883022845,-0.12769267
101682.536628,0.989073508,1.56940445,2.6727129,0.113852814,-0.0258088168,-0.192718804
101682.546656,1.21157768,1.44674823,2.66360254,0.0723791346,0.0508217774,-0.222003728
101682.556683,1.49392894,1.26829253,2.29397077,0.0650671646,0.119193912,-0.217504576
101682.566711,1.76402934,1.08887602,1.60311675,0.0618268922,0.154752702,-0.184557289
101682.576739,2.0368732,0.922836291,0.81054306,0.0488535725,0.149744362,-0.12710838
101682.586766,2.37136454,0.820456259,0.0701625005,0.0274569355,0.115429267,-0.0534306951
101682.596794,2.6489135,0.844203922,-0.513244121,0.0200578757,0.0780115873,0.035003297
101682.606821,2.84517345,0.943678588,-0.965189432,0.028991716,0.0433822386,0.129142046
101682.616849,2.94819543,1.09161538,-1.21741764,0.0394408926,0.0162888356,0.221714854
101682.626876,2.94024944,1.23971832,-1.23740712,0.0163001548,-0.0224569626,0.301453352
101682.636904,2.75027749,1.41038454,-1.06956341,-0.0388259478,-0.0625569746,0.348843515
101682.646931,2.43715613,1.65839381,-0.790455966,-0.0869069248,-0.0903233588,0.351939708
101682.656959,1.98778154,1.9880022,-0.495695021,-0.0945555195,-0.0774765387,0.31310147
101682.666986,1.64388452,2.23252203,-0.191520351,-0.0804849789,-0.0397912115,0.245022848
101682.677014,1.49228146,2.44019418,-0.0656248571,-0.0816932544,-0.0194670316,0.167828456
101682.687041,1.53021869,2.56610955,-0.157474289,-0.100793175,-0.0210561398,0.0760993361
101682.697069,1.66012356,2.66020822,-0.27300504,-0.095098272,-0.0174025483,-6.04139641e-05
101682.707096,1.92668629,2.64570389,-0.486157377,-0.0526594706,-0.0141790584,-0.057738889
101682.717124,2.20754263,2.56449218,-0.676107117,-0.0298154075,-0.0280986018,-0.0948018432
101682.727151,2.3697419,2.37750275,-0.709213853,-0.0464170203,-0.0557848252,-0.125350684
101682.737179,2.37683318,2.19404091,-0.520049125,-0.0727570131,-0.0691629499,-0.149821669
101682.747206,2.26745379,2.03652073,-0.254811796,-0.0816037729,-0.0586493202,-0.178307384
101682.757234,2.12184252,1.84589412,-0.0850303993,-0.0814716816,-0.0433217622,-0.204051897
101682.767261,1.96788208,1.6546102,0.0383428824,-0.0844421685,-0.0343184136,-0.240551844
101682.777289,1.77613245,1.48148768,0.168890001,-0.0857151598,-0.0262471735,-0.281376779
101682.787316,1.65208302,1.31668933,0.335595644,-0.0781685561,-0.0120671717,-0.316901743
101682.797344,1.57610555,1.11437754,0.505313328,-0.0719154552,0.00128538511,-0.34691453
101682.807371,1.51856142,0.931667686,0.593958996,-0.0650178716,0.0106298849,-0.37294504
101682.817399,1.51317753,0.724187039,0.580327945,-0.0628548488,0.0161820427,-0.389115781
101682.827426,1.52691044,0.434200761,0.593248217,-0.0566816442,0.0312107932,-0.384596109
101682.837454,1.51843823,0.146533135,0.604375176,-0.0435125791,0.0460070521,-0.369180948
101682.847481,1.54296579,-0.0707149468,0.47937517,-0.0470814817,0.0474217199,-0.340558618
101682.857509,1.59280944,-0.290383899,0.388485523,-0.0651907101,0.0391432866,-0.289390773
101682.867536,1.68296405,-0.519732972,0.359615402,-0.0810423791,0.0309356898,-0.223006934
101682.877564,1.75267164,-0.658365563,0.317792861,-0.0786812156,0.0380212963,-0.149708226
101682.887591,1.77405696,-0.675475249,0.331703313,-0.0760502815,0.0480571501,-0.0755746067
101682.897619,1.76859402,-0.676324633,0.444322561,-0.100869879,0.0577302836,0.000127871521
101682.907646,1.72940709,-0.65618157,0.556594018,-0.124852441,0.0714886263,0.0630678684
101682.917674,1.66069844,-0.567457796,0.619431875,-0.136188984,0.0995977595,0.116817914
101682.927701,1.62262824,-0.481130343,0.61375909,-0.152099505,0.120693192,0.160060987
101682.937729,1.57399762,-0.320090251,0.4195061,-0.167097628,0.130796686,0.188364267
101682.947756,1.56920396,-0.120243167,0.102852472,-0.167754903,0.135798901,0.206132889
101682.957784,1.64671916,0.0780660402,-0.249341256,-0.15869908,0.129880026,0.219271585
101682.967811,1.77899325,0.256356834,-0.620963322,-0.139166132,0.107419729,0.221933678
101682.977839,1.856884,0.464349815,-0.962218892,-0.0870043933,0.0852063075,0.219664931
101682.987866,1.9483044,0.665237787,-1.22813777,-0.0221998338,0.0551293641,0.209450111
101682.997894,2.00555963,0.811739358,-1.3337901,0.0280380379,0.00994670391,0.200470999
101683.007921,1.98513191,0.980076255,-1.25223118,0.0699793622,-0.0392999388,0.184498698
101683.017949,1.88097887,1.10345787,-0.922487186,0.0933842883,-0.0628486723,0.164724991
101683.027976,1.713657,1.19217258,-0.3149515,0.0928095803,-0.0561265871,0.136684299
101683.038004,1.47056677,1.25566934,0.276438522,0.0789339766,-0.0269426033,0.102539375
101683.048031,1.26024571,1.30495652,0.739158325,0.0639869869,0.0130556785,0.0587910935
101683.058059,1.08753549,1.33047119,0.95748368,0.0574409328,0.0510725677,0.0116390316
101683.068086,1.02748018,1.32290485,0.950343745,0.0605616271,0.0791183189,-0.0282178391
101683.078114,1.10424799,1.25914257,0.830382318,0.0669364408,0.0945513397,-0.0478346795
101683.088141,1.27207438,1.14793808,0.608851444,0.0758519024,0.0860057846,-0.0502107516
101683.098169,1.48045235,1.09806346,0.278835062,0.0785781816,0.0593502074,-0.0404910147
101683.108196,1.68055085,1.07280283,0.0612806904,0.0815124512,0.0296735372,-0.0233048368
101683.118224,1.73803258,1.05354028,0.0273632232,0.0847383365,0.0196858849,-0.000241329893
101683.128251,1.65546244,1.03416937,0.12680501,0.0792152062,0.013364872,0.0168609582
101683.138279,1.47400828,1.04846101,0.289341258,0.0671319142,0.0196675081,0.0223577209
101683.148306,1.32992554,1.05838546,0.489268203,0.0468309,0.0339740105,0.0247005038
101683.158334,1.25545862,1.0931895,0.614420769,0.0222477932,0.0443195924,0.0196918976
101683.168361,1.21616443,1.14409164,0.583203208,0.0146862799,0.0567584187,0.0138475914
101683.178389,1.21558787,1.15299317,0.507075077,0.00549730845,0.0780416057,0.00934445206
101683.188417,1.2021774,1.13473125,0.452540939,-0.0270356014,0.0768983066,0.00910130516
101683.198444,1.28367671,1.06829836,0.17710078,-0.054601714,0.0571879856,-0.00340037234
101683.208472,1.30972592,1.0671329,-0.0941746597,-0.0450526848,0.05803141,-0.0139470231
101683.218499,1.40806779,1.09493685,-0.251123463,-0.0355289541,0.0685088187,-0.0361133143
101683.228527,1.48809745,1.10488644,-0.354033803,-0.0361172482,0.0864641145,-0.0479348153
101683.238554,1.64173319,1.03709593,-0.456008907,-0.0496567562,0.0928506404,-0.0502328575
101683.248582,1.83062041,0.994752504,-0.709358814,-0.0486732535,0.0822438076,-0.0331918225
101683.258609,2.05326334,0.878429652,-1.08969259,-0.0440553315,0.0465353429,0.00151475798
101683.268637,2.09748081,0.813290021,-1.38899703,-0.0434910059,-0.0137069598,0.035021849
101683.278664,2.06496722,0.809227082,-1.43223937,-0.0492096134,-0.0795549452,0.0462537333
101683.288692,1.92018188,0.935296837,-1.21812199,-0.0307270084,-0.102023773,0.0501744375
101683.298719,1.8066803,0.975102924,-0.737026573,-0.024275234,-0.100732408,0.0514655411
101683.308747,1.68372553,1.00056097,-0.217738496,-0.0396669731,-0.104304239,0.0426257104
101683.318774,1.52476203,1.02988614,0.179085232,-0.062297985,-0.106693894,0.0141019225
101683.328802,1.35841981,1.05555549,0.42140638,-0.0595802292,-0.0917804539,-0.0186032932
101683.338829,1.25645611,0.993800683,0.578192687,-0.0373239256,-0.0682841837,-0.0614394397
101683.348857,1.20793699,0.962689724,0.701883948,-0.0228333995,-0.0415673517,-0.103924312
101683.358884,1.25378426,0.87123974,0.798680189,-0.0347353332,-0.0229015239,-0.137618095
101683.368912,1.31298872,0.722683575,0.85504505,-0.0579120256,-0.00966348313,-0.168533668
101683.378939,1.36933284,0.660823551,0.821134013,-0.0633254275,0.0112119708,-0.190731376
101683.388967,1.49267368,0.589697831,0.69837331,-0.056114126,0.0313800909,-0.20174861
101683.398994,1.60661394,0.451848207,0.518488452,-0.0307310037,0.0539517142,-0.194641173
101683.409022,1.76685609,0.295942629,0.286128726,-0.000948872592,0.0733054355,-0.17025274
101683.419049,1.8817823,0.149454283,0.0172708683,0.0196613297,0.0692640916,-0.141074881
101683.429077,1.90575237,-0.0069566142,-0.215083597,0.035217654,0.0522062778,-0.102952257
101683.439104,1.88169374,-0.133890438,-0.357819166,0.044465214,0.0231421348,-0.0623667538
101683.449132,1.80809177,-0.189050307,-0.426550757,0.048832532,-0.0114834867,-0.0261938367
101683.459159,1.73672019,-0.149923216,-0.342155733,0.0577687696,-0.0335315317,0.0107010659
101683.469187,1.69459472,-0.0627880993,-0.126955232,0.0568467826,-0.044752229,0.0469088703
101683.479214,1.63714425,0.0816250478,0.0677145228,0.0458884053,-0.0588259697,0.0658455417
101683.489242,1.53321509,0.253986817,0.206568867,0.0403389111,-0.0720110089,0.0820346326
101683.499269,1.53589834,0.442324081,0.31943186,0.0453363322,-0.0794276521,0.0884864107
101683.509297,1.55193893,0.676737013,0.4417682,0.0567189492,-0.0724858567,0.0797997117
101683.519324,1.54155856,0.902077727,0.614018618,0.070892565,-0.0485240631,0.0603602305
101683.529352,1.52042298,1.05313228,0.824652834,0.0746055394,-0.0135037601,0.0322420448
101683.539379,1.53945515,1.15791755,0.944609001,0.0700882897,0.0224369299,0.00795241725
101683.549407,1.57853848,1.18108288,0.948551601,0.056621477,0.0542925969,-0.00696527958
101683.559434,1.64681224,1.16300961,0.916884543,0.0198040754,0.0673934817,-0.0130668469
101683.569462,1.68015089,1.16865244,0.837046452,-0.0279053897,0.0693162903,-0.0111395177
101683.579489,1.7319803,1.19682764,0.66042498,-0.0469661653,0.0825282261,0.0115767131
101683.589517,1.83829548,1.16345962,0.47101826,-0.0552086495,0.095764406,0.0441905856
101683.599545,1.95965274,1.14465906,0.233966577,-0.0756225735,0.0887874588,0.0761972517
101683.609573,2.11185055,1.18764458,-0.0360357745,-0.0978951231,0.07459867,0.102257349
101683.619600,2.19800265,1.25352239,-0.205056124,-0.110823974,0.0706068575,0.129693225
101683.629628,2.24167433,1.26137047,-0.275308056,-0.109675348,0.0696118996,0.143718243
101683.639655,2.16426127,1.29563281,-0.322594708,-0.125405848,0.0662182346,0.145720944
101683.649683,2.09469337,1.33327923,-0.208364518,-0.14770475,0.0660246238,0.129790962
101683.659710,2.02169171,1.39453274,-0.0900076032,-0.147095695,0.0774032399,0.106960222
101683.669738,1.96902044,1.44339994,-0.105543026,-0.116226196,0.0888061002,0.0645682886
101683.679766,1.92600386,1.54698716,-0.287795782,-0.062648721,0.0979135782,0.0110653862
101683.689793,1.89716472,1.4996628,-0.494594366,0.0199348368,0.10027793,-0.0368930846
101683.699821,1.89524106,1.36841689,-0.695759328,0.0736550614,0.0768061653,-0.0840592608
101683.709848,1.80590683,1.24582862,-0.681056264,0.0940471515,0.0420886613,-0.124945447
101683.719876,1.69497319,1.09220348,-0.45662207,0.11689654,0.0259200782,-0.155740112
101683.729903,1.59108203,0.948326414,-0.199655726,0.144113779,0.0242161881,-0.170410663
101683.739931,1.56154964,0.842074363,0.0566477699,0.157432511,0.0167990178,-0.16935578
101683.749958,1.61609708,0.725279437,0.244821148,0.155888408,0.00660683354,-0.151533112
101683.759986,1.71099552,0.638454409,0.411108858,0.142761424,0.00393728074,-0.127744421
101683.770013,1.76575675,0.603122034,0.606667086,0.128497273,0.0208470225,-0.09914314
101683.780041,1.8235062,0.584969926,0.773494894,0.110584848,0.0564252548,-0.0620599538
101683.790068,1.86842714,0.570254514,0.902372618,0.0777818933,0.0896404684,-0.0265445728
101683.800096,1.83993316,0.62351308,0.858985312,0.0362621434,0.108544648,0.012245167
101683.810123,1.79232882,0.6855687,0.700291126,-0.00487597007,0.125543341,0.0484090298
101683.820151,1.68150742,0.776080307,0.513220156,-0.0213319082,0.136506513,0.0809328854
101683.830178,1.6323991,0.907780907,0.219980137,-0.0301869195,0.138447419,0.111443125
101683.840206,1.65036278,1.02557938,-0.0940232686,-0.0509404019,0.119079582,0.14112778
101683.850233,1.71299737,1.11214094,-0.379618326,-0.0739106908,0.079010196,0.162637338
101683.860261,1.73741095,1.24174281,-0.655506812,-0.0767546818,0.0334038287,0.173805296
101683.870288,1.69396153,1.36372143,-0.847425807,-0.0549942665,-0.00769114541,0.164028302
101683.880316,1.58777568,1.56002872,-0.869552299,-0.0224102233,-0.0517499484,0.122277662
101683.890343,1.46570208,1.78233817,-0.773522367,0.0178740826,-0.0729692206,0.0679369271
101683.900371,1.3781635,1.86787126,-0.395985523,0.0360243246,-0.0731439218,0.00876334962
101683.910398,1.30611504,1.85392895,0.0642716889,0.0356890336,-0.0416334346,-0.052259028
101683.920426,1.26646239,1.71882841,0.389258845,0.0241199937,-0.0121783372,-0.103074268
101683.930453,1.31207453,1.5272461,0.432031235,-0.0037867371,-0.0143789072,-0.146791667
101683.940481,1.37007708,1.36152216,0.260121593,-0.0236126408,-0.0329155736,-0.184881777
101683.950508,1.4735547,1.23436629,0.103528179,0.00430501159,-0.0448555909,-0.206384152
101683.960536,1.63501206,1.10811322,0.000140285254,0.0485419817,-0.0554906577,-0.217594177
101683.970563,1.77794652,0.995281715,-0.0190051447,0.0740340278,-0.0682115108,-0.215064734
101683.980591,1.86885004,0.871159661,0.106143914,0.0755253956,-0.0744012296,-0.207769781
101683.990618,1.92964193,0.717233055,0.303022577,0.0618292913,-0.0603064522,-0.179262251
101684.000646,1.98420895,0.569635286,0.474103367,0.0374621637,-0.0410288945,-0.137143016
101684.010673,2.03346018,0.467869806,0.520309822,0.00929897092,-0.0331091881,-0.0980131999
101684.020701,2.01096105,0.405581692,0.508830981,-0.0164114535,-0.0182841662,-0.062571317
101684.030728,1.95226117,0.404958592,0.536754761,-0.043028947,0.00260646781,-0.0383005999
101684.040756,1.91240745,0.458620697,0.562062221,-0.0574909784,0.0249562487,-0.0169380531
101684.050783,1.97290079,0.532009977,0.470856348,-0.0752175078,0.0428380407,0.0044979956
101684.060811,2.05211432,0.619790918,0.327787016,-0.0833060592,0.0553751402,0.0290986802
101684.070838,2.11885824,0.679925799,0.0885907221,-0.0750004575,0.0578020774,0.0530415624
101684.080866,2.19768058,0.721881976,-0.237684721,-0.0570544861,0.0478700846,0.0768137351
101684.090893,2.22119706,0.737139167,-0.503119618,-0.0469398014,0.0273024943,0.0957850292
101684.100921,2.19945548,0.775907362,-0.646699237,-0.0419754013,0.00685660634,0.106915183
101684.110948,2.14270542,0.817533504,-0.638650955,-0.0331547447,-0.00546051329,0.103645615
101684.120976,2.04466005,0.881973535,-0.570939939,-0.0295293853,-0.0134499967,0.0827177018
101684.131003,1.90627318,1.02521815,-0.411084308,-0.040679507,-0.024691999,0.0333613381
101684.141031,1.77027569,1.24236357,-0.297561389,-0.0277466662,-0.0192831177,-0.0266543292
101684.151059,1.78753589,1.34440473,-0.270855169,0.0286705382,-0.00207137456,-0.0721991807
101684.161086,1.92854025,1.36823291,-0.313358678,0.0850533918,-0.000857239473,-0.102735519
101684.171114,2.07351337,1.28146721,-0.309581497,0.112321228,-0.0169022512,-0.120450325
101684.181141,2.15984535,1.12599783,-0.122392454,0.111255698,-0.0292603839,-0.121185891
101684.191169,2.12516815,0.962898691,0.212891056,0.0964565128,-0.0266068112,-0.107200839
101684.201196,2.03514302,0.785258616,0.527066895,0.0774324909,-0.0123253437,-0.0822491497
101684.211224,1.92703145,0.662341481,0.728408383,0.0434031449,-0.000711564557,-0.062424846
101684.221251,1.74764008,0.632783378,0.777877055,0.003848013,-0.00258962577,-0.0551839769
101684.231279,1.61139109,0.661603814,0.778271022,0.00477719028,0.0122170178,-0.0534332171
101684.241306,1.58760047,0.770320136,0.720681003,0.0225231629,0.0314074904,-0.0621694475
101684.251334,1.63485249,0.850295225,0.625741204,0.0266020596,0.0444428623,-0.0660150498
101684.261361,1.74734928,0.863710441,0.558596006,0.0188256297,0.0559170917,-0.05235916
101684.271389,1.921284,0.809292037,0.449486812,-0.000638880709,0.063271679,-0.0277142674
101684.281416,2.02356364,0.813990132,0.312943667,-0.0299951714,0.0635675564,-0.00531175826
101684.291444,2.07524516,0.858691224,0.224724117,-0.0583075024,0.0703391731,0.0187560283
101684.301471,2.07975022,0.850945213,0.234594353,-0.0815076306,0.0776016116,0.0467461161
101684.311499,2.07224145,0.892723039,0.0950163713,-0.0965579525,0.0691583306,0.0699774027
101684.321526,2.11216079,0.973050375,-0.232139946,-0.100186773,0.0418915525,0.0835813656
101684.331554,2.09207194,1.09354839,-0.497179122,-0.090495795,0.0110233892,0.0786718279
101684.341581,2.04610163,1.22978583,-0.687941932,-0.0471970625,-0.0194466356,0.0668180957
101684.351609,2.03811078,1.31074533,-0.795785636,-0.0101522245,-0.045549877,0.0539805926
101684.361636,1.98129394,1.34833359,-0.668740388,-0.000696138712,-0.0813616738,0.0269851945
101684.371664,1.85365817,1.40745038,-0.401801516,-0.00162531564,-0.0901610181,-0.0129417144
101684.381691,1.76128384,1.41147277,-0.0302946005,0.0257706214,-0.0689654574,-0.0490786806
101684.391719,1.76148302,1.3642247,0.273833308,0.0513244495,-0.0391665474,-0.0804690942
101684.401746,1.78574696,1.23593822,0.4683657,0.0444385819,-0.0285264179,-0.110280253
101684.411774,1.72514358,1.11015108,0.583717003,0.0400856435,-0.0129613066,-0.138122261
101684.421801,1.70246793,0.937558498,0.608204963,0.0350197814,0.00179420365,-0.155588597
101684.431829,1.62500753,0.792020585,0.601895634,0.0448321961,0.0203404576,-0.163848668
101684.441856,1.58308226,0.666611998,0.519773231,0.0534621701,0.0371729657,-0.155550808
101684.451884,1.6535341,0.519927399,0.451996164,0.0333438516,0.0485382713,-0.138075918
101684.461911,1.72248401,0.386621629,0.466090156,0.00873384811,0.054993242,-0.11038731
101684.471939,1.77942433,0.380826679,0.404663335,0.0101666292,0.0748479068,-0.0749478266
101684.481966,1.86232532,0.298807371,0.257758371,0.0236725826,0.0887812972,-0.0261792243
101684.491994,1.91029148,0.255864447,0.000942249286,0.0421546549,0.0773345008,0.0211446173
101684.502021,1.90787594,0.259056229,-0.271850609,0.0425480045,0.049434159,0.0637818277
101684.512049,1.84912521,0.283156432,-0.313778365,0.0288649481,0.0232094806,0.101217084
101684.522076,1.72493082,0.385409257,-0.19882629,0.0235769767,0.0195178073,0.134292215
101684.532104,1.57939042,0.550071485,-0.00841594617,0.0154924188,0.027919814,0.15474689
101684.542131,1.49260704,0.734438749,0.120302204,-0.000561915396,0.0266476218,0.165640265
101684.552159,1.43990684,0.903877616,0.139179338,-0.00469727162,0.022641696,0.162517995
101684.562186,1.40954034,1.05647517,0.141258482,0.00899510458,0.023631325,0.149006695
101684.572214,1.39449183,1.22105271,0.163429398,0.0368901193,0.0292359479,0.124878734
101684.582242,1.39342332,1.33715081,0.149295074,0.0675668046,0.0353425741,0.095982641
101684.592269,1.40375021,1.3697195,0.215731247,0.069310382,0.0413802266,0.0637314916
101684.602296,1.3858865,1.34952543,0.350009954,0.0515950285,0.0489321537,0.0332675949
101684.612323,1.39333944,1.32997741,0.370232658,0.0378243551,0.0645926073,0.0155125633
101684.622351,1.38956942,1.31749787,0.295083601,0.0367052965,0.0788626224,0.016272895
101684.632378,1.40261303,1.23923521,0.114534726,0.0179340038,0.0655076653,0.01872034
101684.642406,1.33741619,1.21363695,-0.145871529,0.000308405666,0.0410465337,0.0327400193
101684.652433,1.39191204,1.18358566,-0.333660877,-0.00531805493,0.0120686796,0.0509973206
101684.662461,1.43653605,1.21599455,-0.501855881,0.00612661336,-0.0102446154,0.0790899396
101684.672488,1.51961487,1.21443716,-0.6527958,0.017710831,-0.0410944074,0.10367012
101684.682516,1.58648053,1.29525988,-0.716898562,0.018074885,-0.0800695047,0.10491541
101684.692543,1.53971366,1.46235233,-0.638539896,0.0281411018,-0.102864563,0.0873601213
101684.702571,1.45556793,1.59367584,-0.427951272,0.0394145288,-0.107310712,0.0663014427
101684.712598,1.36290923,1.65735074,-0.117471364,0.0376046449,-0.103592411,0.0356977284
101684.722626,1.21058159,1.71727534,0.129279875,0.0291629564,-0.0961771011,-0.00497566722
101684.732653,1.08528537,1.75907435,0.342054611,0.0259610377,-0.0823028311,-0.0527085699
101684.742681,1.02697807,1.72959194,0.453874233,0.0308886841,-0.068110317,-0.101708867
101684.752708,1.04597766,1.66483262,0.460490436,0.032391239,-0.0574584678,-0.143852055
101684.762736,1.07572289,1.52258804,0.430157257,0.0249836575,-0.0561663024,-0.177172989
101684.772763,1.13804388,1.37469728,0.374565134,0.0209447071,-0.0494737774,-0.205783874
101684.782791,1.20006202,1.24154919,0.281679345,0.02393304,-0.0436838008,-0.224314153
101684.792818,1.27901164,1.07876715,0.163271577,0.0291219428,-0.0372208394,-0.220800906
101684.802846,1.43442695,0.865732814,0.0318546894,0.0257205535,-0.0497193225,-0.204099149
101684.812873,1.62210465,0.71614789,-0.183041861,0.0170564931,-0.073970601,-0.172403008
101684.822901,1.82198352,0.571510067,-0.308861367,0.00220697327,-0.106272615,-0.129270196
101684.832928,1.95434426,0.518577884,-0.335861017,-0.0126079256,-0.136012927,-0.084913373
101684.842956,2.00013015,0.553702023,-0.298161693,-0.0149970474,-0.143003196,-0.0566047728
101684.852983,1.9177662,0.619034692,-0.136933605,-0.0117306802,-0.12600024,-0.0363144167
101684.863011,1.90006468,0.690119057,0.0928565629,-0.0141688036,-0.104839832,-0.0232777074
101684.873038,1.86979302,0.722311746,0.195423203,-0.0307770763,-0.090966098,-0.0228872895
101684.883066,1.81665253,0.735862425,0.276004807,-0.0524493493,-0.0815257207,-0.0313713215
101684.893093,1.74795777,0.785589602,0.275866859,-0.054378543,-0.0666993707,-0.0474632047
101684.903121,1.71117643,0.780679179,0.217019534,-0.0368967541,-0.0485113114,-0.0633734614
101684.913148,1.74723135,0.763551008,0.0822007288,-0.0243853107,-0.0449374616,-0.0777897164
101684.923176,1.79214163,0.737170512,-0.0502969396,-0.0191079918,-0.0592484921,-0.0975045636
101684.933203,1.87213418,0.718711603,-0.150797295,-0.00603346853,-0.0659498051,-0.101153098
101684.943231,1.91832851,0.613783202,-0.0708189186,0.00451291539,-0.067937322,-0.101519011
101684.953259,1.91843489,0.615483503,0.00127016607,0.0145303961,-0.0704201907,-0.107272238
101684.963286,1.88936735,0.643985667,0.0625011721,0.0256088804,-0.0717589632,-0.112109073
101684.973314,1.85596543,0.617111688,0.199769124,0.0273596421,-0.0582833625,-0.110914379
101684.983341,1.88587132,0.544456933,0.384822324,0.022323871,-0.0372087024,-0.108852826
101684.993369,1.90853996,0.506551492,0.495472902,0.0167200472,-0.0117494166,-0.0919942185
101685.003396,2.01188504,0.449316058,0.473911059,0.0166302994,0.00842163153,-0.0637260973
101685.013424,2.10907407,0.316196459,0.405475821,0.00351263233,0.0198172983,-0.0190835278
101685.023451,2.16905786,0.2418273,0.303561507,-0.0163652021,0.00957078487,0.0278352443
101685.033479,2.16512227,0.284210033,0.144643449,-0.0323902406,-0.00561482506,0.0646795481
101685.043506,2.07768203,0.381697982,0.0893511851,-0.0217269436,-0.0081861075,0.0927684382
101685.053534,1.92505241,0.566218025,0.0652162763,0.00701309135,0.00150140771,0.0988670811
101685.063561,1.76195882,0.772184761,0.104928109,0.0291615371,0.0102610774,0.0899907649
101685.073589,1.70551592,0.916514979,0.171724348,0.0289673917,0.0121998582,0.080425486
101685.083616,1.64647059,0.981335461,0.284673851,0.0158417374,0.0186023638,0.0737942159
101685.093644,1.60683168,1.04653742,0.389022114,0.00847596489,0.02831438,0.0641865954
101685.103671,1.55871384,1.14964635,0.392007267,0.0178164709,0.0429604352,0.0483186841
101685.113699,1.52273549,1.21780949,0.347310047,0.0361161157,0.054123342,0.0316670015
101685.123726,1.48431604,1.24960156,0.333499549,0.0491466969,0.0599663183,0.0168547649
101685.133754,1.49308927,1.26114426,0.297757789,0.0477679782,0.0514452681,0.00823890604
101685.143781,1.48858495,1.23611562,0.301249722,0.0314087123,0.0393457264,0.0144983996
101685.153809,1.48709661,1.18836128,0.331213484,0.00614969432,0.0335107408,0.0256280173
101685.163836,1.43251059,1.16903713,0.367603478,-0.0155356266,0.0326888897,0.0352534801
101685.173864,1.33328683,1.20476669,0.366468921,-0.0296980515,0.0414687991,0.0407060385
101685.183891,1.27670438,1.18800633,0.331177243,-0.0507418178,0.0486750454,0.0483684838
101685.193919,1.28833476,1.21290301,0.208405435,-0.0838297307,0.0408344343,0.0458675101
101685.203946,1.31075527,1.24319403,0.0265519068,-0.0971058607,0.035158705,0.0367642902
101685.213974,1.36692504,1.29729636,-0.229764449,-0.0693767592,0.0316129699,0.0205765329
101685.224001,1.46357705,1.38152801,-0.547467878,-0.033794526,0.0263476353,-0.00521698128
101685.234029,1.59759302,1.42519618,-0.718414227,-0.00510961795,0.012460582,-0.0117097683
101685.244056,1.80983613,1.36357924,-0.754375768,-0.0134138875,-0.0182299539,-0.0123001914
101685.254084,1.88975839,1.3667285,-0.725159025,-0.0332190171,-0.055454284,-0.0123827495
101685.264111,1.8055114,1.34787562,-0.58983987,-0.0431901589,-0.0678933784,-0.013058126
101685.274139,1.6504224,1.29029495,-0.349009253,-0.058551006,-0.0689075142,-0.0237374026
101685.284166,1.49212992,1.28725836,-0.212924958,-0.0689240173,-0.0740479454,-0.0458261892
101685.294194,1.43823306,1.27846365,-0.22490941,-0.0655228943,-0.0777156502,-0.0779060945
101685.304222,1.45130136,1.23678534,-0.250188813,-0.0503045246,-0.0752397105,-0.109399311
101685.314249,1.52534816,1.10890656,-0.208789465,-0.0327223353,-0.0679935142,-0.138041615
101685.324277,1.6748503,0.998957773,-0.209220843,-0.0132663473,-0.0680435821,-0.1649739
101685.334304,1.8291461,0.924761414,-0.271069104,0.00547005562,-0.0671271905,-0.181412786
101685.344332,1.98926535,0.786463681,-0.270846401,0.0215249229,-0.0671615452,-0.182996571
101685.354359,2.07410797,0.650108972,-0.209886613,0.0310217552,-0.0610666312,-0.174281105
101685.364387,2.08208421,0.512848838,-0.0631073213,0.0293101408,-0.0543759726,-0.153563574
101685.374414,2.08001048,0.426728087,0.0646533817,0.0259545576,-0.043706283,-0.133022353
101685.384442,2.05031063,0.36632301,0.157598792,0.0305402558,-0.0251158215,-0.0998172536
101685.394469,2.03045588,0.270035231,0.23342414,0.0194250196,-0.0138599724,-0.0617367104
101685.404497,2.00478046,0.212756542,0.32920682,-0.00768995471,-0.0167484358,-0.0243203696
101685.414524,1.93359549,0.206751165,0.410319754,-0.0309681129,-0.0134959184,0.0130549669
101685.424552,1.84471572,0.233851791,0.490211621,-0.0396473557,-7.27304723e-06,0.0423436165
101685.434579,1.73599173,0.280961552,0.535381134,-0.0437739231,0.0089241704,0.0612499267
101685.444607,1.70482809,0.402552042,0.447811572,-0.0455212221,0.01417193,0.0718754083
101685.454634,1.74308402,0.530571688,0.288987622,-0.0338704251,0.00543542905,0.0795221403
101685.464662,1.78558665,0.657966334,0.143960727,-0.017877344,-0.00285499124,0.0857062712
101685.474689,1.81530331,0.733337217,0.121835405,-0.00836213678,-0.0132306665,0.0841690898
101685.484717,1.81066498,0.886381415,0.140394559,-0.00205976609,-0.0212659575,0.0763053074
101685.494744,1.77018246,1.01798272,0.243442261,0.00262500066,-0.0142208301,0.0703853667
101685.504772,1.67774251,1.05363454,0.425021064,-0.00870062411,-0.00265951501,0.0550394356
101685.514799,1.56411423,1.11323363,0.535333788,-0.0268399473,0.010421399,0.0344097912
101685.524827,1.48257343,1.12129316,0.580326192,-0.0383426733,0.0298275873,0.0171192177
101685.534854,1.5448934,1.08957627,0.545988453,-0.042225562,0.0508412607,0.00767271826
101685.544882,1.69372334,1.06638435,0.322733825,-0.0372861959,0.0496508293,0.0121585466
101685.554909,1.84706959,1.02220647,0.0634334845,-0.034206517,0.0279196985,0.0148853576
101685.564937,1.93727958,1.00251941,-0.136416303,-0.019764727,0.00762028666,0.015427311
101685.574964,1.93184748,1.00542339,-0.16672201,0.00738593377,-0.00373889413,0.0110504059
101685.584992,1.86359724,1.01625436,-0.0668505995,0.0141937714,-0.00566995237,-0.00250135548
101685.595019,1.72496764,0.983934246,0.177258017,0.00567591796,0.00550440513,-0.0193786062
101685.605047,1.59713797,0.956282049,0.412386038,-0.00483264914,0.0397521257,-0.0396665707
101685.615074,1.58212744,0.902476006,0.5242004,-0.00320705585,0.0770028234,-0.0405233055
101685.625102,1.67926125,0.793086168,0.506261423,-0.00769235147,0.100156613,-0.031224614
101685.635129,1.84768538,0.692888376,0.331210561,-0.018317299,0.101947583,-0.00484520383
101685.645157,1.98193486,0.600172829,0.151776369,-0.0294224136,0.101930805,0.0353344381
101685.655184,2.04773157,0.498550337,0.0468143581,-0.0354009457,0.0913532674,0.0775692463
101685.665212,2.00124484,0.519510561,-0.054301499,-0.0398854427,0.0813621506,0.114373863
101685.675240,1.85629218,0.52324931,-0.0185714295,-0.0504406132,0.0825272799,0.153980121
101685.685267,1.69861857,0.538348168,0.000829436561,-0.0641561598,0.0798731744,0.173993781
101685.695295,1.51462452,0.640099985,-0.0115881465,-0.0800049007,0.0681438148,0.180619195
101685.705322,1.37877491,0.750033501,-0.0512760137,-0.0752221271,0.0642851591,0.17359218
101685.715350,1.2704877,0.867423105,-0.136824299,-0.0662278384,0.0588419288,0.150919884
101685.725377,1.203247,1.00827907,-0.13543606,-0.0423504636,0.0578304604,0.124109849
101685.735405,1.24314026,1.15664804,-0.162132928,-0.0141886007,0.0551281534,0.0992316678
101685.745432,1.29101742,1.23734867,-0.152367906,0.00336296251,0.0452350415,0.0691278204
101685.755460,1.27181033,1.32149907,-0.138967157,0.0152217522,0.0407801047,0.0412053764
101685.765487,1.22536794,1.31803519,-0.0433551576,0.0218439698,0.0441870876,0.0147684449
101685.775515,1.16437469,1.2804142,0.063459788,0.0157032516,0.0436395407,-0.0035027042
101685.785542,1.11073443,1.22127527,0.0861819074,-0.000974261551,0.0337688029,-0.0211488102
101685.795570,1.07992596,1.1802411,0.00426525623,-0.0171324573,0.0164215006,-0.0381946415
101685.805597,1.04274884,1.18499261,-0.0961409914,-0.0215543713,0.00173416804,-0.0540873185
101685.815625,1.05163065,1.15832628,-0.174205643,-0.0106074475,-0.00795654207,-0.0665120259
101685.825652,1.14105066,1.12065845,-0.220350724,0.00680057099,-0.0154565368,-0.0781801343
101685.835680,1.25927628,1.06636118,-0.163665545,0.0180886462,-0.0150770359,-0.0756860822
101685.845707,1.43165018,0.946108592,-0.0741056852,0.0181051567,-0.0206094868,-0.0710266158
101685.855735,1.50783793,0.844744824,-0.0047825581,0.00469161384,-0.0247070268,-0.0651948303
101685.865762,1.51873605,0.721603525,0.123251117,-0.0174515042,-0.0272338353,-0.051057443
101685.875790,1.48439728,0.643412982,0.234697814,-0.034700267,-0.02010189,-0.0425915197
101685.885817,1.36649206,0.570396115,0.295919467,-0.0414692238,-0.00409016525,-0.0355104357
101685.895845,1.2655197,0.541266247,0.292280234,-0.0454804748,0.0129862893,-0.0297090095
101685.905872,1.23450906,0.482869588,0.217505271,-0.047496222,0.0175224524,-0.0233906601
101685.915900,1.24211223,0.399521735,0.112881114,-0.058032047,0.012453042,-0.0126277525
101685.925927,1.25194623,0.316699147,0.0823994663,-0.0549920462,0.00725162122,0.0016909996
101685.935955,1.25903502,0.234375961,0.0533142416,-0.0364694968,0.00687851291,0.0187219158
101685.945982,1.27275404,0.201449551,-0.00888707081,-0.0147245172,0.00552962162,0.0324734151
101685.956010,1.29276836,0.178249658,-0.0507680642,0.00689582294,-0.00208169268,0.0493661091
101685.966037,1.30350836,0.159574987,-0.0330091202,0.0117957732,-0.0127407284,0.0623474196
101685.976065,1.24379361,0.183323819,0.0458896445,0.00365635403,-0.0243726186,0.0706940368
101685.986092,1.14594947,0.262356294,0.15293723,-0.00699975248,-0.0338923521,0.0726573169
101685.996120,1.03120731,0.393737963,0.256783389,-0.0154190697,-0.0213717688,0.0759127662
101686.006147,0.977820804,0.470552323,0.395865112,-0.01889343,0.000732735847,0.0828098208
101686.016175,0.948442953,0.518041146,0.446334485,-0.0393323936,0.0224398952,0.0868026987
101686.026202,0.909710049,0.567945945,0.449915851,-0.0588634834,0.0370353498,0.0878421292
101686.036230,0.919204511,0.618997794,0.352778834,-0.0608776323,0.0572253056,0.083185859
101686.046257,0.890141206,0.607028905,0.207386613,-0.045087751,0.0781327188,0.076909855
101686.056285,0.821727156,0.567571412,0.0410591556,-0.0307847094,0.0940293893,0.0648968667
101686.066312,0.68435969,0.476700397,-0.0336819048,-0.0300709829,0.100548014,0.0526396707
101686.076340,0.479261992,0.339179567,-0.0133352824,-0.0295463409,0.112787366,0.0474145487
101686.086368,0.281309416,0.172455877,0.104787824,-0.0374053307,0.136379242,0.0597596318
101686.096395,0.0436469071,-0.0179812085,0.201037536,-0.0628068298,0.155953214,0.0797764808
101686.106423,-0.238517226,-0.213860047,0.243256383,-0.105553761,0.174354061,0.113454282
101686.116450,-0.485962293,-0.430257211,0.216630242,-0.16335766,0.191853687,0.160985053
