t,ax,ay,az,gx,gy,gz
85359.760443,0.0521649254,-0.0328871377,-0.109916419,0.0101888906,0.0565254204,-0.0256329477
85359.770470,0.0584665098,-0.0404018242,-0.17708909,0.0207270179,0.0408497863,-0.0171220172
85359.780497,0.0773933285,-0.0918954993,-0.0913397286,0.0267273877,0.0403270088,-0.00365521014
85359.790523,0.0614614538,-0.100854941,0.0386982717,0.0285886694,0.0462259091,0.00486237789
85359.800550,0.0776421887,-0.0753494382,0.137004332,0.0106560085,0.0521879271,0.0194618255
85359.810577,0.097842973,-0.111595275,0.125303957,0.00468413625,0.0569685698,0.0335171893
85359.820603,0.0944203051,-0.132807319,0.0379261183,0.00184893538,0.0565184951,0.047788538
85359.830630,0.0893147986,-0.13376166,0.0386760599,-0.00376527454,0.0522305369,0.0623315312
85359.840657,0.0267591198,-0.116111145,-0.176931853,-0.00224620756,0.0361903198,0.0735293254
85359.850683,0.024798195,-0.116767673,-0.176632578,0.0135934753,0.00953820348,0.0889759213
85359.860710,0.0455320632,-0.161429493,-0.305975582,0.0364473909,-0.0255361591,0.102189466
85359.870737,0.0173547472,-0.099710082,-0.385284681,0.0559446588,-0.056119103,0.110657513
85359.880764,0.055999389,-0.0324919279,-0.312409999,0.0745188743,-0.0759862885,0.113412023
85359.890790,0.0689123543,0.00527724628,-0.131423317,0.0836833492,-0.0779349208,0.107166648
85359.900817,0.0787850752,0.0517241959,0.00782031836,0.0951083079,-0.0885987505,0.113552108
85359.910844,0.0669854779,0.0506632521,-0.0801338594,0.0893305838,-0.105684794,0.108493164
85359.920870,0.0682503833,0.156297865,-0.104215577,0.0624694079,-0.122999333,0.100249082
85359.930897,0.0809440068,0.160049802,-0.106221071,0.0381009504,-0.129095837,0.0874446034
85359.940924,0.103718149,0.226673899,-0.038293198,0.0126834735,-0.134090856,0.0664628893
85359.950950,0.105699824,0.299426087,-0.0147977562,-0.0107518118,-0.137608364,0.0477129072
85359.960977,0.102751788,0.27240839,0.0108855512,-0.031438712,-0.132276177,0.0302878432
85359.971004,0.089467505,0.266113052,0.114251233,-0.050837446,-0.124756761,0.00787920691
85359.981030,0.0838056798,0.261379192,0.139131992,-0.0606256276,-0.108549289,-0.00514258537
85359.991057,0.0954680605,0.168081023,0.265757553,-0.0577496812,-0.0849331766,-0.013892401
85360.001084,0.075131375,0.114606038,0.389952673,-0.049187351,-0.0504585542,-0.0167933833
85360.011110,0.0714306207,0.0721335083,0.478228338,-0.0389493592,-0.0188199338,-0.0227716453
85360.021137,0.0773912827,0.0733092741,0.414299179,-0.0383514799,0.00832087267,-0.0216922667
85360.031164,0.069887483,-0.0203979873,0.348217225,-0.0284855347,0.0380558632,-0.0157912355
85360.041190,0.0906722046,-0.0504697388,0.393352837,-0.0159265995,0.0616011359,-0.00787259266
85360.051217,0.0714278443,-0.000337013402,0.292359145,-0.0189426299,0.0689820871,-0.00568640325
85360.061244,0.0733604198,0.0138502462,0.0523497804,-0.018107729,0.0621582717,-0.00377878081
85360.071270,0.0545507976,0.0102406774,-0.0336924262,-0.00460550189,0.0536670461,-0.00152441487
85360.081297,0.0708222796,0.0080088632,-0.0660959817,0.00828552898,0.0367599688,0.00305941794
85360.091324,0.0635125411,-0.0380519732,-0.185934075,0.00803465955,0.01245037,0.0133085931
85360.101350,0.0622461744,-0.123684357,-0.285515562,0.0179075301,-0.0148211988,0.0273282714
85360.111377,0.0579142827,-0.128804732,-0.271705648,0.0414674506,-0.0447444767,0.0413793772
85360.121404,0.0563777208,-0.122189515,-0.298515914,0.0757492557,-0.0678346157,0.0505318604
85360.131430,0.0600857815,-0.0798662945,-0.207510532,0.105987057,-0.0760544613,0.0607466809
85360.141457,0.0768590755,-0.0893266717,-0.00624970804,0.127223372,-0.0734909028,0.0716869459
85360.151484,0.0852843741,-0.0460376382,0.109157125,0.129549369,-0.0607713796,0.0735258609
85360.161510,0.0596367226,0.062309522,0.24036943,0.122484803,-0.0405020602,0.0737162754
85360.171537,0.092032387,0.0564054856,0.319611893,0.101497762,-0.0172582567,0.0682525337
85360.181563,0.0618286797,0.114591827,0.312728563,0.0855997577,-0.00282232556,0.0604950152
85360.191590,0.0817050543,0.149190956,0.159092245,0.0688921511,-0.000175143592,0.0536861084
85360.201617,0.0679585607,0.12454112,-0.0141185417,0.0531459451,-0.00936411507,0.0512565076
85360.211643,0.0680691815,0.0468224319,-0.0615478169,0.0494084656,-0.0138560683,0.0505521037
85360.221670,0.0682715722,0.0486177178,-0.00772328773,0.0563574508,-0.0155210765,0.0489613973
85360.231697,0.0708881844,0.0597882964,0.0595347235,0.0555209517,-0.0152307926,0.0396123677
85360.241723,0.0656149202,0.145861775,0.0543780714,0.046677392,-0.0185693298,0.0265913755
85360.251750,0.0850787685,0.205785973,-0.0312906258,0.0263249837,-0.0245635733,0.0125157703
85360.261777,0.054450406,0.212235989,-0.0027478374,0.0152217317,-0.0244277511,-0.0023942031
85360.271803,0.0768088067,0.238129322,0.0778372729,-0.00906523131,-0.0224908348,-0.0220440719
85360.281830,0.0769612207,0.283404634,0.0793085145,-0.060781423,-0.0251534637,-0.0464370288
85360.291857,0.0648293228,0.331663894,-0.0317617504,-0.0962046608,-0.037282832,-0.0566260144
85360.301883,0.0807828249,0.11947463,-0.140902509,-0.0846500769,-0.0551486239,-0.0491215102
85360.311910,0.0583460982,-0.146856485,-0.168280929,-0.0442099757,-0.0650619715,-0.0292362161
85360.321937,0.0481815548,-0.239645134,-0.0122545014,-0.0120704146,-0.0568866022,-0.0139494082
85360.331963,0.0757063984,-0.140463679,0.18911329,0.0136163058,-0.0468057394,-0.00420942903
85360.341990,0.0278149125,-0.0421211954,0.152921448,0.00366194267,-0.0405121557,-3.86526808e-05
85360.352017,0.0437891651,-0.0141781264,0.0816033475,-0.0326475948,-0.0407853946,0.00616544764
85360.362043,0.0791688138,-0.0385763624,0.00441898549,-0.0686452761,-0.0505506732,0.0178937428
85360.372070,0.0647974663,-0.0681629607,-0.0846177268,-0.0495291054,-0.0405236073,0.0445826128
85360.382097,0.0945049146,-0.00800981305,-0.154580321,0.0542896986,0.0729776546,0.127247125
85360.392123,-0.210945621,0.26852636,-0.380630133,0.0923175067,0.171789721,0.163866386
85360.402150,-0.128173668,0.420921264,-0.512725066,0.0293366797,0.194775462,0.141481981
85360.412176,-0.392959307,0.386486495,-0.306587576,0.0553626865,0.266172677,0.148116186
85360.422203,0.129010703,0.0966916475,-0.457730324,0.0624954328,0.363427311,0.15617305
85360.432230,-0.0968785119,0.0828960176,-0.458989384,-0.004259896,0.448755801,0.130572885
85360.442256,-0.373658833,0.290118782,-0.356924263,-0.0836244896,0.495708644,0.0976580828
85360.452283,-0.268935453,0.245896595,-0.305626038,-0.16125004,0.527610421,0.0810894892
85360.462310,-0.147046564,0.120598045,-0.199030872,-0.196758762,0.555537105,0.0778175294
85360.472336,-0.309814283,0.0599726765,-0.159403795,-0.219966084,0.569844723,0.0671419799
85360.482363,-0.436719392,0.0204108468,-0.0449339512,-0.228615224,0.554015696,0.0483720228
85360.492390,-0.446596059,-0.0174077195,-0.0376952321,-0.245164916,0.504294455,0.0293874145
85360.502415,-0.44348348,-0.0708785398,-0.0141360774,-0.236479551,0.44971773,0.0252467319
85360.512443,-0.43318793,-0.198061078,-0.0169072957,-0.181557178,0.408368438,0.0385548137
85360.522470,-0.407204252,-0.30165191,-0.00378361019,-0.112296619,0.364294708,0.0557947867
85360.532496,-0.359180445,-0.302815036,-0.0146849434,-0.0596688278,0.312522054,0.0634580329
85360.542523,-0.408357148,-0.268804958,0.0252267957,-0.0169016551,0.24947679,0.0739229247
85360.552550,-0.418748194,-0.379960929,0.0848234785,0.0509378463,0.187044039,0.10922765
85360.562576,-0.47353923,-0.643985667,0.039158875,0.122152634,0.10494598,0.105424926
85360.572603,-0.681972648,-0.596278415,-0.0336930108,0.130056903,0.0371754467,0.0780375078
85360.582629,-0.733855323,-0.66053845,0.16390403,0.112553537,0.0179274529,0.0244946554
85360.592656,-0.713722197,-0.47162419,0.425706123,0.0444280133,0.0384487063,-0.0290324874
85360.602683,-0.718989981,-0.337954775,0.644821752,-0.0572842322,0.0671349466,-0.0834078416
85360.612709,-0.657918258,-0.134569031,0.76007018,-0.137385458,0.0903934017,-0.119951211
85360.622736,-0.591343114,-0.0252270514,0.675185326,-0.168871999,0.0776451156,-0.141157433
85360.632763,-0.442684146,0.0851012726,0.379787253,-0.117327861,0.0446738452,-0.130758315
85360.642789,-0.316548998,0.189465866,0.122250415,-0.0136451423,0.0065267277,-0.0899834558
85360.652816,-0.22991942,0.21158085,0.0278986453,0.0725387484,-0.0358481631,-0.0465044193
85360.662843,-0.259954128,0.359708049,0.113040104,0.109792106,-0.0622171871,-0.0115456386
85360.672868,-0.283694777,0.46244537,0.317955943,0.115207382,-0.0748195276,0.011425457
85360.682896,-0.315688509,0.50225321,0.435127447,0.101802088,-0.0738259032,0.0265713856
85360.692921,-0.384733477,0.491522338,0.497820927,0.0814600661,-0.0900235102,0.037490081
85360.702949,-0.373448843,0.454087036,0.437129435,0.0647950694,-0.106238432,0.0349398367
85360.712976,-0.342264162,0.392218718,0.330042102,0.0618557408,-0.126958624,0.0309179313
85360.723002,-0.299310133,0.383379213,0.205334357,0.0605417378,-0.126006544,0.028764233
85360.733029,-0.368092723,0.29315625,0.225132697,0.0497777723,-0.106856555,0.0307283141
85360.743056,-0.407975967,0.199417132,0.231713245,0.0591291972,-0.071071662,0.0310140736
85360.753082,-0.370522142,0.118955977,0.164018596,0.0789130181,-0.0407339968,0.0335150473
85360.763109,-0.373004753,0.0362632631,0.0896416925,0.0835234821,-0.0176771451,0.0255942717
85360.773135,-0.387265041,0.110222087,0.0487093781,0.090884462,0.0178467594,0.024780944
85360.783162,-0.367553429,0.0782893641,0.149853292,0.0874465853,0.0590384044,0.0254517943
85360.793188,-0.296675693,0.0107527551,0.220752875,0.063325271,0.0686284527,0.0271397047
85360.803215,-0.275585704,-0.0124329267,0.170890235,0.0599909946,0.0411073379,0.0168167613
85360.813242,-0.271923382,-0.0497416803,-0.0528109682,0.0780602768,-0.00320233265,-0.000379270874
85360.823269,-0.144324592,-0.101436869,-0.127424018,0.0624080822,-0.0394045487,-0.00698337797
85360.833295,-0.0798388951,-0.167504356,-0.0561135169,0.0428381078,-0.0455252901,-0.0221356973
85360.843322,-0.174665078,-0.134821508,-0.00578325958,0.0213677026,-0.0389890932,-0.0506781265
85360.853349,-0.250236963,-0.108430381,-0.0851695155,0.000144173333,-0.0305258315,-0.0787885934
85360.863375,-0.20252719,-0.178359365,-0.177558461,0.00363051752,-0.0135045052,-0.101987921
85360.873402,-0.225148333,-0.175711189,-0.279543502,0.0258495361,0.0132568022,-0.129342854
85360.883428,-0.221339662,-0.111536494,-0.341475934,0.00205579028,0.0363882184,-0.164444387
85360.893455,-0.145321421,0.0128462933,-0.257666601,-0.0619932339,0.0664617047,-0.192026734
85360.903482,-0.024567455,0.150442673,-0.121734867,-0.155772984,0.0925055519,-0.225435555
85360.913508,0.0233960732,0.323153694,-0.0324672684,-0.23193486,0.11952465,-0.247290537
85360.923535,0.107506216,0.357077408,-0.0841495248,-0.270782143,0.146999419,-0.248942479
85360.933562,0.215797152,0.371393116,-0.152007256,-0.270545661,0.147930726,-0.228167698
85360.943588,0.298335077,0.40320298,-0.376732541,-0.237401262,0.144219086,-0.20156911
85360.953615,0.300239669,0.41685142,-0.367669529,-0.181786209,0.142623588,-0.173132151
85360.963641,0.269217046,0.430572706,-0.337536841,-0.119979568,0.128526673,-0.129951656
85360.973668,0.346696153,0.438327851,-0.353137146,-0.0722743645,0.104131848,-0.0828027725
85360.983694,0.367165306,0.493071869,-0.274895969,-0.0292014647,0.0669368133,-0.0363042466
85360.993721,0.411919078,0.51057472,-0.287805134,0.00132874737,0.0209101941,0.0194466319
85361.003747,0.438518843,0.50177003,-0.346783393,0.0480392613,-0.0020142966,0.0853151307
85361.013775,0.39732101,0.392191465,-0.361265507,0.103162698,0.00105366518,0.159652472
85361.023800,0.370096537,0.378646631,-0.328603009,0.154042393,0.0091067981,0.231385246
85361.033828,0.279454216,0.354345609,-0.321412805,0.171767071,0.0298448335,0.279813766
85361.043853,0.167010983,0.282841996,-0.176719672,0.170303658,0.0511189625,0.30544138
85361.053881,0.13845307,0.198868741,-0.0628378567,0.160222262,0.0687426999,0.316265792
85361.063908,0.0406074663,0.0922241833,-0.048906362,0.175642774,0.0599726401,0.311506718
85361.073934,-0.0459496311,0.00178019795,-0.216123462,0.20396468,0.0412849709,0.313562155
85361.083961,-0.113541624,-0.142261157,-0.234691968,0.243110493,0.0553826801,0.310223877
85361.093988,-0.179121838,-0.165094262,0.0373842665,0.211583197,0.0638171807,0.303304732
85361.104014,-0.270840483,-0.182263095,0.222685304,0.164625004,0.0583608933,0.275179893
85361.114041,-0.309679259,-0.248221604,0.278536955,0.133860439,0.055315569,0.24139154
85361.124067,-0.309174963,-0.393817203,0.324974297,0.11793685,0.0392359346,0.207572326
85361.134094,-0.330183045,-0.453715608,0.291982712,0.10611748,0.0125369495,0.169138387
85361.144121,-0.330248,-0.495407874,0.287682385,0.107957192,-0.0118269799,0.125508085
85361.154147,-0.384822324,-0.547691823,0.254617151,0.122452505,-0.0202143397,0.084217377
85361.164174,-0.426147949,-0.56481141,0.313560338,0.102401033,-0.0151514038,0.043843586
85361.174201,-0.454411482,-0.473525896,0.442809234,0.0468408391,-0.00305798929,0.010672315
85361.184227,-0.35045536,-0.433397664,0.506337995,-0.0145522151,0.0109094921,-0.0138026671
85361.194253,-0.273327404,-0.390378022,0.461399368,-0.0656090081,0.0364500023,-0.041377835
85361.204280,-0.316596564,-0.323795974,0.477138789,-0.0811522827,0.0531677306,-0.0608926788
85361.214306,-0.25580015,-0.271784449,0.292675955,-0.0615649968,0.0464120917,-0.0625901818
85361.224334,-0.0552718054,-0.297834105,0.124922849,-0.0380977541,0.0370851681,-0.0643910095
85361.234359,-0.0106363987,-0.207756396,0.155857501,-0.0329043232,0.0209970139,-0.0730196536
85361.244387,0.000718085141,-0.172048027,0.157772979,-0.0326145738,0.00359139126,-0.0834576413
85361.254412,0.0287891644,-0.154011216,0.138579034,-0.0354566984,-0.0229179803,-0.0899206027
85361.264440,0.101251247,-0.0901630495,0.0708756172,-0.039983537,-0.0482750051,-0.0866976455
85361.274467,0.119339131,-0.0605554814,-0.041923079,-0.00559467264,-0.0567571707,-0.0693817735
85361.284493,0.134410297,-0.0864107112,-0.138057056,0.042903889,-0.0497458689,-0.0454191826
85361.294520,0.11834654,-0.092995533,-0.172106625,0.061715126,-0.0512066111,-0.0260207169
85361.304547,0.123785662,-0.0433451477,-0.152003748,0.0539158545,-0.0470058285,-0.0215193834
85361.314573,0.176606786,-0.0045563116,-0.104093996,0.0456118509,-0.0272275992,-0.0195177514
85361.324600,0.122922396,0.0329180809,-0.0510994881,0.0337591879,0.0135400705,-0.0256885625
85361.334626,0.0776277949,0.0406043976,0.0530401008,0.0232631359,0.0621089377,-0.0346128158
85361.344653,0.123745403,0.0814221822,0.081845924,0.0177003257,0.100666188,-0.0383255295
85361.354680,0.156539711,0.0654712374,0.131506319,-0.00327020418,0.132359654,-0.042512551
85361.364706,0.168408574,0.0700512952,0.236471253,-0.0102066733,0.148196951,-0.0386722721
85361.374733,0.182859563,0.0717637252,0.244977216,-0.00373412692,0.15551585,-0.0142561439
85361.384759,0.186478338,0.0115731681,0.285262464,0.014786561,0.142645851,-0.00309297256
85361.394786,0.144749905,0.0707374143,0.177794608,0.055611223,0.111656517,0.0129890582
85361.404813,0.146901165,-0.0247528946,0.112564887,0.0861962959,0.0906819925,0.0157494247
85361.414839,0.0727799165,-0.0649153936,0.233119605,0.0673339218,0.0679844022,-0.00339657255
85361.424866,0.0346164823,0.00113572603,0.368517671,0.0218458008,0.0422132611,-0.035851717
85361.434893,0.0699058954,0.0305853636,0.395554146,-0.0130272275,0.0383612663,-0.0498202629
85361.444919,0.0693578331,-0.0362245751,0.407563733,-0.00118921022,0.0433831885,-0.0537361726
85361.454946,0.0323976372,-0.0125526441,0.245000012,0.0217011925,0.0472647473,-0.0525747724
85361.464972,0.0821261292,0.0625474224,0.180576932,0.0249041766,0.0590793267,-0.044590082
85361.474999,0.0945897433,0.0727156556,0.244394447,0.00448172493,0.0830184817,-0.0481376797
85361.485026,0.0441634052,0.129411429,0.369299761,-0.0298839714,0.110362485,-0.0602683797
85361.495052,-0.00196793907,0.128849631,0.436351436,-0.0725472793,0.128409922,-0.0768148601
85361.505079,-0.0628723435,0.155788564,0.385512645,-0.128235579,0.127580881,-0.0935536325
85361.515105,-0.076757113,0.151772533,0.335583369,-0.138635233,0.125001878,-0.0867513865
85361.525132,-0.0375557506,0.0836842088,0.223059398,-0.076559335,0.118276335,-0.0607610643
85361.535159,0.0320146658,0.0849136045,0.0289279883,-0.0168627109,0.083896257,-0.0257447548
85361.545185,0.0665486209,0.118165667,-0.0349479793,0.0287156925,0.0370864123,0.00189193245
85361.555212,0.089378548,0.187921778,-0.0651537324,0.0588791855,0.00288636098,0.0277237967
85361.565239,0.164305048,0.122660676,0.0165039756,0.0604749545,-0.000859108637,0.042425245
85361.575265,0.123596642,0.129594969,0.156047471,0.0241755359,0.00953813829,0.0359590873
85361.585292,0.0580219078,0.157460881,0.210630125,-0.0232127532,0.0326077715,0.0187617261
85361.595318,0.117861167,0.114290908,0.237497089,-0.055539269,0.0733839646,0.00695060706
85361.605345,0.134356959,0.0781673086,0.2286258,-0.0602767654,0.109982193,0.0108002061
85361.615372,0.126590636,0.102558713,0.091097152,-0.0629777461,0.143335611,0.0256169699
85361.625398,0.132023146,0.120141825,0.0769014534,-0.0553160943,0.186377615,0.0239133462
85361.635425,0.0605024726,0.14062519,0.0818698894,-0.042627465,0.239124462,0.0204557627
85361.645451,0.0800258325,0.0764194785,0.131942373,-0.0518728942,0.301645905,0.0106502706
85361.655478,0.0688850644,0.0261686431,0.360633055,-0.116581582,0.358701468,-0.0171944108
85361.665505,-0.00992324546,0.0985053459,0.607580109,-0.18998763,0.390925169,-0.0465957075
85361.675531,-0.044248234,0.0911282047,0.60668053,-0.194328576,0.394229621,-0.0531857014
85361.685558,-0.00940353243,-0.0274827945,0.439970211,-0.16343911,0.368544251,-0.0493374318
85361.695585,-0.0393095355,-0.0324302243,0.399362891,-0.121332392,0.29917556,-0.052539885
85361.705611,-0.113521129,-0.043557731,0.276762347,-0.0583760664,0.204087913,-0.0485930778
85361.715638,-0.10676517,-0.169269612,0.203211373,0.0145468758,0.0998709649,-0.0551777482
85361.725664,-0.0658564739,-0.237301713,0.168875973,0.0655932799,-0.0128539866,-0.0827419981
85361.735691,-0.0393174813,-0.234850264,0.177795777,0.0779671296,-0.122601256,-0.127379507
85361.745718,-0.093292945,-0.318541195,0.288196764,0.0605463274,-0.20998171,-0.194883168
85361.755744,-0.14465587,-0.50656395,0.235001765,0.0595795996,-0.252308369,-0.26622659
85361.765771,-0.136562872,-0.727161744,0.0459574491,0.0727092475,-0.234989315,-0.312718987
85361.775797,-0.154459946,-0.682861122,-0.168073424,0.0478137508,-0.146657065,-0.327950686
85361.785824,-0.165839162,-0.295407134,-0.191254978,0.0347839706,0.0254867449,-0.340690166
85361.795851,-0.161781667,-0.175821956,-0.241307003,-0.0364870131,0.187350735,-0.316861004
85361.805877,-0.11507877,0.123717455,-0.158421799,-0.100990906,0.311898798,-0.281154424
85361.815904,-0.0812570182,0.605150507,-0.0102472532,-0.0783322006,0.418325663,-0.253029823
85361.825930,-0.0562169407,0.381048176,-0.0954705448,-0.0327069238,0.447483003,-0.203200221
85361.835957,-0.112900129,0.215569883,-0.26725276,0.116445541,0.414428383,-0.149961233
85361.845984,-0.11754695,0.191262467,-0.367404156,0.242060989,0.356366932,-0.0938604251
85361.856010,-0.0503977696,0.133900813,-0.182006088,0.292193115,0.287531942,-0.0612036809
85361.866037,-0.163797756,0.290872742,0.0344967284,0.282045156,0.209236324,-0.0406217054
85361.876064,-0.240358853,0.234544523,0.237817992,0.284591943,0.157652497,-0.0275818035
85361.886090,-0.278295237,0.100320469,0.431579399,0.268959433,0.128178224,-0.0380120724
85361.896117,-0.352650532,0.177123832,0.556050997,0.207002595,0.144839495,-0.0577194691
85361.906143,-0.269566992,0.16080336,0.612504706,0.143171683,0.203028232,-0.0615211278
85361.916170,-0.120016372,0.0307222513,0.529416089,0.123102911,0.280768573,-0.0434776805
85361.926197,0.0296353283,0.0748321728,0.324003991,0.0824396387,0.346874088,-0.0109967012
85361.936223,0.212035845,0.173046463,0.124380413,0.0127950488,0.418741912,0.0076611382
85361.946250,0.356070533,0.295532514,0.0521329228,-0.0339482203,0.464439601,0.00567921391
85361.956276,0.248632304,0.312074629,-0.114680272,-0.00742313778,0.458000094,-0.00797641091
85361.966303,0.231827939,0.200238276,-0.369673855,0.0616968125,0.41357404,-0.0205712989
85361.976330,0.273534654,0.0347578635,-0.53986734,0.115696132,0.347568661,-0.034217868
85361.986356,0.199234615,-0.0469274631,-0.569764466,0.141485378,0.272313595,-0.0703503042
85361.996383,0.151111439,-0.123553826,-0.510577533,0.158745855,0.215895295,-0.119736768
85362.006409,0.113297275,-0.172793877,-0.444753938,0.103722289,0.179966599,-0.166858733
85362.016436,-0.0655520476,-0.123574138,-0.348433498,0.0599468499,0.173367813,-0.186232448
85362.026463,-0.210722224,-0.0347624666,-0.171785723,0.0951783359,0.182728022,-0.190501481
85362.036489,-0.130572838,-0.0236084007,-0.0446235701,0.14703913,0.186344326,-0.178853601
85362.046516,0.0840598738,-0.0873131765,-0.0469201566,0.212115601,0.171034619,-0.151643574
85362.056543,0.0587572363,-0.229107812,-0.0159931034,0.235791102,0.107583478,-0.11341282
85362.066569,-0.168877763,-0.299450637,0.199815885,0.173536524,-0.0330806933,-0.0402858816
85362.076596,-0.1705309,0.0405514984,0.329278716,0.246109262,-0.166557804,0.0132487165
85362.086622,-0.0378928005,0.327024142,0.0331032282,0.353456497,-0.176217079,-0.0136928856
85362.096649,-0.120910399,0.144561543,0.0854828192,0.324162781,-0.141825557,-0.0593482554
85362.106676,-0.462335297,0.176433402,0.22537995,0.257814914,-0.112367526,-0.0483930744
85362.116702,-0.537835651,0.402498851,0.131427409,0.155136734,-0.0408768319,0.0170586351
85362.126729,-0.482177915,0.554778713,0.4207523,0.0512388423,0.0662403032,0.0570374765
85362.136755,-0.584422923,0.792053683,0.564202155,0.00926343072,0.165395632,0.0401767381
85362.146782,-0.601954926,0.978256931,0.294291574,-0.00693764351,0.225749791,-0.0282665007
85362.156809,-0.703318803,0.812129307,-0.103170452,0.0269494839,0.225061104,-0.112790972
85362.166835,-0.74028616,0.419315399,-0.572238747,0.107193723,0.188035965,-0.171663076
85362.176862,-0.591855922,0.0936326618,-0.854433056,0.178488672,0.153227121,-0.184392989
85362.186888,-0.512369202,-0.0671269322,-0.907816855,0.203946888,0.131356716,-0.146906346
85362.196915,-0.404011739,0.0210276635,-0.675019322,0.174993798,0.107165627,-0.0632420629
85362.206942,-0.282568001,0.168621194,-0.169434776,0.13232623,0.0828075632,0.0308471508
85362.216968,-0.157720665,0.431283412,0.187331082,0.0241451748,0.0467105433,0.072537072
85362.226995,-0.0439731068,0.785602607,0.430947531,-0.109082118,0.0187055375,0.07406573
85362.237022,0.0728102385,0.966135919,0.528457473,-0.180455908,0.00261631655,0.0609656386
85362.247048,-0.0229829623,0.892658668,0.443625226,-0.185131893,0.0239282623,0.0345055349
85362.257075,-0.194953284,0.640150619,0.412410588,-0.122228548,0.071594052,-0.00433853269
85362.267101,-0.256622718,0.31228082,0.367282576,-0.119413584,0.169256955,0.0140399411
85362.277128,0.127795044,-0.289553805,0.931948257,-0.087058574,0.296837568,0.077167511
85362.287155,-0.0155175949,-0.475372729,0.890633665,-0.116900899,0.41389069,0.141357958
85362.297181,-0.380517613,-0.33695758,0.701765875,-0.226549104,0.46281296,0.152088106
85362.307208,-0.545130594,-0.0889435541,0.545381719,-0.294451714,0.411587864,0.148511201
85362.317234,-0.21334311,-0.0171766141,0.0190700267,-0.199311092,0.284932703,0.153022319
85362.327261,0.372213749,-0.145446728,-0.237738497,-0.0723185167,0.192564413,0.11267411
85362.337288,0.790783371,-0.166672398,0.139347096,-0.0657423735,0.243704557,-0.0158287417
85362.347314,0.744817958,0.28606136,0.777756059,-0.0595473237,0.318490922,-0.138610065
85362.357341,0.268695653,0.311810206,0.321293563,-0.0190345198,0.375539303,-0.199210018
85362.367367,0.1427835,0.0106474315,-0.237408826,0.00317065069,0.375006139,-0.252416253
85362.377394,0.418891548,-0.373583795,-0.675790891,0.0496121868,0.265996039,-0.241222978
85362.387421,0.7242121,-0.742371441,-0.932076852,0.0903380439,0.0646791533,-0.147312999
85362.397447,0.792965683,-1.04251181,-0.9454361,0.00814277306,-0.170655608,-0.00938069634
85362.407474,0.646278308,-1.07742202,-0.689857995,-0.0963838995,-0.397931635,0.133788705
85362.417501,0.313659488,-1.02093295,-0.675880323,-0.146303266,-0.578914225,0.24742952
85362.427527,0.137802716,-0.916782252,-0.714811819,-0.15030174,-0.707844257,0.324418336
85362.437554,0.180462219,-0.650567895,-0.618243542,-0.0513389297,-0.76006031,0.353187919
85362.447580,0.198129613,-0.276853678,-0.524838698,0.000948775385,-0.7375651,0.330477804
85362.457607,0.034572497,0.00752140848,0.0608516513,0.0075547467,-0.698740482,0.290361822
85362.467634,-0.184685865,0.165257198,0.433451623,-0.0275222808,-0.652773261,0.268785685
85362.477660,-0.192942566,0.222687862,0.455246106,-0.042082049,-0.610393822,0.281481773
85362.487687,-0.0951156304,0.070980612,0.375316245,-0.00264968793,-0.549370468,0.289380699
85362.497713,-0.157431893,-0.0328449426,0.385202848,0.0146744419,-0.480209976,0.299141467
85362.507740,-0.126999053,0.0587699497,0.460129786,0.0125423148,-0.396394968,0.30390054
85362.517767,-0.113071449,0.152409626,0.493396681,0.0275660045,-0.318990201,0.299777687
85362.527793,-0.180070718,0.301548048,0.48488838,0.0235728621,-0.247275278,0.30379054
85362.537820,-0.106028718,0.286284866,0.529347115,-0.0359599739,-0.184493124,0.325520605
85362.547847,-0.0606476897,0.277225507,0.504626515,-0.0619116798,-0.134311184,0.337530404
85362.557873,-0.23582658,0.367977718,0.261056244,-0.0630781427,-0.117036849,0.276982903
85362.567900,-0.436960215,0.537970274,0.0116308166,-0.0261347741,-0.139228702,0.17721048
85362.577926,-0.30896121,0.688759094,-0.295654679,0.0300992038,-0.180388927,0.080908455
85362.587953,-0.151006846,0.690707013,-0.418607105,0.0465993509,-0.219510227,0.0143046603
85362.597980,-0.0375910594,0.512550367,-0.373237685,0.0649533272,-0.251637518,-0.0307941101
85362.608006,-0.0543543435,0.233651227,-0.253110253,0.0789168105,-0.271938264,-0.0574448928
85362.618033,-0.0564721119,-0.132650448,-0.0996791024,0.0627580807,-0.285665274,-0.0332455486
85362.628059,-0.029852154,-0.442145728,0.0628103842,0.0373440683,-0.29349044,0.00515590282
85362.638086,-0.0708963129,-0.504891523,0.259381004,0.0227329005,-0.29659462,0.024114415
85362.648113,-0.0208630932,-0.32321569,0.359916431,0.0402498432,-0.286866367,0.00477427198
85362.658139,0.0600753697,-0.0593983107,0.420217463,0.0391209275,-0.269586951,-0.0443019271
85362.668166,0.172514969,0.0850160785,0.583535217,0.0473767295,-0.245349288,-0.0776143447
85362.678193,0.443580182,0.025817309,0.686912005,0.0263334941,-0.192082062,-0.0845412239
85362.688219,0.644795157,-0.0157728117,0.858370395,0.00507747382,-0.114147849,-0.115216844
85362.698246,0.526178056,0.170679223,0.987814521,-0.0409243703,-0.01824449,-0.185424417
85362.708272,0.312309205,0.331889848,0.976789854,-0.0559946671,0.0781278536,-0.260649949
85362.718299,0.298963858,0.309315905,0.801091926,-0.0536292493,0.158466622,-0.306308776
85362.728326,0.460003603,0.0396880865,0.660822455,-0.0535805114,0.227904558,-0.303364098
85362.738352,0.588372866,-0.305591916,0.495087118,-0.0737720653,0.270342588,-0.261664867
85362.748379,0.530018913,-0.384384883,0.289834594,-0.0897608846,0.290112555,-0.22255075
85362.758405,0.274931296,-0.197671128,-0.0337193143,-0.0705054328,0.273115724,-0.209745497
85362.768432,0.111974429,-0.0627186873,-0.452550291,-0.0195588954,0.22553727,-0.205916643
85362.778459,0.219506345,-0.0862211434,-0.74557696,0.0169762112,0.156642362,-0.196712762
85362.788485,0.310191702,-0.205345682,-0.731768214,0.02487568,0.0764644444,-0.177405924
85362.798512,0.340729098,-0.24985622,-0.671786332,0.01751923,0.00343923317,-0.152083784
85362.808539,0.374799089,-0.254840876,-0.60961483,0.00152561627,-0.0629235432,-0.145879954
85362.818565,0.361194634,-0.192951845,-0.567159251,0.00314455177,-0.11908748,-0.142026365
85362.828592,0.400804687,-0.1670226,-0.53043491,0.0357059576,-0.164392382,-0.144929469
85362.838618,0.416759468,-0.217122263,-0.391291812,0.0447923951,-0.190862074,-0.147405148
85362.848645,0.380652601,-0.331810719,-0.159818222,0.0307948217,-0.191572338,-0.133229941
85362.858672,0.299116145,-0.318730288,0.00343640419,0.0319828577,-0.172103301,-0.100214727
85362.868698,0.298907543,-0.409000707,0.0692775344,0.0342995413,-0.152573541,-0.0597461313
85362.878725,0.352695759,-0.545353516,0.15823709,0.041223228,-0.150027022,-0.0291352272
85362.888751,0.290758157,-0.426375912,0.206696293,0.0144518008,-0.161599532,-0.0229718722
85362.898778,0.319307503,-0.103850104,0.222881704,-0.0175215788,-0.189536348,-0.045767732
85362.908805,0.37203536,0.332446825,0.24988603,-0.054897178,-0.222696707,-0.0931280553
85362.918831,0.359358651,0.555325167,0.333363355,-0.0897880495,-0.241217926,-0.162472516
85362.928858,0.301825093,0.600108531,0.424375751,-0.0746181533,-0.23314774,-0.26115033
85362.938885,0.115797494,0.69149809,0.425051459,-0.038372796,-0.184825748,-0.376811415
85362.948911,0.0518661068,0.632305604,0.455117511,-0.0117055001,-0.0985747501,-0.470996261
85362.958938,-0.026083029,0.499049227,0.390692093,0.0368468538,0.00396068022,-0.538232565
85362.968964,-0.0754269604,0.241374296,0.221330967,0.0583412275,0.0982722715,-0.570097268
85362.978991,0.0192540597,-0.0272810979,0.055436056,0.0860194638,0.179682434,-0.555192649
85362.989018,0.146418441,-0.191711197,-0.346657721,0.0993890613,0.230426565,-0.545606852
85362.999044,0.0557596619,-0.312710078,-0.638567953,0.113283843,0.254588634,-0.526452601
85363.009071,0.0838095888,-0.424003922,-0.91125852,0.0968670473,0.250745177,-0.4693214
85363.019098,0.19178755,-0.590605301,-1.04831371,0.0826020911,0.217295587,-0.37982747
85363.029124,0.269632221,-0.793338974,-1.09680915,0.0696351603,0.161721811,-0.241163313
85363.039151,0.232903331,-1.07451168,-0.981595208,0.0607263558,0.0942588896,-0.0802631229
85363.049177,0.020211744,-1.34360452,-0.76429335,0.0071491464,0.0241743382,0.0887003317
85363.059204,-0.331039369,-1.29179834,-0.48117199,-0.0466171466,-0.0711449906,0.232268959
85363.069231,-0.67911799,-0.799241841,-0.323223654,-0.100468129,-0.196624622,0.32681331
85363.079257,-0.6404138,-0.29375038,-0.247278478,-0.122682884,-0.332370728,0.38227576
85363.089284,-0.386970369,0.0222412771,-0.112830845,-0.095848076,-0.450266987,0.383008927
85363.099311,-0.381729327,0.438366648,0.117751935,-0.0245475303,-0.522579551,0.300156921
85363.109337,-0.650794397,0.925426819,0.421557771,0.0467042811,-0.531158686,0.163900554
85363.119364,-0.762065591,1.37072239,0.77132924,0.0915537775,-0.483445734,-0.00156218745
85363.129390,-0.960361647,1.59375534,1.16825701,0.112757064,-0.398660541,-0.146789163
85363.139417,-0.813656224,1.43207308,1.41525492,0.137519926,-0.284344614,-0.237990171
85363.149444,-0.481850035,1.01408688,1.50748838,0.147850066,-0.152612686,-0.28837797
85363.159470,-0.4776954,0.736023315,1.41915017,0.145008743,-0.0203630347,-0.339633435
85363.169497,-0.729076491,0.752184176,1.13856389,0.114456698,0.0799816772,-0.396959841
85363.179524,-0.909047201,0.755754655,0.798002728,0.0671376511,0.1085582,-0.425662071
85363.189550,-0.675603406,0.64344893,0.396875166,0.0343882255,0.0738827735,-0.407371461
85363.199577,-0.220260744,0.37056357,0.0884872617,0.000965020678,0.0185505413,-0.341632664
85363.209603,0.0575387274,0.180610834,0.0122001409,-0.0381858423,-0.00582909957,-0.257414192
85363.219630,0.0675038027,0.153356624,0.0254313784,-0.0979224071,0.00784063898,-0.180541247
85363.229657,-0.123497639,0.09011384,-0.0916921953,-0.112900831,0.0280745383,-0.132431
85363.239683,-0.27218755,0.0449291289,-0.378393752,-0.120752096,0.0258129817,-0.0959451497
85363.249710,-0.0799351585,0.00742759272,-0.653799424,-0.108992636,-0.00157656439,-0.0636644438
85363.259737,0.179378479,-0.146742467,-0.92544019,-0.0633788183,-0.044995144,-0.0437634364
85363.269763,0.374676376,-0.241270105,-1.01664489,-0.0406074561,-0.0808743164,-0.047270555
85363.279790,0.324441432,-0.0816903681,-0.951650736,-0.0189066883,-0.107986629,-0.09710522
85363.289816,0.253658827,0.0839525409,-0.841426274,0.0322750062,-0.12942189,-0.148305297
85363.299843,0.347372189,-0.0298607391,-0.699180535,0.08670789,-0.139105663,-0.162283957
85363.309870,0.638393546,-0.421621923,-0.422649658,0.118700095,-0.123538606,-0.13506861
85363.319896,0.715798857,-0.746353424,-0.0978688381,0.121796288,-0.0853531361,-0.0707591325
85363.329923,0.542297636,-0.925822175,0.069748659,0.093081817,-0.0549744554,0.00382748526
85363.339950,0.270064822,-0.936988589,0.0831236889,0.0707213804,-0.0643378645,0.0716637895
85363.349976,0.278369344,-0.862776375,-0.127869424,0.0967306122,-0.12648885,0.124286518
85363.360003,0.469002208,-0.769079635,-0.360588047,0.11214792,-0.2181876,0.187144846
85363.370030,0.661116615,-0.621512115,-0.300533683,0.0764916539,-0.286936313,0.271862924
85363.380056,0.679615126,-0.209130899,-0.00797463214,-0.0036958612,-0.300909668,0.347016007
85363.390083,0.526873455,0.217229012,0.357118909,-0.132972628,-0.251667291,0.391975224
85363.400109,0.386214107,0.401115433,0.69963237,-0.196641609,-0.16350545,0.383558035
85363.410136,0.0991273868,0.480422414,0.756782829,-0.19656837,-0.0518508367,0.345691621
85363.420163,-0.0794150071,0.471259595,0.757100224,-0.188480616,0.0649788454,0.304916471
85363.430189,-0.165222601,0.381069986,0.731964614,-0.196155846,0.165019169,0.268195212
85363.440216,-0.28199875,0.347870385,0.703954909,-0.194511876,0.247972101,0.216473445
85363.450243,-0.408909266,0.502423744,0.441458988,-0.153288543,0.321499586,0.128772348
85363.460269,-0.58897149,0.657289093,0.117793436,-0.0727790594,0.374988377,0.0172130652
85363.470296,-0.648945554,0.724301166,-0.133183313,0.0115350233,0.400761902,-0.083404623
85363.480322,-0.494281866,0.586228328,-0.329379838,0.0719288588,0.39464435,-0.145799562
85363.490348,-0.279866195,0.384114103,-0.450092961,0.077263169,0.361378551,-0.143749461
85363.500375,-0.0949997489,0.183893363,-0.44611412,0.0319034085,0.320618063,-0.086518921
85363.510401,-0.0487650538,-0.0266921921,-0.38373336,-0.0181443095,0.288067311,-0.0254230797
85363.520428,-0.239731424,-0.136084952,-0.389313206,-0.0429319479,0.265050411,0.0278159082
85363.530455,-0.300375826,-0.321141441,-0.429440634,-0.0452944376,0.254819602,0.0655576959
85363.540481,-0.375124375,-0.395751788,-0.560243773,0.00124190561,0.231801659,0.0738838017
85363.550508,-0.483622233,-0.373410703,-0.718285632,0.0550643876,0.18124181,0.0695902556
85363.560535,-0.387853837,-0.357117594,-0.772144648,0.0892412737,0.098291792,0.0857172906
85363.570561,-0.219897427,-0.290197729,-0.665581047,0.100597255,-0.00683329348,0.109248184
85363.580588,-0.0628048495,-0.207408825,-0.417087932,0.0864220485,-0.107719429,0.133375093
85363.590614,0.0771400662,-0.126106725,-0.0580231499,0.0513937548,-0.18230018,0.169189274
85363.600641,0.182067426,-0.0354524947,0.348290291,-0.00915187877,-0.196761683,0.217575192
85363.610668,0.178092988,0.0567615325,0.715378221,-0.0737942532,-0.15837647,0.253519624
85363.620694,0.0633978652,0.184606187,0.917936683,-0.0988937467,-0.0806894079,0.271289825
85363.630721,0.0735403794,0.206170515,0.893374488,-0.0850575566,0.0235714838,0.257608622
85363.640748,0.0331041232,0.179465829,0.718449299,-0.0349539183,0.117934205,0.2044245
85363.650774,-0.0674718184,0.0904373729,0.510467642,0.0299174935,0.175142914,0.147183582
85363.660801,-0.0409777061,-0.0410161202,0.312049349,0.0527365208,0.192547724,0.122690491
85363.670828,0.0990200539,-0.215730955,0.223302559,0.0661157146,0.175986335,0.129685283
85363.680854,0.122710763,-0.296990238,0.038811669,0.0512827002,0.136626139,0.152162358
85363.690881,0.0520493362,-0.337419279,-0.0815560012,0.0298788771,0.0815612823,0.16860339
85363.700907,-0.0367498593,-0.245027485,-0.189186939,0.040156547,0.0169596542,0.182388976
85363.710934,-0.0195667059,-0.18320728,-0.292533917,0.040767476,-0.0496846214,0.186511278
85363.720961,0.00740254961,-0.149407156,-0.236250888,0.0532339998,-0.103165418,0.16614902
85363.730987,-0.0480721579,-0.0887459857,-0.19259704,0.0957870558,-0.132702798,0.134568989
85363.741014,0.0151009952,-0.00666281889,-0.121865215,0.133065715,-0.138281852,0.0906167105
85363.751041,0.127208969,-0.0546114418,0.0708352852,0.160143405,-0.124230497,0.0510461293
85363.761067,0.220864957,-0.0461013145,0.21875381,0.175431281,-0.0998306125,0.0217668042
85363.771094,0.311265359,-0.0117624071,0.283780701,0.167660177,-0.0713323876,0.0115916654
85363.781121,0.416526901,-0.119439084,0.295856924,0.148597002,-0.0548136011,0.0279740989
85363.791147,0.472709172,-0.306657792,0.221572375,0.108910844,-0.0511086136,0.0633805618
85363.801174,0.533931484,-0.248672417,0.155036832,0.0581645742,-0.058596354,0.0916209891
85363.811200,0.487089032,-0.0575390196,0.11494623,-0.0149783427,-0.0681059733,0.11211028
85363.821227,0.449426387,0.0876389013,0.142208331,-0.103906885,-0.0872628912,0.123896897
85363.831254,0.460952866,0.201147061,0.18472353,-0.178832516,-0.104236014,0.126011714
85363.841280,0.484963783,0.253605562,0.142739661,-0.229485318,-0.114979737,0.114878371
85363.851307,0.443299392,0.136060914,0.118823363,-0.252573073,-0.117208533,0.0897461176
85363.861334,0.43685365,-0.0409344333,0.143733348,-0.257614166,-0.110525601,0.064452216
85363.871360,0.488985038,-0.217825443,0.21833763,-0.261147916,-0.0956963226,0.0458321907
85363.881387,0.540872206,-0.406321258,0.316488793,-0.243970245,-0.0884208307,0.0361180454
85363.891414,0.51982898,-0.47565666,0.308622297,-0.226746783,-0.10411457,0.0119538549
85363.901440,0.485335795,-0.401393374,0.181545485,-0.15722017,-0.165096954,-0.038537018
85363.911467,0.460771263,-0.187904571,-0.0313935017,-0.0678095967,-0.245486602,-0.105582096
85363.921494,0.538337537,0.0918607568,-0.136149177,0.00456686225,-0.314065695,-0.174760103
85363.931520,0.475414303,0.33034598,-0.0539870263,0.0427786931,-0.331962913,-0.24399218
85363.941547,0.286217354,0.427757941,0.156938867,0.0529881902,-0.287897468,-0.303573221
85363.951573,0.197734768,0.400356651,0.402008437,0.043047674,-0.19088462,-0.353515476
85363.961600,0.0955181468,0.388967607,0.536342088,0.0491713472,-0.0676942468,-0.382579356
85363.971627,0.0752182861,0.265675136,0.571093668,0.0457193553,0.053625524,-0.380981177
85363.981653,0.190462183,0.0144373984,0.535126283,0.0342107713,0.150873527,-0.34895134
85363.991680,0.310467523,-0.200721748,0.410465299,0.0293403864,0.212396264,-0.313978434
85364.001707,0.262857631,-0.26722653,0.237526315,0.0609393232,0.222950384,-0.292839348
85364.011733,0.171727855,-0.215214311,0.0640893181,0.118942179,0.195286527,-0.282213598
85364.021760,0.0621168124,-0.306975553,-0.0488508324,0.168910801,0.151287109,-0.257392406
85364.031787,0.0898038608,-0.522440331,-5.8452189e-07,0.183226362,0.0996705145,-0.187467381
85364.041813,0.196332025,-0.548431828,0.153252872,0.154725209,0.0468123592,-0.0936567262
85364.051840,0.192349787,-0.275567803,0.289818812,0.113155924,0.0061504161,-0.0287509635
85364.061867,0.0256987606,0.121669985,0.330544791,0.0450770035,-0.0132685555,-0.029992532
85364.071893,-0.178813795,0.46233811,0.289079977,0.0117571307,-0.0196779855,-0.0690637678
85364.081920,-0.29469873,0.7061069,0.147038819,0.0199106652,-0.00858485419,-0.12759313
85364.091947,-0.389070081,0.810605458,-0.0329758024,0.0548611917,0.0269427802,-0.182947457
85364.101973,-0.43533466,0.648442281,-0.17471067,0.0972121134,0.0759904832,-0.210506916
85364.112000,-0.413160493,0.333112157,-0.315390476,0.113935433,0.10865096,-0.197268873
85364.122027,-0.397380192,-0.0368489906,-0.433432334,0.0991671383,0.105517484,-0.147172943
85364.132053,-0.372811788,-0.3053603,-0.529491492,0.0619830154,0.0530651957,-0.0774071813
85364.142080,-0.383715313,-0.222190214,-0.597588292,0.00545422733,-0.0400373191,-0.0182570443
85364.152106,-0.384540073,0.0749268654,-0.626731969,-0.0584347434,-0.158287525,-0.00163785368
85364.162133,-0.35383554,0.378974037,-0.61025079,-0.0669302195,-0.280756474,-0.00668214727
85364.172160,-0.243829726,0.478922238,-0.485767501,-0.0483496189,-0.3716214,-0.0288116857
85364.182186,-0.195575252,0.43215961,-0.107463765,-0.0343155563,-0.413286537,-0.0459608436
85364.192213,-0.153101627,0.340422699,0.239094003,0.00666356925,-0.401467443,-0.053941004
85364.202240,-0.0173189817,0.157888422,0.517904514,0.0469396189,-0.35020265,-0.0569144264
85364.212266,0.115666397,0.0140855893,0.805322111,0.053666763,-0.259636521,-0.0462268926
85364.222293,0.184894211,0.11738427,0.93637601,0.0290482361,-0.148280963,-0.0379127711
85364.232320,0.0515042695,0.370870225,1.02666711,-0.0469344147,-0.0450728238,-0.0587762445
85364.242346,-0.14993286,0.581849236,1.03967213,-0.130731046,0.0506371893,-0.0850786865
85364.252373,-0.193387606,0.736622303,0.756961108,-0.185524777,0.121351838,-0.115609162
85364.262400,-0.277706021,0.755243856,0.406069695,-0.205257744,0.171808094,-0.140642613
85364.272426,-0.253696383,0.462795791,-0.000453004465,-0.204349339,0.217608079,-0.146880001
85364.282453,-0.148377119,0.112455363,-0.417583607,-0.148068756,0.249992907,-0.15081802
85364.292480,-0.144975822,-0.0735720898,-0.766593444,-0.102996878,0.268470168,-0.156110778
85364.302506,-0.240657599,-0.0834314397,-0.962903952,-0.0673584566,0.25844577,-0.14221175
85364.312533,-0.39216286,-0.0909059403,-1.13429512,-0.0497458242,0.190231532,-0.121732652
85364.322560,-0.50350595,-0.16241043,-1.13372346,-0.0795532539,0.0750072002,-0.0897193402
85364.332586,-0.325519948,-0.199963989,-1.08548754,-0.0997496024,-0.0572866537,-0.0477622971
85364.342613,-0.0880947553,-0.0487257447,-1.01804482,-0.128069386,-0.172261968,-0.0567611195
85364.352640,-0.0260672286,0.160497874,-0.773785401,-0.132411942,-0.240623713,-0.101166666
85364.362666,0.185106684,0.121057041,-0.471132242,-0.0841874182,-0.255218118,-0.137325466
85364.372693,0.482899654,-0.0424843661,-0.106063835,0.00952628814,-0.211524695,-0.179342151
85364.382720,0.447478577,-0.0998192415,0.267844881,0.0734810382,-0.0984822959,-0.224379137
85364.392746,0.332811676,-0.0545605884,0.528709986,0.106082119,0.0529620908,-0.273405284
85364.402773,0.221427486,-0.0870154356,0.666300009,0.153120741,0.196450546,-0.297825396
85364.412800,0.230775087,-0.277119051,0.580742371,0.145956561,0.305788487,-0.284404397
85364.422826,0.352489971,-0.347950172,0.445519077,0.137992382,0.359356374,-0.259920895
85364.432853,0.251069103,-0.340549833,0.135528999,0.147788823,0.341315567,-0.223921075
85364.442880,0.216212236,-0.484597215,-0.184898887,0.123596936,0.26327616,-0.172225922
85364.452906,0.295813304,-0.482828525,-0.372996277,0.127369031,0.142880529,-0.116942957
85364.462933,0.378943422,-0.467276151,-0.551613307,0.122821957,0.0159265734,-0.0760647804
85364.472959,0.457848763,-0.478203349,-0.526601616,0.134262368,-0.0874059424,-0.0445704982
85364.482986,0.533942042,-0.248232856,-0.164725867,0.131762713,-0.154861137,-0.00720927864
85364.493014,0.550899496,-0.235573062,-0.166651282,0.12774241,-0.183606237,0.0304257162
85364.503040,0.558408265,-0.200657889,0.0939829366,0.121633917,-0.185551673,0.0442637652
85364.513067,0.585376095,-0.0787705352,0.254819395,0.12378522,-0.169644877,0.0436475128
85364.523094,0.618693039,0.0789199536,0.31228608,0.122627012,-0.14789325,0.0293263625
85364.533120,0.547717834,0.3027602,0.383736867,0.123760983,-0.135537252,-0.00500551239
85364.543147,0.39658685,0.457487382,0.397348044,0.129945651,-0.131338775,-0.0225839727
85364.553174,0.339307504,0.438235058,0.36686172,0.0831333995,-0.125005513,-0.0133236293
85364.563200,0.251604488,0.418041799,0.38961365,0.0299985409,-0.121917851,0.00348757487
85364.573227,0.154310966,0.34320232,0.325910701,0.0100900801,-0.132107094,0.0211302191
85364.583254,0.134297594,0.13067586,0.264620658,0.0128485821,-0.142490223,0.0235337205
85364.593280,0.147762092,0.0107675508,0.246765853,0.0404301435,-0.163081795,0.0166052412
85364.603307,0.21290523,-0.0892597805,0.245965058,0.0616483465,-0.192137673,0.0240485109
85364.613334,0.376374631,-0.132435198,0.320171281,0.0534191765,-0.213340431,0.0497975498
85364.623360,0.479754817,-0.145394194,0.464068879,-0.0136535987,-0.219229475,0.0709339976
85364.633387,0.36429808,-0.0629739042,0.63212243,-0.071267359,-0.21304296,0.0706066936
85364.643414,0.257573662,0.0744384973,0.687486005,-0.0873957276,-0.190886527,0.0484617092
85364.653440,0.242386615,0.233278229,0.666220514,-0.0762690455,-0.154515728,0.00969540328
85364.663467,0.265831349,0.197666306,0.713531131,-0.0768024772,-0.108238786,-0.019259816
85364.673494,0.262519448,0.0799728967,0.813897632,-0.0888112038,-0.0605748594,-0.0379565395
85364.683520,0.26463739,-0.00799063343,0.860235604,-0.109315939,-0.0251391046,-0.0423936285
85364.693547,0.296451017,-0.130560636,0.758441117,-0.115924045,-0.0228418633,-0.0648209155
85364.703574,0.265308641,-0.159201916,0.485731845,-0.101655096,-0.05118775,-0.0814334452
85364.713600,0.439448598,-0.184682321,0.244752759,-0.0867794752,-0.102034688,-0.0844755769
85364.723627,0.452526399,-0.207580309,0.178255211,-0.0639687032,-0.164030403,-0.0850052685
85364.733654,0.252377993,-0.169044242,0.217544434,-0.0626419187,-0.217487246,-0.0850497484
85364.743680,0.240424155,-0.10626038,0.310992533,-0.0704313964,-0.256715357,-0.0891427547
85364.753707,0.182124015,-0.00160765439,0.294080561,-0.0652717873,-0.289179802,-0.122819498
85364.763734,0.0924465938,0.24505766,0.291879252,-0.0690713152,-0.306640029,-0.179242551
85364.773760,0.025631431,0.465454123,0.294987155,-0.0578207932,-0.306511134,-0.22563003
85364.783787,0.0747612265,0.428036831,0.338233591,-0.0667189509,-0.279483765,-0.265128702
85364.793814,-0.0020567864,0.4255163,0.450629552,-0.0565685742,-0.22125189,-0.302835345
85364.803840,-0.0198079855,0.457379757,0.40869829,-0.0307260603,-0.135301292,-0.342993408
85364.813867,0.108713327,0.315479469,0.353324193,-0.0218486786,-0.0176910423,-0.409911722
85364.823894,-0.0257219588,0.333806569,0.255146143,0.0230516847,0.109556921,-0.51631248
85364.833920,-0.41045697,0.411935737,0.0348655617,0.0643674359,0.212037757,-0.617263854
85364.843947,-0.599509031,0.200881761,-0.227523392,0.101190962,0.256250471,-0.64822793
85364.853974,-0.519898099,-0.174339426,-0.505044448,0.124787107,0.228002623,-0.592437088
85364.864000,-0.280305792,-0.632660921,-0.667504124,0.104699939,0.140072763,-0.471260309
85364.874027,-0.0954203489,-0.994222561,-0.676646047,0.0575832948,0.0193063896,-0.319463581
85364.884054,0.0056800184,-1.07471656,-0.656501084,0.0238804612,-0.121874437,-0.169756904
85364.894080,0.0051846361,-0.779935448,-0.596944733,-0.0274120215,-0.249410018,-0.0632286072
85364.904107,0.108882473,-0.2524797,-0.46507718,-0.0711190253,-0.34006083,-0.0190867092
85364.914134,0.178815767,0.257935628,-0.28538989,-0.0485569872,-0.370880008,-0.0249941349
85364.924161,0.19979908,0.598501534,-0.12877894,-0.0406652428,-0.332444459,-0.0684505254
85364.934187,0.217490585,0.716611781,0.212113641,-0.027594449,-0.228732705,-0.123837084
85364.944214,0.0341158393,0.678669808,0.39518882,-0.00190533057,-0.100049034,-0.167100132
85364.954241,-0.0906107567,0.336428296,0.507847231,0.00414803438,0.0313460082,-0.159969524
85364.964267,-0.0930367417,-0.109009752,0.535913049,0.0193528198,0.126942843,-0.0935313851
85364.974294,-0.181422735,-0.43810997,0.333531697,-0.00649688672,0.162248105,0.0103534702
85364.984321,-0.252167127,-0.507682542,0.131216396,-0.0453827679,0.125078365,0.111748263
85364.994347,-0.354468102,-0.324755832,-0.231007142,-0.101983994,0.0264966581,0.185727164
85365.004374,-0.46310303,-0.0206517429,-0.495676316,-0.169821367,-0.0928121582,0.212898329
85365.014401,-0.539453937,0.278168487,-0.627497693,-0.152208552,-0.215946332,0.199694633
85365.024427,-0.595433452,0.431978555,-0.66683134,-0.0822885856,-0.294723183,0.175438568
85365.034454,-0.422894938,0.265043268,-0.44676294,-0.0610424206,-0.304279685,0.150461048
85365.044481,-0.33031237,0.034740474,0.030199908,-0.0492992103,-0.257374763,0.135517523
85365.054507,-0.37736514,0.0739496178,0.288376797,-0.0576857701,-0.17713502,0.111358121
85365.064534,-0.389243355,0.15462226,0.430647087,-0.0792627037,-0.0931788757,0.0723135173
85365.074561,-0.40752077,0.246430191,0.442247508,-0.0942832008,-0.021035973,0.0155825876
85365.084587,-0.440945559,0.305673676,0.299048413,-0.0934083462,0.0315105915,-0.0515359975
85365.094614,-0.366550901,0.146894954,0.187498256,-0.0753374696,0.0609523728,-0.100939766
85365.104641,-0.25659488,-0.0977602631,0.0149789579,-0.0453260429,0.0672896281,-0.115669444
85365.114667,-0.190305787,-0.330351387,-0.0586637859,-0.0407986678,0.057561636,-0.115808994
85365.124694,-0.221920896,-0.288003726,-0.041924248,-0.0420910977,0.0428513996,-0.111974567
85365.134721,-0.188791291,-0.174042269,-0.0595920067,-0.0457180589,0.0293582249,-0.091103375
85365.144747,-0.0580543488,-0.274487242,-0.03253858,-0.0138999419,0.0282588713,-0.0633819997
85365.154774,-0.0695759328,-0.351410541,-0.0568430002,0.0478004403,0.0474932902,-0.0494747087
85365.164801,-0.00938040729,-0.42183783,-0.0361760598,0.0880083144,0.0782072544,-0.0454850271
85365.174827,0.0383084687,-0.25419856,0.146840082,0.121758819,0.104315817,-0.0406391397
85365.184854,-0.113284507,0.134905168,0.22976328,0.106854975,0.110606208,-0.0256383531
85365.194881,-0.133459645,0.312812954,0.401702147,0.05077466,0.100694723,0.0343504176
85365.204908,0.0717136024,0.310181436,0.553192101,-0.0221637301,0.0944139212,0.123955667
85365.214934,0.277810833,0.301912132,0.606982728,-0.10565117,0.111815281,0.195328385
85365.224961,0.273846533,0.243933406,0.616052169,-0.122135334,0.158458158,0.230678126
85365.234988,0.180783487,0.125808692,0.433982369,-0.0891558155,0.223394811,0.223465756
85365.245014,0.0573763034,-0.00146583477,0.271132232,-0.0138418842,0.280653834,0.183895171
85365.255041,-0.0355430956,0.00580875934,0.147077398,0.0491903424,0.320273936,0.155614793
85365.265068,-0.122533178,0.0397947617,0.0809323163,0.0753921196,0.319504023,0.151606202
85365.275094,-0.210889141,0.0352067033,0.082393621,0.0626534224,0.280159026,0.169326887
85365.285121,-0.296690233,0.0205369574,0.0467027145,0.0355877168,0.207673371,0.196690068
85365.295148,-0.373533088,0.0843029618,-0.0344943903,0.0210476555,0.135556579,0.206811666
85365.305174,-0.351504942,0.235495905,-0.0861129338,0.00538267568,0.0815923959,0.168460816
85365.315201,-0.343226139,0.408543172,-0.0630155514,0.0316746794,0.0576034337,0.141018882
85365.325228,-0.153474771,0.273304754,0.0289905322,0.0475050434,0.0712875575,0.119506404
85365.335254,-0.091542923,0.0943572498,0.208173379,0.0545232706,0.107279912,0.0952633843
85365.345281,-0.171582894,0.0271027457,0.228580208,0.0881379545,0.151670814,0.0653869733
85365.355308,-0.168338505,-0.0355097779,0.162171507,0.107096203,0.177857667,0.0327288955
85365.365335,-0.169663105,-0.208517224,0.146412212,0.0831447914,0.169830635,0.00873328093
85365.375361,-0.100024482,-0.212406925,0.104487379,0.0601851493,0.131250218,0.0129437391
85365.385388,-0.0820236918,-0.158372772,0.0135188223,0.0317250118,0.0764229298,0.0188229345
85365.395415,-0.0649803486,-0.223041059,0.0267296015,-0.00121163041,0.0216153413,0.0394967869
85365.405441,0.0164356596,-0.269156329,0.0322463191,-0.0254975297,-0.0222029798,0.0582483709
85365.415468,0.0294397372,-0.243084241,0.062618661,-0.0246250778,-0.0482947677,0.0577759221
85365.425495,0.11633067,-0.207599233,0.0502478397,0.00542496704,-0.054203257,0.0365523957
85365.435521,0.275904488,-0.178723194,-0.0296329217,0.0767233819,-0.0452502407,0.00493587973
85365.445548,0.447366678,-0.132560504,-0.108414197,0.108268522,-0.0153828906,-0.0227681864
85365.455575,0.603223229,-0.0542236115,0.0354734644,0.110148452,0.0325870328,-0.0197590794
85365.465601,0.602859803,-0.0342905383,0.10143676,0.0979381204,0.0838243887,0.00701980339
85365.475628,0.580231572,-0.136929367,0.156429748,0.0406298265,0.127385437,0.0528376251
85365.485655,0.573873801,-0.107603246,0.0933896468,-0.0160797928,0.152792528,0.108610079
85365.495682,0.532770733,-0.0109901075,-0.164652802,-0.0723875389,0.142240554,0.165539414
85365.505708,0.528714589,0.0914887817,-0.414855643,-0.0957916677,0.102134421,0.219298244
85365.515735,0.574584579,0.166956695,-0.718472679,-0.0869297311,0.0389322788,0.244140208
85365.525762,0.556142475,0.191193603,-0.907476663,-0.0694889575,-0.03474354,0.247432142
85365.535788,0.498054955,0.203984622,-0.806513367,-0.0485154986,-0.10226053,0.236207187
85365.545815,0.431680668,0.312674495,-0.603347586,-0.0334776901,-0.149317265,0.217156529
85365.555842,0.406796182,0.372049133,-0.328983533,-0.0258235,-0.16977194,0.184382334
85365.565868,0.329199221,0.456344861,-0.0582031826,-0.0364583023,-0.179216832,0.146002725
85365.575895,0.190746955,0.532724263,0.149584412,-0.072163038,-0.183298662,0.106118694
85365.585922,0.0288220437,0.616479309,0.208210789,-0.0981882438,-0.192222387,0.0672943294
85365.595948,0.0318370076,0.549400965,0.208298467,-0.11759603,-0.201488316,0.0384094194
85365.605975,0.0825418704,0.386466146,0.229461667,-0.118544914,-0.201995656,0.0253580641
85365.616002,0.189701172,0.238158183,0.228657364,-0.113180779,-0.174617559,0.0181936286
85365.626029,0.320462299,0.174397366,0.23152386,-0.11899925,-0.129532099,0.00226472924
85365.636055,0.423604402,0.200732123,0.294166486,-0.133057266,-0.0686000362,-0.0127925165
85365.646082,0.576388998,0.22552272,0.277846635,-0.121981993,-0.0117926821,-0.0471009538
85365.656109,0.482732882,0.15499387,0.226904383,-0.0967567936,0.0303057674,-0.109314524
85365.666135,0.328561289,0.104153033,0.157217099,-0.068110235,0.0737808123,-0.160560131
85365.676162,0.349331178,0.0515707589,-0.00707505295,-0.0450874753,0.104493715,-0.202025294
85365.686189,0.321786826,-0.0145824329,-0.130855746,-0.0182177778,0.122665264,-0.230724052
85365.696215,0.21849947,-0.196046158,-0.263062907,-0.00999739859,0.131508544,-0.237640813
85365.706242,0.122266051,-0.31854726,-0.317547362,-0.0215885416,0.13698481,-0.238826454
85365.716269,0.118176955,-0.357235302,-0.355373527,-0.0151924267,0.149749339,-0.222654134
85365.726296,0.239326277,-0.468751192,-0.390265977,-0.0432999618,0.183193579,-0.19666408
85365.736322,0.246672621,-0.587080342,-0.365665204,-0.0320643522,0.235782757,-0.17890878
85365.746349,-0.103992874,-0.731735846,-0.512955368,0.00735229673,0.272118926,-0.175281823
85365.756376,-0.427104519,-0.840553583,-0.660097063,0.0147127416,0.268583596,-0.154159233
85365.766402,-0.298809782,-0.820369239,-0.77946637,0.0280770157,0.198839381,-0.108154185
85365.776429,-0.102759533,-0.635211701,-0.88403792,0.0358731523,0.0794959515,-0.0511678681
85365.786456,0.0212516815,-0.579631122,-0.881505771,0.0230471026,-0.0570384599,0.00486503961
85365.796482,0.106479649,-0.480500666,-0.664978405,0.021933103,-0.158670545,0.065505214
85365.806509,0.124626935,-0.213811093,-0.320796719,-0.0178156421,-0.188225508,0.110151254
85365.816536,0.0223470756,0.117566057,0.0272638545,-0.0398642197,-0.151491195,0.124748565
85365.826563,-0.082445132,0.295941314,0.166257899,-0.0263148528,-0.0704959407,0.102952458
85365.836589,-0.114989411,0.346663201,0.227509948,0.0472882614,0.0180142149,0.0433842018
85365.846616,-0.0977585096,0.357536988,0.227172094,0.128323466,0.0914346427,-0.0144175775
85365.856643,-0.0330712987,0.273744168,0.310398659,0.20520547,0.141972646,-0.0539969429
85365.866669,-0.102875853,0.0691900022,0.447474303,0.236417443,0.157633364,-0.0482578352
85365.876696,-0.139009096,-0.166942959,0.647534518,0.200310037,0.15279147,0.0210240372
85365.886723,-0.162446816,-0.208034044,0.765507402,0.13316749,0.140301779,0.116896503
85365.896749,-0.18959826,-0.0494384961,0.810689191,0.0399674959,0.120790131,0.206502825
85365.906776,-0.196744077,0.217090042,0.797777102,-0.0291998554,0.106164582,0.277203083
85365.916803,-0.163971213,0.38892501,0.690121614,-0.0620752461,0.0973793492,0.323594034
85365.926830,-0.139416946,0.409362087,0.729397394,-0.114771746,0.103911281,0.306148201
85365.936856,-0.329191659,0.605109116,0.75067399,-0.0825605467,0.120432466,0.241125241
85365.946883,-0.490052558,0.790510326,0.529120905,-0.0663943589,0.144548178,0.134285882
85365.956910,-0.500272266,0.908818287,0.4271043,-0.0130094336,0.168148577,0.00059466064
85365.966936,-0.468131306,1.03168954,0.250800807,0.0428746045,0.213342428,-0.124648735
85365.976963,-0.329327524,0.906967472,0.202391873,0.071148321,0.290550679,-0.216598645
85365.986990,-0.300699468,0.494052222,0.267087341,0.132967755,0.377429396,-0.257996142
85365.997017,-0.370733374,0.136813486,0.159893625,0.125423551,0.424607813,-0.260102183
85366.007043,-0.32710645,-0.23136845,0.204367557,0.119145937,0.432912886,-0.197490454
85366.017070,-0.102510051,-0.742475048,0.00971533833,0.0825112313,0.389810145,-0.096047461
85366.027097,-0.021417357,-1.01940201,-0.065595631,0.0776150078,0.300196379,0.0190130826
85366.037123,-0.0665716181,-0.936508185,-0.0934182884,0.0433449186,0.193599612,0.105954908
85366.047150,-0.0576669021,-0.556578602,0.00171674079,-0.0134390015,0.0935433283,0.179364949
85366.057177,0.0780112412,-0.147686835,0.14551614,-0.0439415164,0.0238670427,0.214890718
85366.067203,0.20158611,0.19703663,0.314716522,-0.0410911366,-0.0134169441,0.195762292
85366.077230,0.269112088,0.377428561,0.516440287,-0.0298696402,-0.00283913547,0.158822387
85366.087257,0.287583966,0.552258181,0.736135762,0.00316021452,0.0405677259,0.0930590853
85366.097284,0.116691557,0.71732066,0.885351341,0.0306070186,0.116773285,0.0148329847
85366.107310,0.0328980245,0.781964762,0.997784711,0.0513024442,0.212437212,-0.0596087575
85366.117337,-0.0473373591,0.654083575,0.959820014,0.0691442937,0.29372251,-0.102681123
85366.127364,0.0164735256,0.301183306,0.781564803,0.0858420432,0.343182206,-0.092987217
85366.137390,0.153623312,-0.147376965,0.584132014,0.0850494877,0.346508741,-0.0452625751
85366.147417,0.239599906,-0.48770731,0.450949286,0.0100783091,0.324404508,0.0292494744
85366.157444,0.341816126,-0.566966432,0.346055079,-0.0589138083,0.281099379,0.101024598
85366.167471,0.268506815,-0.532452022,0.0931961701,-0.0959131047,0.229782388,0.173912123
85366.177497,0.386598248,-0.599818243,-0.114582657,-0.182782486,0.196392477,0.249603152
85366.187524,0.616600086,-0.586330473,-0.217296012,-0.237314969,0.179351434,0.304116189
85366.197551,0.539922029,-0.367157342,-0.513441105,-0.251258999,0.171842918,0.310632408
85366.207577,0.386079631,-0.14957411,-0.772342801,-0.210288137,0.137272701,0.272405148
85366.217604,0.246193003,-0.116751818,-0.935812531,-0.12639457,0.0364808403,0.219051898
85366.227631,0.195191824,-0.221466942,-0.991508115,-0.0493847542,-0.10296227,0.213650748
85366.237658,0.483666291,-0.410086529,-0.858480285,-0.0383747108,-0.229990274,0.25824964
85366.247684,0.595998758,-0.595326485,-0.544753943,-0.0436845236,-0.321679682,0.313304901
85366.257711,0.454853965,-0.59383325,-0.279463423,-0.0590182059,-0.35786432,0.37743035
85366.267738,0.583660304,-0.720641329,-0.00355915379,-0.102806434,-0.347868681,0.446783334
85366.277764,0.619170009,-0.780361711,0.265880303,-0.11480584,-0.304768354,0.46399349
85366.287791,0.433020465,-0.590632628,0.409739908,-0.0985552296,-0.233805507,0.407949924
85366.297818,0.180161465,-0.303928732,0.422559057,-0.068256177,-0.153016925,0.312473983
85366.307845,0.0231412947,-0.218958612,0.424274629,-0.0155772539,-0.0935011208,0.20523569
85366.317871,0.0288366385,-0.240952198,0.398235932,0.0435486622,-0.0570898131,0.116238251
85366.327898,0.211868763,-0.354355071,0.286005976,0.0779111609,-0.0454637855,0.0654885173
85366.337925,0.237255152,-0.539133327,0.31166298,0.104110807,-0.0471900441,0.0137443636
85366.347951,0.139936878,-0.385886446,0.341596346,0.0837554634,-0.0378069282,-0.00771592092
85366.357978,0.246461919,-0.25150238,0.411733127,0.0229879916,-0.0235811211,0.00278146099
85366.368005,0.282184445,-0.374232979,0.434299764,-0.025223745,-0.00821228512,0.0198613778
85366.378032,0.294332764,-0.513586359,0.334240138,-0.0574109741,0.0162416585,0.0418460369
85366.388058,0.339540582,-0.586419394,0.189617732,-0.0932920128,0.042235177,0.070604451
85366.398085,0.232762772,-0.496733424,0.0597930822,-0.115364559,0.0619316474,0.0905952081
85366.408112,0.120690728,-0.238617617,-0.0978618238,-0.125808403,0.0717669651,0.0815079659
85366.418138,-0.0232721728,-0.0731606594,-0.240085936,-0.129808471,0.0515735485,0.0584210195
85366.428165,-0.0487151685,0.0398269104,-0.390667543,-0.113325909,0.0112639451,0.0278332829
85366.438192,-0.0238036858,0.365660381,-0.502872365,-0.0577017926,-0.0420789048,-0.0497704297
85366.448219,-0.200890237,0.675247067,-0.435993708,0.0155425938,-0.0795221552,-0.158642322
85366.458245,-0.349998483,0.809500639,-0.256471254,0.0587531812,-0.0928432867,-0.266015112
85366.468272,-0.438790573,0.720528516,-0.00189092831,0.11129681,-0.0872921869,-0.348889768
85366.478299,-0.652014733,0.497924899,0.316370135,0.152121753,-0.0737257823,-0.411561668
85366.488326,-0.734575381,0.318753157,0.567896334,0.154968932,-0.0544253215,-0.453570366
85366.498352,-0.571703398,0.220547489,0.678418317,0.141837418,-0.0305990838,-0.489453793
85366.508379,-0.257530864,0.21570151,0.695129213,0.157205984,-0.00378930662,-0.527234197
85366.518406,0.013291498,0.244940975,0.60130702,0.147751763,0.0354779363,-0.57588613
85366.528432,0.244247714,0.219424549,0.594604308,0.170445621,0.0764509365,-0.600785375
85366.538459,0.382578491,0.0867787773,0.540658783,0.183104962,0.120185636,-0.599182129
85366.548486,0.283171191,-0.130888041,0.492673627,0.195698515,0.168296173,-0.580324054
85366.558513,0.142502838,-0.228246153,0.310013459,0.217004612,0.214215741,-0.548737049
85366.568539,0.0162839761,-0.230411149,0.117709849,0.201071978,0.23537907,-0.503128052
85366.578566,-0.0770404783,-0.242934239,0.0305535437,0.174446225,0.21201703,-0.420945048
85366.588593,-0.0109008583,-0.238640122,-0.106014735,0.114042267,0.155229107,-0.333462864
85366.598620,0.0916573797,-0.154132139,-0.210246679,0.0604978204,0.0817476958,-0.254381359
85366.608646,0.189269393,0.022137013,-0.360008785,0.0359400101,0.00415916368,-0.202131733
85366.618673,0.253928182,0.238790636,-0.519118566,0.00207445538,-0.0462065376,-0.179902062
85366.628700,0.22524425,0.519035637,-0.585180061,0.00151013152,-0.0761764199,-0.18826519
85366.638726,0.111975936,0.664994991,-0.565122777,0.0114445211,-0.0821538866,-0.22355713
85366.648753,0.0673146825,0.542096268,-0.45351066,0.0404492766,-0.0652092621,-0.248055294
85366.658780,0.138251245,0.269076396,-0.324757439,0.0523320325,-0.0435447097,-0.241376862
85366.668807,0.0674074479,0.0118791653,-0.0708995826,0.044671718,-0.0265265778,-0.215533555
85366.678833,-0.100642331,-0.130735554,0.0755897863,0.0421451777,-0.0218572579,-0.169934645
85366.688860,-0.0236985632,-0.273578602,0.127801035,0.0125390803,-0.0359781384,-0.0962638929
85366.698887,0.0526783913,-0.316875892,0.187594702,-0.00922879949,-0.0625002906,-0.0259793475
85366.708913,-0.00906917678,-0.134527421,0.116746557,-0.0282403082,-0.0848593935,0.016782498
85366.718940,-0.0695677038,0.097887835,0.183494865,-0.0578525253,-0.0956555828,0.0450761877
85366.728967,-0.141250728,0.293841857,0.203953716,-0.080566898,-0.086727865,0.0477694422
85366.738994,-0.258901349,0.533094704,0.183828043,-0.0768437982,-0.059703175,0.0118841454
85366.749020,-0.440589439,0.756923845,0.132028297,-0.0612531155,-0.0232474282,-0.0290992409
85366.759047,-0.448864954,0.704731958,0.178801739,-0.0792164057,0.0330603197,-0.0471746475
85366.769074,-0.499826787,0.492876748,0.169438283,-0.0657179132,0.087154448,-0.0491925254
85366.779101,-0.637638124,0.232995759,-0.027411154,-0.0494417325,0.130579695,-0.0415790789
85366.789127,-0.616240605,-0.0411878235,-0.153628719,-0.0530015789,0.155406743,-0.00870342087
85366.799154,-0.402342856,-0.297522299,-0.388027258,-0.0532902665,0.14933154,0.0355346128
85366.809181,-0.199926817,-0.459150201,-0.647626288,-0.0473551452,0.114342123,0.0843841806
85366.819208,0.0507060866,-0.602368804,-0.760443105,-0.0355506837,0.0642145127,0.140936136
85366.829234,0.181536571,-0.516249587,-0.733157038,-0.0328750052,0.0150698684,0.179476872
85366.839261,0.22756566,-0.267734114,-0.704489747,-0.0563819297,0.000333000149,0.216547549
85366.849288,0.341125952,-0.161663996,-0.510242017,-0.109605476,0.00851076841,0.250193924
85366.859314,0.285608026,-0.202534716,-0.252547359,-0.119300976,0.0153734684,0.286397994
85366.869341,0.152427152,-0.337780879,-0.201567113,-0.141637161,0.00752513297,0.351543158
85366.879368,0.257870307,-0.42854405,-0.109362877,-0.17008692,-0.0152177298,0.424786478
85366.889395,0.247687351,-0.302580679,-0.0521703322,-0.145752817,-0.0435787998,0.460135698
85366.899421,0.173943138,-0.00725121324,-0.085090605,-0.0866266564,-0.0593535006,0.444430232
85366.909448,0.253407172,0.293352101,0.045942836,-0.0564501062,-0.0388636701,0.39533484
85366.919475,0.25879787,0.515097786,0.21497663,-0.0092743393,-0.000117074116,0.336792171
85366.929502,0.148399358,0.506879774,0.235789701,0.0112860631,0.0587230735,0.310368299
85366.939528,0.159629147,0.372798855,0.250701438,0.0326651223,0.133244723,0.315042406
85366.949555,0.0901497425,0.133528984,0.188590727,0.0507852696,0.195920348,0.316943109
85366.959582,-0.109162121,-0.0371567414,0.128947867,0.0523946173,0.245619997,0.321567953
85366.969609,-0.102415971,-0.103436921,-0.00739244834,0.0392186306,0.268926382,0.326558977
85366.979635,-0.0797262833,-0.0149835611,-0.169711254,0.0558902845,0.259618878,0.288771659
85366.989662,-0.150522077,0.123794868,-0.318556247,0.055727832,0.230105489,0.237632856
85366.999689,-0.0418368666,0.0849257699,-0.425877388,0.064374581,0.182946756,0.215020761
85367.009715,0.0845302038,-0.135110554,-0.465294037,0.0884359702,0.140899435,0.214353099
85367.019742,0.113541834,-0.306148893,-0.448656791,0.100861751,0.113913357,0.213143229
85367.029769,0.0673130431,-0.387261023,-0.378652696,0.102511846,0.099181816,0.214249507
85367.039796,-0.10142169,-0.270549025,-0.324130832,0.113686465,0.0969740525,0.196244672
85367.049822,-0.184782549,-0.175939335,-0.362487743,0.116680391,0.0873027816,0.186010674
85367.059849,-0.00772345213,-0.317859716,-0.334525969,0.11032822,0.056373097,0.202615216
85367.069876,0.316448022,-0.499538471,-0.287053439,0.103184558,0.0209320169,0.236709803
85367.079903,0.561842294,-0.552871856,-0.266390006,0.0865435302,-0.0105936835,0.258209765
85367.089929,0.497952006,-0.431842434,-0.19863632,0.0804414302,-0.0345237851,0.264253795
85367.099956,0.322604097,-0.33103272,-0.148420045,0.0662209466,-0.0643748939,0.2647385
85367.109983,0.244498529,-0.351200041,-0.0576455488,0.07776016,-0.10408289,0.266940385
85367.120010,0.275769865,-0.367625471,-0.082099022,0.0967178717,-0.148211464,0.28138566
85367.130036,0.389866931,-0.383899949,0.00404196887,0.0956920236,-0.190330684,0.313140661
85367.140063,0.470497451,-0.394541243,0.203076348,0.0753734335,-0.220895246,0.35177514
85367.150090,0.415789161,-0.321912206,0.407805725,0.0497032292,-0.238113657,0.368726403
85367.160117,0.305289901,-0.110545876,0.5804203,0.020363979,-0.237488076,0.361824036
85367.170143,0.204670303,0.142659655,0.739612498,-0.00023850007,-0.232738331,0.33161819
85367.180170,0.102958261,0.296033011,0.829149561,-0.00418983214,-0.210292935,0.29426524
85367.190197,0.103967849,0.36213608,0.843975374,0.00939308852,-0.181262359,0.251226962
85367.200224,0.0716788051,0.387371936,0.762448599,0.0420785993,-0.155537814,0.206791326
85367.210250,0.0398663474,0.503648391,0.645560588,0.0295620058,-0.119359843,0.155707896
85367.220277,0.0379767525,0.599105711,0.555595655,0.0325026698,-0.0812257752,0.108783528
85367.230304,-0.0172097675,0.583597834,0.421284215,0.0457332544,-0.0415651836,0.0772218779
85367.240330,-0.0689702768,0.511138016,0.307149302,0.0184052251,-0.0185850319,0.0452961624
85367.250357,-0.110214653,0.481044053,0.261660639,-0.0253377296,-0.024488993,0.0094151292
85367.260384,-0.0509312371,0.556962267,0.12340017,-0.0494968593,-0.067779474,-0.0258557759
85367.270411,0.0662569627,0.694055666,0.0198369194,-0.0487165526,-0.127356514,-0.0755562186
85367.280437,0.136932929,0.685299893,-0.0291401698,-0.0423433408,-0.176267326,-0.132932961
85367.290464,0.116635388,0.543708891,0.078387308,-0.0398562141,-0.200017139,-0.186230794
85367.300491,0.0974962419,0.432268624,0.251954653,-0.0325932428,-0.19630681,-0.20733422
85367.310518,0.189428712,0.155280067,0.376083722,-0.0345946066,-0.18503046,-0.209646642
85367.320544,0.297617266,-0.262179622,0.500364766,-0.0257165786,-0.172417089,-0.192443639
85367.330571,0.473770043,-0.63240753,0.583578471,-0.0302325021,-0.16037187,-0.147214115
85367.340598,0.576654079,-0.866826892,0.716844786,-0.0599160939,-0.165535748,-0.103637077
85367.350625,0.395225499,-0.884839446,0.835869225,-0.0439352617,-0.183773071,-0.0577588007
85367.360651,0.274970349,-0.542584782,0.820522603,-0.0542600714,-0.196751714,-0.0403979234
85367.370678,0.229582699,-0.104576446,0.830830062,-0.0656621307,-0.19906947,-0.0543949604
85367.380705,0.0271859304,0.141237367,0.795850518,-0.0364717543,-0.193328753,-0.0973882377
85367.390732,-0.304525931,0.249694892,0.660491615,0.0074395109,-0.195823342,-0.143728837
85367.400758,-0.385527367,0.217186926,0.596516863,0.00945072994,-0.20531325,-0.165829882
85367.410785,-0.321118608,0.147192841,0.57720426,0.00253450032,-0.237424046,-0.150841609
85367.420812,-0.192500375,0.178691557,0.486413982,-0.0221996084,-0.277352303,-0.141446248
85367.430839,-0.059783401,0.507426156,0.497321745,-0.0515449792,-0.290883809,-0.181118026
85367.440865,-0.0527160199,0.887940408,0.438890599,-0.054495763,-0.26516965,-0.259096205
85367.450892,0.0254497543,0.862196894,0.398964247,-0.0479979143,-0.178436622,-0.350575209
85367.460919,0.228659666,0.638845747,0.357831441,0.0071106106,-0.0484176464,-0.430030107
85367.470946,0.384244524,0.348630702,0.184494398,0.0674032494,0.106121868,-0.486689389
85367.480972,0.361080945,0.0759965404,-0.0061737202,0.109753631,0.24226959,-0.502299547
85367.490999,0.328412126,-0.118787781,-0.249480957,0.129353702,0.320239484,-0.461270034
85367.501026,0.432415631,-0.318092209,-0.487573089,0.100999825,0.324749023,-0.368558228
85367.511053,0.514059639,-0.46010414,-0.661037559,0.0534152575,0.268015683,-0.249710932
85367.521079,0.516686079,-0.308308701,-0.823200882,-0.0268558804,0.175883636,-0.120868802
85367.531106,0.446690605,-0.0691316962,-0.832069833,-0.0985263363,0.0623205863,-0.0285561755
85367.541133,0.230393431,0.213914919,-0.798055335,-0.107923031,-0.0454373024,0.0122112269
85367.551160,0.0827685188,0.475706564,-0.680861034,-0.0868936479,-0.116539702,0.0181466155
85367.561186,0.0299490019,0.546779384,-0.346233358,-0.0582492203,-0.129797459,0.0175237004
85367.571213,-0.151999949,0.499094673,0.0277308875,-0.0500749126,-0.0941297412,0.0153060872
85367.581240,-0.320431283,0.47155507,0.350744113,-0.0613304973,-0.0322402753,0.0241363309
85367.591267,-0.334208464,0.39810478,0.517099043,-0.0877543837,0.0318026245,0.0414055958
85367.601293,-0.318408034,0.322441929,0.577300122,-0.116385758,0.0875705481,0.0550865233
85367.611320,-0.345019452,0.351601899,0.46344461,-0.105663873,0.123550393,0.0545208678
85367.621347,-0.408319045,0.324215149,0.319302097,-0.0870177522,0.142099306,0.0274389163
85367.631374,-0.562806609,0.229272866,0.252648481,-0.0614580624,0.146811232,0.00218895311
85367.641400,-0.690104955,0.172612091,0.117212421,-0.0422505476,0.146030664,-0.0139205083
85367.651427,-0.701831049,0.00221994107,0.0646662412,-0.0319033675,0.132335097,-0.0094855465
85367.661454,-0.712808662,-0.235928232,0.0022217677,-0.0270785205,0.11453186,0.0201770086
85367.671481,-0.61175323,-0.452249043,-0.071204703,-0.0339500047,0.0985987037,0.0734844357
85367.681507,-0.480800307,-0.60274604,-0.0666167907,-0.0516544357,0.0891087949,0.125566274
85367.691534,-0.588766322,-0.466438969,-0.0641214668,-0.0718616992,0.091643326,0.145992726
85367.701561,-0.732962685,-0.204491184,-0.144036715,-0.0912913233,0.091678746,0.138776898
85367.711588,-0.771100546,-0.0752928491,-0.312654329,-0.0921746939,0.0707068816,0.106162757
85367.721615,-0.643969739,0.00964220003,-0.469048421,-0.061492417,0.0418480672,0.0592021719
85367.731641,-0.363419325,0.0933552331,-0.649606649,0.000848186843,0.0179033205,-0.000411091372
85367.741668,-0.0899498999,-0.162082075,-0.664767977,0.0533129945,0.019276714,-0.0196921118
85367.751695,0.0988457203,-0.535227113,-0.525537201,0.0890827104,0.0454348139,0.0150807835
85367.761722,0.0631934287,-0.841600243,-0.444332498,0.0958692431,0.081424512,0.089735046
85367.771748,-0.115080852,-1.06718843,-0.333165202,0.0599344112,0.0776273757,0.187101275
85367.781775,-0.278649257,-0.962538114,-0.307621596,0.0180295706,0.0255636387,0.283598781
85367.791802,-0.280078668,-0.434843223,-0.501415736,-0.0276007652,-0.0743672177,0.322881997
85367.801829,-0.213975855,0.202850285,-0.631004824,-0.0585328452,-0.191211015,0.304523528
85367.811855,-0.0917386648,0.582426525,-0.625343145,-0.0314639471,-0.278705716,0.244756594
85367.821882,-0.164641587,0.867833439,-0.559969048,0.0408419445,-0.298492193,0.166906536
85367.831909,-0.22072248,0.915503464,-0.291440276,0.0766904876,-0.227925092,0.111560717
85367.841936,-0.166100334,0.665774889,0.145131525,0.0949251503,-0.0898356587,0.071441263
85367.851962,-0.267257656,0.481051505,0.408917485,0.0987710208,0.070174247,0.0327463299
85367.861989,-0.379064199,0.384679409,0.445501542,0.107573837,0.205340862,0.0113140084
85367.872016,-0.333947877,0.145626907,0.232369663,0.108096614,0.280872643,0.0232441705
85367.882043,-0.246664402,-0.0780428785,-0.0131429747,0.105194032,0.291880816,0.0553499088
85367.892069,-0.228485515,-0.0794184777,-0.287125336,0.0857755989,0.245911196,0.103161909
85367.902096,-0.190276817,-0.168496107,-0.435504464,0.0646601915,0.146308705,0.167837307
85367.912123,-0.180700905,-0.327493586,-0.479320809,0.0386144742,0.0060256226,0.242111266
85367.922150,-0.174454193,-0.377747563,-0.339515448,-0.000454098947,-0.164275795,0.317519486
85367.932177,-0.0585080108,-0.419772568,-0.118628718,-0.00915517844,-0.333799332,0.376983881
85367.942203,0.175743667,-0.499208874,0.0846674112,-0.00608375482,-0.48273313,0.417557895
85367.952230,0.454339184,-0.486091838,0.305664032,-0.0444223545,-0.586949825,0.414984226
85367.962257,0.642676192,-0.231416673,0.566225185,-0.0855724514,-0.618377805,0.364956737
85367.972284,0.68647902,0.0737137632,0.67796882,-0.107035935,-0.587341309,0.279542506
85367.982310,0.695073538,0.262503666,0.715088882,-0.0673170164,-0.511473179,0.160947978
85367.992337,0.649148968,0.312596534,0.660609689,0.0201438535,-0.393733501,0.04551965
85368.002364,0.646722033,0.186743199,0.604725304,0.0648785681,-0.258171141,-0.0233180039
85368.012391,0.689479736,-0.193203555,0.737681238,0.0679571852,-0.136524066,-0.0166609008
85368.022417,0.793681211,-0.680826328,0.742557319,0.024392128,-0.0515865423,0.0535373613
85368.032444,0.844005989,-0.892667144,0.602058715,-0.0407740884,-0.0163060483,0.147795156
85368.042471,0.831274517,-0.769906806,0.356276613,-0.0959838182,-0.0226787254,0.224326953
85368.052498,0.814058667,-0.464170805,-0.000451835421,-0.120255068,-0.0539642125,0.253472865
85368.062524,0.649582975,-0.010046543,-0.247647312,-0.0978933051,-0.0916652456,0.233666658
85368.072551,0.578318286,0.262763413,-0.334554611,-0.0742827803,-0.100283504,0.176438257
85368.082578,0.441874875,0.459282668,-0.263569688,-0.0626988336,-0.0799710453,0.103825301
85368.092605,0.124971438,0.662034168,-0.200579271,-0.0461941548,-0.0476578474,0.0187447593
85368.102632,-0.0705406131,0.635312677,-0.184971952,-0.0179478712,-0.0151001681,-0.04361156
85368.112658,0.0898537278,0.363470762,-0.24713001,0.0205150973,0.00705839694,-0.0732448176
85368.122685,0.299208353,0.0787594293,-0.26601182,0.0482567176,0.0228991453,-0.0931229219
85368.132712,0.211256367,-0.0301408712,-0.321280119,0.0663329214,0.0203307923,-0.0951290801
85368.142739,0.139627593,-0.0798321731,-0.445280008,0.0670746118,-0.0122569781,-0.0749071613
85368.152765,0.258538635,-0.132773197,-0.529269958,0.0696741268,-0.074738197,-0.0679595098
85368.162792,0.31405024,-0.0278662774,-0.564082328,0.0593586341,-0.156904966,-0.0951783434
85368.172819,0.359251099,0.0939491074,-0.514466357,0.0660484955,-0.242272332,-0.107702397
85368.182846,0.590840498,0.0419851844,-0.433162869,0.0505188033,-0.305835068,-0.100094274
85368.192872,0.749489968,-0.0216965027,-0.105842301,0.0289533231,-0.331810743,-0.0981826559
85368.202899,0.615045769,0.0200411367,0.246627321,-0.0103610577,-0.30976963,-0.107090667
85368.212926,0.521588975,0.0802634772,0.540948121,-0.0507622771,-0.252731353,-0.108976185
85368.222953,0.5356232,0.0250732857,0.732887574,-0.0755792111,-0.181635082,-0.0978218019
85368.232980,0.497919419,-0.103469361,0.802860689,-0.0872145593,-0.120207943,-0.111964516
85368.243006,0.322127748,-0.134198335,0.829046685,-0.0863463655,-0.0826949254,-0.124738902
85368.253033,0.210545296,-0.190730223,0.692720399,-0.0789675489,-0.0747848004,-0.110095777
85368.263060,0.15433336,-0.312658421,0.594484481,-0.0782982931,-0.0844286382,-0.0748387203
85368.273087,-0.0660756696,-0.239141203,0.576125817,-0.0855503529,-0.084208928,-0.0543797836
85368.283113,-0.405431689,0.006909341,0.5841665,-0.102972746,-0.0613579489,-0.0598480552
85368.293140,-0.576619227,0.201207413,0.490382301,-0.0947694108,-0.0162216257,-0.0733196512
85368.303167,-0.535801698,0.206388907,0.324942733,-0.0450804234,0.0236634724,-0.122887999
85368.313194,-0.492346733,0.217661631,0.165310974,0.0265663322,0.0567340739,-0.193606645
85368.323221,-0.29698695,0.101903427,0.1021943,0.0762423426,0.0752679184,-0.232285023
85368.333247,0.0335446153,-0.164365217,0.15601766,0.069734104,0.0783452019,-0.217208326
85368.343274,0.196108409,-0.276315991,0.200676302,0.0319941826,0.0644560158,-0.158806011
85368.353301,0.226929152,-0.21682803,0.123501292,-0.0546024926,0.052972205,-0.0803759098
85368.363328,0.0996085214,-0.0535411091,0.0510679239,-0.112580575,0.03627019,-0.02236587
85368.373354,-0.196729318,0.121113593,-0.0412935489,-0.161808312,0.0198573917,0.00707377819
85368.383381,-0.300664835,0.137443381,-0.0817687671,-0.171801284,0.0059498325,0.0224644523
85368.393408,-0.330635684,0.0836776695,-0.147339848,-0.135937303,-0.0029877359,-0.00689609908
85368.403435,-0.4350348,-0.013962036,-0.14197686,-0.0866821334,-0.00286523066,-0.0759004653
85368.413461,-0.567995556,0.0319264395,-0.0350853419,-0.0319847986,0.00466725416,-0.148588523
85368.423488,-0.542979992,0.099145507,0.0333738618,-0.00992770027,0.0145960515,-0.218096226
85368.433515,-0.522610573,0.174970052,0.085342534,-0.016011158,0.0384710245,-0.25991264
85368.443542,-0.365231196,0.0908870894,0.0327180283,-0.0305219237,0.0627950057,-0.267020613
85368.453569,-0.243317173,-0.14149799,-0.0729956781,-0.0389894433,0.0811167508,-0.261014372
85368.463595,-0.223756148,-0.328530309,-0.295107566,-0.0256475396,0.0772431865,-0.237887502
85368.473622,-0.12382972,-0.465570954,-0.488513,0.013676961,0.0583696328,-0.195311546
85368.483649,0.0679761694,-0.612411621,-0.574678541,0.0341822356,0.0286026802,-0.133741125
85368.493676,0.119823115,-0.737075381,-0.478477344,0.035736192,-1.59145566e-05,-0.0546769425
85368.503703,0.00412467871,-0.585454567,-0.421900301,0.0006610282,-0.0242054071,0.0116062118
85368.513729,-0.136113959,-0.30107948,-0.417608741,-0.0346679315,-0.0611029677,0.0621018782
85368.523756,-0.186810712,-0.0511512914,-0.493328292,-0.0353816599,-0.105652064,0.0950196087
85368.533783,-0.0669219842,0.120818117,-0.470021066,-0.0175424758,-0.150818482,0.0880786106
85368.543810,-0.033362829,0.306405352,-0.340218043,0.0367615074,-0.172050536,0.0589082167
85368.553836,-0.00805602681,0.344450859,-0.10193711,0.0677625686,-0.162514016,0.0217683017
85368.563863,-0.137550714,0.415084776,0.203140646,0.0852139965,-0.118907154,-0.017948484
85368.573890,-0.299372823,0.556917551,0.398906964,0.0840712339,-0.0627653152,-0.0467569605
85368.583917,-0.287011792,0.486425819,0.533183332,0.0613438152,-0.0212314557,-0.054988265
85368.593944,-0.163308109,0.309480814,0.612005524,0.0643878132,-0.00535715045,-0.0585992411
85368.603970,-0.0812016348,0.221508369,0.573044802,0.0751855969,-0.00917745475,-0.0714125112
85368.613997,0.0510712119,0.143603365,0.587298369,0.0889607966,-0.0193571225,-0.0872442052
85368.624024,0.005979732,0.21221849,0.565439004,0.105012737,-0.0229430683,-0.111478701
85368.634051,-0.0935041401,0.327588863,0.574005172,0.113520205,-0.0112302192,-0.154548675
85368.644077,0.0129977941,0.312313261,0.654551119,0.087049976,0.0231133718,-0.17225337
85368.654104,0.246332649,0.176002464,0.744614252,0.0579272471,0.0786735713,-0.158785492
85368.664131,0.283288534,-0.00897065744,0.744837539,0.0408486612,0.153018638,-0.141850188
85368.674158,0.152856858,-0.116855351,0.542718053,0.026368523,0.233447701,-0.123030961
85368.684185,-0.00705466775,-0.171391536,0.300792042,0.0324407965,0.274136007,-0.108656287
85368.694211,-0.178432029,-0.146974376,0.0122083242,0.0530001335,0.26037997,-0.0922959521
85368.704238,-0.0654023004,-0.107508919,-0.341737216,0.0738854408,0.200379759,-0.0488518029
85368.714265,0.0744368168,-0.118019061,-0.510105239,0.0746934414,0.0918903053,-0.00184648018
85368.724292,-0.106312549,-0.00759491211,-0.467452677,0.0540571436,-0.0459349342,0.0456129164
85368.734319,-0.197935698,0.242876809,-0.334033802,-0.00286499714,-0.189606085,0.109749556
85368.744345,-0.0192740979,0.451148754,-0.0840004717,-0.0804082602,-0.315835387,0.201466694
85368.754372,0.392092023,0.606764336,0.151510996,-0.115975305,-0.386661112,0.297762871
85368.764399,0.665154127,0.736045965,0.410092959,-0.143296942,-0.36319226,0.334726483
85368.774426,0.533508838,0.786072125,0.862455034,-0.169502452,-0.254557669,0.318334192
85368.784452,0.246601164,0.900977145,1.14647773,-0.190910265,-0.0864565298,0.258073241
85368.794479,0.0650274757,1.06110136,1.24465578,-0.176867947,0.087898761,0.155302927
85368.804506,-0.15190058,1.11685781,1.18697048,-0.124607675,0.229647636,0.04364191
85368.814533,-0.253011104,0.904473317,0.937701121,-0.0764020607,0.323828995,-0.0445878208
85368.824560,-0.226321104,0.509016713,0.585638911,-0.0108353058,0.350370586,-0.110927165
85368.834586,-0.082422701,0.0337198988,0.133187404,0.0563096441,0.318460315,-0.112544768
85368.844613,0.266566093,-0.373786478,-0.193411279,0.0686195716,0.254581749,-0.0565888211
85368.854640,0.471783107,-0.586895487,-0.355030997,0.0512624197,0.169607475,0.0122363158
85368.864667,0.517967497,-0.52044207,-0.468759083,0.0221801698,0.0837394297,0.0763854757
85368.874694,0.549702871,-0.416459571,-0.479145452,-0.0108851064,0.0215077531,0.129251361
85368.884720,0.511717935,-0.360030047,-0.443314261,-0.0307770558,-0.00663813064,0.152967066
85368.894747,0.45370779,-0.313060572,-0.391783395,-0.0286497213,-0.00212247483,0.174762905
85368.904774,0.536167901,-0.309138722,-0.438079867,-0.0115192058,0.0197332874,0.17094101
85368.914801,0.451287431,-0.169638408,-0.44960547,0.013399194,0.0514161177,0.134139046
85368.924827,0.22748116,0.0602853227,-0.513640427,0.0426638722,0.0793923587,0.0844519213
85368.934854,0.0325298853,0.147924662,-0.576374239,0.0573738441,0.088493973,0.0444624275
85368.944881,-0.00901391206,0.172538075,-0.660305737,0.0625299886,0.074397333,0.024376601
85368.954908,0.0606066636,0.0970230349,-0.729828771,0.0602426007,0.0263094325,0.0198079497
85368.964935,0.168789975,-0.0191274559,-0.777536863,0.0653718486,-0.0363664627,0.0292129032
85368.974961,0.333401495,-0.176433622,-0.769413762,0.0647199079,-0.107718416,0.0547563434
85368.984988,0.538409981,-0.346780982,-0.617391309,0.0501383021,-0.170680597,0.0912461802
85368.995015,0.647752034,-0.406332511,-0.416510425,0.0307808481,-0.224654347,0.107498117
85369.005042,0.662799235,-0.363528119,-0.191823718,0.0129693598,-0.260908484,0.108006515
85369.015069,0.686322003,-0.232779486,0.0136065005,-0.0112678027,-0.273715109,0.0976638645
85369.025095,0.739309789,-0.0597356529,0.265011703,-0.042860616,-0.262261122,0.0647200271
85369.035122,0.709565954,0.0880390796,0.463924502,-0.0584678054,-0.229502365,0.0110299038
85369.045149,0.688697427,0.133568732,0.536986816,-0.0582126752,-0.176905468,-0.0507317334
85369.055176,0.707151075,0.0316690307,0.509958524,-0.0226219222,-0.132200316,-0.111039281
85369.065203,0.722571932,-0.116816846,0.455793803,0.0337627903,-0.0940984711,-0.152533188
85369.075229,0.805229464,-0.213425162,0.382467285,0.0594175532,-0.0634822398,-0.173655793
85369.085256,0.762554909,-0.246505813,0.442232895,0.0698092058,-0.0497126281,-0.168814167
85369.095283,0.653801178,-0.118757897,0.479224363,0.0427482948,-0.0498124994,-0.157138601
85369.105310,0.572594136,0.0550298133,0.509404397,-0.0143418899,-0.0555201843,-0.129572481
85369.115337,0.586829217,0.104559349,0.440185315,-0.0737546161,-0.0658039823,-0.0824611634
85369.125363,0.622409649,0.127694433,0.307654329,-0.124786638,-0.0673408955,-0.0575390384
85369.135390,0.538027484,0.221572082,0.148958974,-0.141438589,-0.0602382421,-0.0532236472
85369.145417,0.48829417,0.285549538,-0.09358137,-0.110596783,-0.063115254,-0.0657674074
85369.155444,0.429630969,0.273975712,-0.264129075,-0.0635856017,-0.0731750801,-0.0971714035
85369.165471,0.194254598,0.268947728,-0.259435365,-0.0114760622,-0.0912259892,-0.1352285
85369.175497,0.0240206348,0.21654366,-0.150875037,0.0226086713,-0.108413495,-0.154577971
85369.185524,0.0428282842,0.130776251,0.0426508087,0.0279475115,-0.11971622,-0.164279595
85369.195551,0.112139282,0.109686629,0.22429157,0.0138364844,-0.121109582,-0.165729418
85369.205578,0.202825004,0.136629215,0.334509018,-0.0160617586,-0.109977573,-0.16781947
85369.215605,0.229876823,0.171934557,0.413351669,-0.0395026356,-0.100514293,-0.187764958
85369.225631,0.246674813,0.276574496,0.39511517,-0.0335222408,-0.0906398296,-0.225044414
85369.235658,0.268788519,0.317806597,0.319727044,-0.00495344773,-0.0653472543,-0.267208904
85369.245685,0.234827139,0.216385474,0.338142406,0.0292388778,-0.0184734855,-0.310017347
85369.255712,0.15179069,0.321957214,0.294869082,0.0537612662,0.0550428107,-0.364704013
85369.265739,0.120690326,0.464350546,0.130222125,0.0716209561,0.141763061,-0.407117516
85369.275765,0.163999891,0.339232905,-0.0588771364,0.0904324576,0.213651359,-0.420748919
85369.285792,0.207173189,0.101993444,-0.269015094,0.0914577767,0.267034143,-0.404648781
85369.295819,0.293136851,0.0141173727,-0.541302926,0.0878598467,0.295716941,-0.381625473
85369.305846,0.205314556,-0.0192976979,-0.828830997,0.0864323899,0.29043749,-0.359495938
85369.315873,0.133584952,-0.119003031,-0.994642321,0.065009661,0.2463177,-0.324043691
85369.325899,0.134084499,-0.234043222,-1.09864455,0.0678368136,0.159848779,-0.287342429
85369.335926,0.138460815,-0.26973296,-1.19654846,0.0907788798,0.0537191406,-0.249655753
85369.345953,0.204486946,-0.363386007,-1.09100718,0.127291083,-0.0422289632,-0.205860883
85369.355980,0.167335319,-0.507981379,-0.803808784,0.139687568,-0.109632775,-0.15533033
85369.366007,0.101080932,-0.609000351,-0.347417599,0.134805724,-0.136776239,-0.0891108289
85369.376033,0.14483941,-0.599658815,0.0914314985,0.106692865,-0.120765053,-0.00458023511
85369.386060,0.160816804,-0.549065815,0.378437592,0.0894329175,-0.0779816359,0.0810739473
85369.396087,0.151270466,-0.427330948,0.495076597,0.0602574535,-0.026512051,0.139733002
85369.406114,0.109690793,-0.248804884,0.532689996,0.0464771949,0.0233825371,0.179156318
85369.416141,0.0138118869,-0.0134946377,0.438721672,0.0390725397,0.0649206564,0.198756918
85369.426167,-0.077961703,0.273415959,0.381084307,0.0202471875,0.0865039825,0.20411998
85369.436194,-0.181787184,0.453630926,0.325629546,-0.000824541494,0.102090664,0.207040936
85369.446221,-0.294729381,0.515066515,0.229634101,-0.0138055868,0.116109543,0.210955262
85369.456248,-0.373054364,0.48203964,0.201815535,-0.0159662105,0.140386924,0.216671735
85369.466275,-0.420376745,0.363191361,0.134458155,-0.0173414666,0.171378404,0.224342972
85369.476302,-0.564413752,0.32299043,0.0937543885,-0.0261120554,0.201238021,0.220367134
85369.486328,-0.698150242,0.32209655,0.049147185,-0.0118489629,0.215737879,0.210503578
85369.496355,-0.676395287,0.277339416,-0.114065355,-0.00735115074,0.213032097,0.196016252
85369.506382,-0.630068128,0.249909557,-0.169014504,0.0066879699,0.193142816,0.175525367
85369.516408,-0.657675681,0.335505262,-0.278500715,0.0414462164,0.156279609,0.141984716
85369.526436,-0.714295832,0.328253976,-0.371259078,0.0812511593,0.106259041,0.112964772
85369.536461,-0.690798344,0.273160596,-0.366185428,0.10165976,0.0486412905,0.104050905
85369.546489,-0.595967705,0.216823792,-0.318814021,0.0943725482,-0.00231030863,0.121634156
85369.556516,-0.374786156,0.192759099,-0.225279412,0.0946172923,-0.0484349243,0.144907802
85369.566543,-0.203585759,0.195389082,-0.122807465,0.0706959814,-0.0721841976,0.150673807
85369.576570,-0.0713188309,0.224522676,0.0738397277,0.0484828204,-0.064215757,0.152268514
85369.586596,-0.0269168677,0.259462691,0.210971486,0.0656090826,-0.0269842297,0.132599995
85369.596623,-0.0760675598,0.258977026,0.268097394,0.0954122469,0.0390858687,0.0966374651
85369.606650,-0.124249115,0.192186048,0.282757203,0.158618644,0.0990442708,0.0738048479
85369.616677,-0.149866663,0.014133447,0.259156548,0.179366276,0.140223682,0.0743923411
85369.626704,-0.0800932352,-0.0553234625,0.354993003,0.172618613,0.162042424,0.111535452
85369.636730,0.0134520406,0.0694258568,0.352431628,0.12459597,0.177470386,0.150596306
85369.646757,0.0665847882,0.246139026,0.339171165,0.0765482783,0.191408038,0.161714733
85369.656784,-0.0506842584,0.428675275,0.242081494,0.06491559,0.204369634,0.133715332
85369.666810,-0.204209152,0.533079287,0.0529781415,0.111837827,0.219052181,0.0733515769
85369.676838,-0.153243738,0.510199566,-0.163185652,0.167284042,0.243331686,0.0180526394
85369.686865,-0.00834960293,0.358972136,-0.18927228,0.203740314,0.269072711,-0.00697974209
85369.696891,-0.0732017951,0.190688503,-0.177014271,0.206356078,0.273843229,0.0126115354
85369.706918,-0.0793408824,-0.0677436028,-0.107638537,0.161978498,0.245768473,0.0927926525
85369.716945,0.0738498838,-0.243568299,-0.142249247,0.0920145884,0.179921821,0.226502523
85369.726972,0.231722963,-0.257871988,-0.185735338,0.013830035,0.0963728577,0.357187837
85369.736999,0.323604031,-0.0327664705,-0.190173612,-0.0590939745,0.0251554027,0.447921187
85369.747025,0.283457753,0.283727656,-0.209720609,-0.115641937,-0.0187409483,0.478422374
85369.757052,0.163483028,0.594596198,-0.149169402,-0.117922395,-0.0259421356,0.448601097
85369.767079,-0.0136242554,0.854993466,-0.127200147,-0.0926948041,0.00527863484,0.364869714
85369.777106,-0.119544152,1.04187162,-0.0496808535,-0.0443150289,0.0693521574,0.254011899
85369.787133,-0.172995172,1.04431485,0.0139659815,0.0340404958,0.161569178,0.138466939
85369.797159,-0.283821289,0.960290335,0.0114613052,0.100871198,0.259864032,0.0326992273
85369.807186,-0.404104313,0.754206622,0.0275140299,0.137739465,0.334248781,-0.0255803242
85369.817212,-0.343251237,0.304061565,-0.0618412469,0.139868662,0.361153364,-0.0116783576
85369.827240,-0.277501329,-0.140171053,-0.224791337,0.107463852,0.325999379,0.0627660528
85369.837267,-0.289529803,-0.386120693,-0.372629782,0.0431125537,0.227268293,0.167850927
85369.847294,-0.241838954,-0.589380143,-0.451602781,-0.0317283943,0.0635118484,0.291121721
85369.857320,-0.137157769,-0.703704369,-0.464289829,-0.0918889344,-0.120902739,0.412190616
85369.867347,0.0399394309,-0.692309114,-0.376641356,-0.144935906,-0.294902772,0.499899179
85369.877373,0.139537139,-0.577335924,-0.149251819,-0.159891427,-0.422370434,0.537451327
85369.887401,0.203966356,-0.317319325,0.0767155754,-0.126988858,-0.47765553,0.515459478
85369.897428,0.340291766,-0.13048874,0.354080564,-0.0354570895,-0.466791987,0.437132746
85369.907455,0.496869544,-0.0179930451,0.74689681,0.0431309305,-0.391305476,0.332906723
85369.917481,0.654839215,0.175349553,1.1434236,0.0938830599,-0.264346451,0.238455057
85369.927508,0.739928871,0.292960837,1.34022394,0.116303951,-0.119867571,0.164620787
85369.937535,0.766103615,0.159126732,1.41321377,0.0998424143,0.0144716008,0.132084668
85369.947562,0.871985883,-0.0300372647,1.36820968,0.0655459613,0.12710841,0.137366787
85369.957589,0.858284763,-0.10641316,1.07870358,0.0351236053,0.2023523,0.153070658
85369.967615,0.717841469,-0.106484252,0.694614834,0.00348125747,0.23117888,0.168819249
85369.977642,0.51342072,-0.023805823,0.311158538,-0.0238041598,0.212448865,0.178581342
85369.987669,0.368233228,0.116491121,-0.0573567949,-0.0463680588,0.156185329,0.179807454
85369.997696,0.204183652,0.227014712,-0.362808061,-0.067752175,0.0720648542,0.163952857
85370.007722,0.10005685,0.249300559,-0.518120788,-0.0896292403,-0.02757998,0.147487327
85370.017750,0.143052672,0.27004809,-0.549907672,-0.116550073,-0.1190814,0.132480949
85370.027775,0.224657554,0.267091359,-0.486524457,-0.142455444,-0.193392381,0.105960391
85370.037803,0.228901841,0.244699787,-0.344446475,-0.144061595,-0.244843319,0.0698708296
85370.047830,0.359434054,0.184190592,-0.165455935,-0.142606974,-0.260258496,0.0319697857
85370.057857,0.555490952,0.0906756386,0.126195353,-0.14913252,-0.237091914,0.000320780091
85370.067883,0.722111182,-0.0646196986,0.341600438,-0.144750282,-0.181361273,-0.0246503502
85370.077910,0.891158931,-0.211092555,0.53203007,-0.168967471,-0.0940215886,-0.0484749898
85370.087937,1.09758313,-0.290495177,0.67524261,-0.183653474,0.00584615441,-0.0782920048
85370.097964,1.14222511,-0.397725937,0.684040249,-0.177069336,0.107839897,-0.114914201
85370.107991,1.1377221,-0.484514724,0.591201221,-0.160402209,0.197263524,-0.16203323
85370.118018,1.12189749,-0.50677456,0.436917838,-0.151413247,0.282721162,-0.196720913
85370.128045,1.10705816,-0.64766231,0.282654912,-0.129012331,0.347784311,-0.207063824
85370.138071,0.962469067,-0.871248362,0.138525258,-0.124845549,0.389592737,-0.191366091
85370.148098,0.792817799,-0.937211584,0.00243745628,-0.111621626,0.406178117,-0.170371592
85370.158124,0.500640295,-0.72811941,-0.212902161,-0.095927082,0.416248322,-0.164348856
85370.168152,0.149607537,-0.400062929,-0.468715244,-0.0737618655,0.402310938,-0.169548675
85370.178179,-0.030369602,-0.141936163,-0.711322223,-0.0525572449,0.344743252,-0.172841415
85370.188206,-0.0372165452,-0.0770416656,-0.839451175,-0.035279721,0.230847314,-0.171422482
85370.198232,-0.0137377988,-0.055091042,-0.952674819,-0.0290497877,0.0880480781,-0.166551813
85370.208259,-0.0566792975,-0.0344265857,-0.957076268,-0.0163081605,-0.0742004812,-0.153772369
85370.218285,-0.0918754429,-0.049166182,-0.795439015,-0.0230962913,-0.22668083,-0.149907067
85370.228313,-0.124257225,0.0246420546,-0.460709632,-0.026744822,-0.349921554,-0.145692885
85370.238340,-0.134564136,0.0713582862,-0.129864397,-0.00406720676,-0.431984186,-0.133276686
85370.248367,-0.131313756,0.0183292182,0.190976745,0.0150447031,-0.47186318,-0.123164408
85370.258393,-0.0670315821,0.0703374187,0.623245296,0.00357793015,-0.455422938,-0.114374109
85370.268420,0.0279199073,0.259280612,0.959905354,-0.0463430248,-0.375320643,-0.112307228
85370.278447,-0.081375457,0.455237119,1.14686117,-0.0813777074,-0.24702844,-0.137606457
85370.288474,-0.258099732,0.661537471,1.08352764,-0.103622824,-0.0837045014,-0.210365608
85370.298501,-0.330640068,0.815559281,0.825187672,-0.101846762,0.0868515223,-0.313787609
85370.308528,-0.36478769,0.752493826,0.466957002,-0.0611478053,0.240277842,-0.408386827
85370.318554,-0.337505716,0.529723547,-0.0255196412,-0.00382565777,0.359571457,-0.482859194
85370.328581,-0.359091305,0.194887854,-0.43303895,0.0606098808,0.435546309,-0.516505897
85370.338608,-0.385966855,-0.294222381,-0.793200296,0.101456381,0.460377097,-0.503662527
85370.348634,-0.371237707,-0.751480119,-1.0432798,0.147503763,0.424092859,-0.441449255
85370.358662,-0.383328104,-1.11008649,-1.28026193,0.185551003,0.327358574,-0.341489613
85370.368689,-0.444710282,-1.44178242,-1.32999831,0.197287291,0.174817502,-0.202423081
85370.378715,-0.353321599,-1.61537037,-1.20814537,0.194586053,-0.0286847427,-0.0321618617
85370.388742,-0.19697752,-1.46882051,-0.98828623,0.174803287,-0.245690838,0.142594233
85370.398769,-0.151632504,-1.08717038,-0.604886048,0.135459885,-0.438914895,0.29626289
85370.408795,-0.246074107,-0.681485011,-0.101461894,0.0809132829,-0.576372623,0.411815047
85370.418823,-0.328178427,-0.15873313,0.447477226,0.0198147781,-0.642269313,0.474218488
85370.428850,-0.342444049,0.435454195,0.939821182,-0.00236535864,-0.641768396,0.496083856
85370.438876,-0.333917336,0.8828151,1.26417121,-0.0311786309,-0.581674695,0.463617533
85370.448903,-0.458461853,1.22275213,1.58383279,-0.0669177175,-0.449133694,0.387017548
85370.458930,-0.647836132,1.47486972,1.71696992,-0.09547133,-0.261880457,0.285526603
85370.468957,-0.890307137,1.55435973,1.67138364,-0.119926341,-0.0536705181,0.182854295
85370.478984,-1.0585744,1.39066175,1.51527948,-0.115719348,0.146158174,0.0915203989
85370.489011,-1.12259957,1.08954712,1.1953344,-0.0992580801,0.299013227,0.00967906136
85370.499037,-1.13670679,0.759784276,0.811958772,-0.0751921609,0.389296263,-0.0420294069
85370.509064,-1.06052948,0.453740305,0.345591553,-0.0450603589,0.422148734,-0.05315556
85370.519091,-0.912334917,0.0650353668,-0.103927992,-0.0273186453,0.402208596,-0.0432555266
85370.529118,-0.877405204,-0.262540929,-0.434890716,-0.0159434844,0.344291747,-0.0284342356
85370.539145,-0.895736322,-0.346764177,-0.716153297,0.0207066722,0.258243948,-0.0148121668
85370.549172,-0.954870356,-0.353727586,-0.910523776,0.0381245427,0.152660549,-0.000646014698
85370.559198,-0.921189036,-0.434662898,-0.878005654,0.0781558529,0.0338603966,0.0207548812
85370.569225,-0.762709808,-0.478346996,-0.863629923,0.111900762,-0.0653370246,0.0479569435
85370.579252,-0.622576749,-0.499773961,-0.692815091,0.16284357,-0.142675236,0.071957618
85370.589279,-0.631259237,-0.521308258,-0.442010777,0.206390515,-0.203168139,0.0922655538
85370.599306,-0.534538692,-0.545082517,-0.137210084,0.228284091,-0.250976682,0.136890531
85370.609333,-0.296180091,-0.528504234,0.186957573,0.199206367,-0.290911049,0.209726393
85370.619359,-0.0897322203,-0.376655311,0.581056259,0.149245724,-0.31847024,0.294106781
85370.629386,0.0629093145,-0.0445840418,0.818932703,0.0783595815,-0.31337294,0.362148702
85370.639413,0.22250761,0.394153047,0.94782504,0.00700390851,-0.265842438,0.37908265
85370.649440,0.0833202344,0.831313973,1.00789051,-0.0468766317,-0.167955816,0.329575568
85370.659467,-0.175795397,1.11937082,0.893321881,-0.0691816732,-0.0365634374,0.239222497
85370.669494,-0.280277662,1.21873742,0.723035457,-0.0348505974,0.106835,0.137854069
85370.679521,-0.315050503,1.1169704,0.525602668,0.0539245456,0.256830364,0.00857464783
85370.689547,-0.363242872,0.95990667,0.297830854,0.142679706,0.393760234,-0.124830551
85370.699574,-0.395116339,0.725479782,0.162104871,0.222244039,0.498104483,-0.212536708
85370.709601,-0.247395894,0.341182066,0.0627513475,0.245913416,0.542485297,-0.219816983
85370.719628,0.0193846456,-0.0742269735,-0.0289811798,0.228668645,0.514669359,-0.156736553
85370.729655,0.263352246,-0.341287353,-0.191823718,0.159811825,0.435996115,-0.0493546985
85370.739682,0.536050668,-0.31276568,-0.342733825,0.05139108,0.326186776,0.078525506
85370.749708,0.756569405,-0.0531732257,-0.442332848,-0.0653629676,0.206542417,0.187492996
85370.759735,0.752416742,0.254786297,-0.572459111,-0.135827556,0.0948664919,0.254473895
85370.769762,0.680120299,0.336386283,-0.618474428,-0.165652558,0.0189395007,0.269899189
85370.779789,0.638070817,0.263786619,-0.555596824,-0.146190181,0.00168594602,0.260172784
85370.789816,0.715002958,0.272782849,-0.546907906,-0.106701881,0.0446121097,0.233046636
85370.799843,0.656483329,0.299315686,-0.47485097,-0.0773775503,0.122620627,0.18827942
85370.809870,0.496227045,0.255168428,-0.319834596,-0.0686759353,0.213457316,0.139051154
85370.819896,0.467765469,0.109844888,-0.236668237,-0.0877809227,0.281894147,0.0946863666
85370.829923,0.441324731,-0.0477634756,-0.181371297,-0.0788982138,0.309090883,0.0703661069
85370.839950,0.392250867,-0.184893699,-0.296542568,-0.0363299809,0.308457077,0.0273898803
85370.849977,0.216671743,-0.104814858,-0.353624637,0.0328885019,0.293626726,-0.080562681
85370.860004,-0.195549241,0.0374682185,-0.409728217,0.102037214,0.258391768,-0.20132719
85370.870031,-0.305057883,-0.048849225,-0.398621717,0.154510528,0.20080331,-0.283547491
85370.880057,-0.120823561,-0.290640139,-0.356511591,0.210069135,0.132533431,-0.306140691
85370.890084,0.184612526,-0.615249402,-0.275825358,0.237633914,0.0728903562,-0.272225052
85370.900111,0.570420993,-0.950690586,-0.00870645355,0.229131505,0.0260522719,-0.188748822
85370.910138,0.90701796,-1.16479102,0.260337866,0.185157388,-0.00731660333,-0.07841032
85370.920165,1.05134993,-1.21484129,0.504742251,0.127865613,-0.0302514788,0.0134000294
85370.930192,1.0067881,-1.10319308,0.637221799,0.101002842,-0.0432226695,0.0774264187
85370.940219,0.915778043,-0.974542221,0.698530546,0.081408903,-0.0352062881,0.104963772
85370.950245,0.763956593,-0.646964683,0.762286687,0.0523615368,-0.00865510851,0.0914700627
85370.960272,0.432082161,-0.243732622,0.725089467,0.0121579235,0.0160824619,0.0656970516
85370.970299,0.234517671,-0.0672155603,0.697381376,-0.0470353588,0.0259265713,0.0559416302
85370.980326,0.160616313,-0.0515252392,0.707341045,-0.096420221,0.0324481204,0.053177271
85370.990353,-0.00806572622,-0.0501658605,0.574456423,-0.101295136,0.0397369266,0.0415238105
85371.000380,-0.13692586,-0.12411767,0.344019774,-0.0760749951,0.0465980284,0.0170690678
85371.010407,-0.241208675,-0.275378126,0.253609435,-0.0506047942,0.0526282229,-0.0112760225
85371.020433,-0.386402506,-0.292276508,0.240532511,-0.0421828106,0.0560410656,-0.0306643657
85371.030460,-0.577390065,-0.331826866,0.20080022,-0.0440848432,0.0456201173,-0.0360841639
85371.040487,-0.695803898,-0.405147173,0.142186703,-0.0520407706,0.0178220384,-0.0313429385
85371.050514,-0.733747698,-0.452414244,0.0835866302,-0.0572480485,-0.0308688004,-0.0369768552
85371.060541,-0.768375213,-0.513102229,-0.0170563487,-0.0685885847,-0.102561094,-0.0454731397
85371.070568,-0.588472673,-0.471919228,-0.102520463,-0.0756371766,-0.18260321,-0.0613314658
85371.080594,-0.503888008,-0.25047384,-0.129656307,-0.0590099953,-0.25901863,-0.106094941
85371.090621,-0.632034751,0.0305230755,-0.135371178,-0.0241263136,-0.320140302,-0.192632496
85371.100648,-0.665414312,0.19976642,-0.0184843357,0.0127779078,-0.359638453,-0.263584971
85371.110675,-0.383225264,0.117494599,0.209469264,0.00979170483,-0.366560787,-0.301498532
85371.120702,-0.171325887,-0.107266927,0.496079636,-0.00250224513,-0.34770748,-0.298727512
85371.130729,-0.00708466103,-0.246388178,0.622587124,-0.0405441672,-0.315178037,-0.267088622
85371.140756,0.149085925,-0.321012334,0.635423225,-0.0706152543,-0.28107813,-0.236121923
85371.150783,0.134073868,-0.308166078,0.521931286,-0.0836210623,-0.271614313,-0.228740707
85371.160809,0.0854665622,-0.231990747,0.364583838,-0.0815283507,-0.282575071,-0.222760305
85371.170836,0.202742112,-0.153691775,0.214679693,-0.0859084576,-0.304864675,-0.209120661
85371.180863,0.266340504,-0.119577616,0.182457339,-0.103149496,-0.318603665,-0.193257287
85371.190890,0.167392018,-0.0960256214,0.198909292,-0.11740353,-0.321676672,-0.185277387
85371.200917,0.0552843726,-0.0253904618,0.176323366,-0.125621244,-0.317826539,-0.184100002
85371.210944,0.0719703536,0.0458200133,0.145256028,-0.135751382,-0.306498796,-0.176443413
85371.220971,0.308701427,0.107897553,0.128344056,-0.145298287,-0.293841839,-0.156925112
85371.230997,0.523705894,0.179496443,0.0782476073,-0.145619735,-0.289503306,-0.145966202
85371.241024,0.465084925,0.238341796,0.0467500607,-0.140332282,-0.283144206,-0.143291056
85371.251051,0.29709611,0.170263701,0.0870417391,-0.144913465,-0.277698845,-0.143639654
85371.261078,0.149860307,0.0238117413,0.133825702,-0.135513306,-0.27479279,-0.137195081
85371.271105,0.0109573012,-0.0897292977,0.20545886,-0.113759257,-0.250383586,-0.132802993
85371.281132,-0.0246577637,-0.216051273,0.238484931,-0.098564595,-0.216918841,-0.14511691
85371.291159,-0.0601013444,-0.371041271,0.338457463,-0.0635368377,-0.16561836,-0.150025129
85371.301185,0.0175287155,-0.382806235,0.368712316,-0.0410533659,-0.105457015,-0.153820932
85371.311212,0.186414625,-0.233638368,0.335169528,-0.0300587714,-0.0400377959,-0.181471199
85371.321239,0.207296304,0.0465201975,0.256653625,-0.0341539122,0.0117492322,-0.218442261
85371.331266,0.31129422,0.169678887,0.144894793,-0.0364560597,0.042981796,-0.263850868
85371.341293,0.342228141,0.256351792,-0.108666126,-0.0156762116,0.0443213657,-0.296317995
85371.351320,0.485127084,0.168770759,-0.364179934,-0.0025886395,0.0211284272,-0.285051227
85371.361347,0.667664283,-0.134434993,-0.428379142,0.00489750598,-0.0237218682,-0.235557705
85371.371373,0.721983537,-0.363463675,-0.444956767,0.0198106766,-0.0759698898,-0.173038408
85371.381400,0.648859849,-0.443038585,-0.398084541,0.0303256344,-0.128962263,-0.10629373
85371.391427,0.526538926,-0.473217889,-0.187291919,0.011279772,-0.162051514,-0.0368211791
85371.401454,0.439420833,-0.368232862,0.0604857406,-0.0208089221,-0.17631647,0.0302310921
85371.411481,0.31081988,-0.0960673416,0.224911748,-0.0604183823,-0.173921481,0.0832668766
85371.421508,0.274176203,0.205088054,0.341103009,-0.0925049484,-0.159391806,0.112620503
85371.431535,0.24373781,0.458036102,0.421800932,-0.113244846,-0.131360978,0.0946092829
85371.441561,0.0824433054,0.714878674,0.442391301,-0.12176536,-0.0900883675,0.0256437976
85371.451588,-0.0649144438,0.896008563,0.447571334,-0.0743722841,-0.0488280207,-0.0447906852
85371.461615,-0.133173814,0.865710163,0.438055902,-0.0615779236,-0.00586990034,-0.0953241736
85371.471642,-0.0637535102,0.686869042,0.517908606,-0.0525399521,0.041153267,-0.106889211
85371.481669,0.0145048376,0.424486372,0.54843117,-0.0627577081,0.0923655927,-0.0932082906
85371.491696,-0.100053416,0.267459827,0.555523759,-0.0933329239,0.139540568,-0.0816443115
85371.501723,-0.369034534,0.292318666,0.484390367,-0.12482693,0.166279763,-0.0835972056
85371.511750,-0.55460774,0.320694135,0.332225291,-0.15687488,0.161601916,-0.093340911
85371.521776,-0.628538434,0.318333325,0.0992740287,-0.145115688,0.126074016,-0.116107747
85371.531803,-0.639494347,0.193302631,-0.162921448,-0.112575591,0.0777696073,-0.133146644
85371.541830,-0.585020341,-0.0209144855,-0.262299522,-0.0773073509,0.0350136161,-0.134833768
85371.551857,-0.484774691,-0.283126914,-0.278651522,-0.0468296036,0.00550952088,-0.119758412
85371.561884,-0.396874143,-0.443219568,-0.245554139,-0.0318836793,-0.000202693394,-0.0875267014
85371.571911,-0.289105988,-0.494051053,-0.169853293,-0.0554097742,0.0167667028,-0.0606346354
85371.581938,-0.414500108,-0.447753485,-0.0487760136,-0.0603643209,0.0425389111,-0.0517868102
85371.591964,-0.593249094,-0.408425756,-0.0779769736,-0.0597310215,0.0734417066,-0.0481609181
85371.601991,-0.594830372,-0.375053356,-0.148881817,-0.0505819991,0.0918087289,-0.0510786772
85371.612018,-0.623428324,-0.382500822,-0.251654209,-0.00940526649,0.0902228132,-0.0580985025
85371.622045,-0.578880815,-0.32503991,-0.471025859,0.0485645607,0.0817169398,-0.0454428941
85371.632072,-0.441694185,-0.368901701,-0.549621257,0.113935046,0.0714805499,-0.0176139269
85371.642099,-0.419016416,-0.489756278,-0.430281761,0.180918604,0.0724677816,0.0114062726
85371.652126,-0.488260998,-0.458647439,-0.216631411,0.214801744,0.0847899616,0.048539795
85371.662153,-0.594282382,-0.315442425,0.0689946258,0.19315663,0.0984133631,0.0964207649
85371.672179,-0.60750982,-0.172807029,0.378057068,0.151727691,0.113396578,0.154946387
85371.682206,-0.577060029,0.07652356,0.520087119,0.094016999,0.141816765,0.197202504
85371.692233,-0.616000293,0.387948713,0.561200051,0.0291525126,0.17760779,0.20268169
85371.702260,-0.681636256,0.607635785,0.544846297,-0.00371995056,0.215381265,0.178355306
85371.712287,-0.795226103,0.740500898,0.439461677,-0.0120399315,0.250515819,0.124857463
85371.722314,-0.917595979,0.733030124,0.302944251,0.03202473,0.275768161,0.0604063049
85371.732341,-0.848698019,0.624181115,0.0904863266,0.0863225907,0.301047951,0.00580431288
85371.742368,-0.627337314,0.408305199,0.0359755687,0.12687321,0.322108746,-0.0230568964
85371.752394,-0.466485293,0.206357197,-0.0159632928,0.12919043,0.31789723,-0.0202786867
85371.762421,-0.29252661,-0.0462880692,0.0279354702,0.0893229097,0.271032006,0.0149709135
85371.772448,-0.054607204,-0.343286929,0.033912791,0.0485299379,0.188472152,0.069451198
85371.782475,0.16587237,-0.464514139,-0.129441788,0.0264091901,0.0837297589,0.107524544
85371.792502,0.393491697,-0.423274293,-0.302265037,0.0431333072,-0.0154133383,0.109135494
85371.802529,0.607669285,-0.185258368,-0.426298828,0.0448089689,-0.0928069279,0.0571684316
85371.812556,0.685773356,-0.00957994845,-0.442111315,0.107138388,-0.133546636,0.00177095551
85371.822583,0.879020384,-0.0286957139,-0.526315784,0.141026586,-0.122091047,-0.0263256598
85371.832609,0.93691019,-0.215400408,-0.310599735,0.173111811,-0.0603525825,-0.0309268031
85371.842636,0.614081527,-0.435565327,-0.138508892,0.181473881,0.0295767728,-0.0143275876
85371.852663,0.33360268,-0.694809553,0.0798316616,0.166677877,0.130286604,0.0420507342
85371.862690,0.317025311,-0.829359039,0.138980601,0.133396894,0.213755399,0.143378153
85371.872717,0.365226228,-0.912829715,0.152480718,0.0995459855,0.267064154,0.247521594
85371.882744,0.372859061,-0.89363935,0.14906711,0.0772473365,0.297507823,0.317444503
85371.892771,0.287879186,-0.587430324,0.0498310756,0.07012631,0.315303862,0.340866446
85371.902798,0.0291094093,-0.169603629,-0.112145201,0.101775847,0.313920349,0.306293041
85371.912824,-0.348244588,0.17405586,-0.242498843,0.149151623,0.30156672,0.238610134
85371.922851,-0.49531552,0.356617901,-0.268507729,0.214018241,0.268101722,0.162165418
85371.932878,-0.535950422,0.427370915,-0.251990309,0.246661395,0.216861442,0.106018528
85371.942905,-0.419167844,0.330542379,-0.0940489875,0.253246576,0.138863325,0.0974873602
85371.952932,-0.16026655,0.129129799,0.0637403585,0.219035625,0.0409966744,0.140382901
85371.962959,0.0320432343,-0.0328195889,0.30269583,0.145795241,-0.0565176308,0.218501925
85371.972986,0.163682751,-0.0682290482,0.536178422,0.049513977,-0.143843219,0.305717796
85371.983013,0.212279901,0.0459743271,0.755153766,-0.0307707414,-0.209098652,0.360894233
85371.993039,0.238819241,0.0389894367,0.754808898,-0.0735368505,-0.237077817,0.375741094
85372.003066,0.244310495,0.152083536,0.756923114,-0.0848566145,-0.22538121,0.354167074
85372.013093,0.20039796,0.224057689,0.722875883,-0.0703522414,-0.186430618,0.310708553
85372.023120,0.143804075,0.185453233,0.707953039,-0.053265132,-0.137766674,0.260430992
85372.033147,0.0478661688,0.121218588,0.667627458,-0.0379990935,-0.0854653865,0.215437427
85372.043174,-0.0748822225,0.0867908331,0.527194905,-0.0415275171,-0.0512951724,0.185545579
85372.053201,-0.085258034,-0.00188705586,0.382228216,-0.0554907359,-0.040840134,0.170596719
85372.063228,-0.119211194,-0.0358326531,0.217644388,-0.0689266473,-0.0543705896,0.157349095
85372.073255,-0.150528086,0.0606436346,0.0325713133,-0.0807675943,-0.0824621394,0.137621731
85372.083281,-0.265929001,0.128282754,-0.124348264,-0.0752391443,-0.11544992,0.0987664759
85372.093308,-0.382945169,0.167015293,-0.286116451,-0.0661766678,-0.149654225,0.0579703152
85372.103335,-0.368072411,0.209590991,-0.301590499,-0.071890749,-0.183952555,0.0119250556
85372.113362,-0.291595321,0.12529519,-0.290081847,-0.0634003207,-0.209784418,-0.0220837779
85372.123389,-0.192767282,0.000126037532,-0.267070389,-0.0482682437,-0.22974427,-0.0550862029
85372.133416,-0.134313705,-0.0969532576,-0.172444479,-0.0266369842,-0.229026556,-0.0930738002
85372.143443,-0.0481230296,-0.0621999241,-0.0574976647,-0.013245278,-0.212681398,-0.139566466
85372.153470,-0.125881757,0.00635039194,0.0835328542,-0.0158959236,-0.196208149,-0.189581424
85372.163497,-0.144911525,-0.0349500251,0.165421448,-0.0259272512,-0.183692351,-0.21258235
85372.173523,0.0354562941,-0.100173023,0.187262109,-0.0495348424,-0.172103077,-0.209334627
85372.183550,0.0562541675,-0.205238714,0.233436415,-0.0821399242,-0.160560936,-0.193961799
85372.193577,-0.0300459595,-0.307114815,0.285371185,-0.102122955,-0.146527141,-0.178888574
85372.203604,-0.114782052,-0.243392138,0.215658182,-0.0993346199,-0.136535764,-0.18399784
85372.213631,-0.19766974,-0.0979252444,0.15357319,-0.092733182,-0.121672928,-0.201474309
85372.223658,-0.1938089,-0.0868950241,0.174296829,-0.0830155686,-0.101548217,-0.212729633
85372.233685,-0.120070587,-0.184904805,0.153579619,-0.0683047995,-0.0788093507,-0.20902437
85372.243712,-0.0444346965,-0.188212687,0.133331197,-0.0511002503,-0.0507529527,-0.209575638
85372.253738,-0.0984480993,-0.081794413,0.131014736,-0.0492059439,-0.0253940672,-0.226865679
85372.263765,-0.226906502,0.0500919916,0.143286189,-0.0616596825,-0.00580704957,-0.234590188
85372.273792,-0.273218318,0.218301244,0.104476274,-0.0910913423,0.0134960748,-0.242715746
85372.283819,-0.383745854,0.254350243,0.0215869779,-0.100655288,0.0277383924,-0.254991591
85372.293846,-0.453548801,0.203973517,-0.186770526,-0.0987604484,0.0359635651,-0.270715177
85372.303873,-0.409029421,0.20305969,-0.342707522,-0.0934911147,0.0364610441,-0.288913071
85372.313900,-0.255824554,0.10328078,-0.507678889,-0.0472756848,0.0212282967,-0.300730586
85372.323927,-0.125683678,-0.16304259,-0.629034985,0.00327697257,-0.00576017797,-0.300075173
85372.333954,0.0274734056,-0.429621397,-0.645517918,0.0568216816,-0.0333674885,-0.283496976
85372.343980,0.131217858,-0.548254937,-0.616584669,0.0895186439,-0.06052747,-0.26617071
85372.354007,0.216397091,-0.556234683,-0.463626981,0.0744430274,-0.088740997,-0.223603293
85372.364034,0.354164151,-0.473942404,-0.341286549,0.0400988944,-0.111249238,-0.161346585
85372.374061,0.435507532,-0.401478348,-0.300267726,-7.83504802e-05,-0.126471072,-0.108976841
85372.384088,0.36317251,-0.359710752,-0.249622411,-0.0307419859,-0.11570178,-0.0968085974
85372.394115,0.0544829931,-0.169478469,-0.3330331,-0.036607068,-0.103429928,-0.140279651
85372.404142,-0.212519007,0.103251554,-0.452712204,-0.013680446,-0.0974703059,-0.190692484
85372.414169,-0.11533121,0.261287495,-0.574613659,0.00909544062,-0.111570679,-0.23468551
85372.424196,0.131273241,0.235578688,-0.589056611,0.0380032547,-0.130633593,-0.252150774
85372.434223,0.481200558,0.017217969,-0.551621491,0.063397564,-0.152703732,-0.236453578
85372.444249,0.687084,-0.195029966,-0.395815427,0.0965224952,-0.151670426,-0.231027663
85372.454276,0.504519328,-0.0702955523,-0.266459564,0.132923648,-0.126584515,-0.26930365
85372.464303,0.218639317,0.243944439,-0.182473705,0.170671284,-0.0896302313,-0.326276124
85372.474330,0.161511143,0.339211424,-0.0770060828,0.194491938,-0.0594315827,-0.355155975
85372.484357,0.29279359,0.264942657,0.0600876812,0.217228934,-0.0427830964,-0.357615948
85372.494384,0.403813148,0.188819567,0.17318273,0.210377693,-0.0372261442,-0.349030435
85372.504411,0.360000748,0.256169714,0.241698048,0.194310039,-0.0300031193,-0.33384937
85372.514438,0.287610927,0.347712929,0.156484693,0.166180938,-0.0308023319,-0.301505536
85372.524465,0.271865296,0.376012556,0.139649878,0.135959908,-0.0376226902,-0.259419352
85372.534491,0.291407031,0.391350849,0.147535079,0.0940955579,-0.0495872051,-0.21173732
85372.544518,0.306316066,0.34757542,0.139815298,0.0555508211,-0.0634239241,-0.152461216
85372.554545,0.336628933,0.312233766,0.123853174,0.00747330859,-0.0668908283,-0.0793888569
85372.564572,0.383986969,0.260615953,0.191996736,-0.0353311487,-0.0624065995,-0.0177747644
85372.574599,0.308699162,0.253779823,0.158294373,-0.0615936443,-0.0519148074,0.0295663849
85372.584626,0.121754814,0.316933175,0.0792933169,-0.0836158544,-0.0451381281,0.0495632663
85372.594653,-0.0768888862,0.413956795,0.0256447289,-0.0874497369,-0.0458531864,0.0539939664
85372.604680,-0.169382972,0.601277502,-0.0716992086,-0.0916378275,-0.0495752208,0.0510634221
85372.614707,-0.181816411,0.675987729,-0.108284434,-0.105328873,-0.0627392307,0.0566587262
85372.624734,-0.102575408,0.635881709,-0.0556137507,-0.120443374,-0.0731897354,0.0774598792
85372.634760,-0.041490825,0.531608192,0.00950315688,-0.126525238,-0.0793877095,0.0882653892
85372.644787,-0.0941373965,0.438217011,0.0537573092,-0.115677916,-0.0797637478,0.0919671804
85372.654814,-0.117505851,0.457514855,0.094781978,-0.0824528486,-0.0649206191,0.0690386966
85372.664841,-0.175763979,0.559046818,0.0799450589,-0.0182139445,-0.0381406732,0.00601259107
85372.674868,-0.302133739,0.571783696,0.0136480016,0.0522530302,-0.0165815856,-0.0614868253
85372.684895,-0.341583413,0.441164243,0.0181143334,0.105965532,-0.0199731216,-0.120917656
85372.694922,-0.270651901,0.334265857,-0.00137888714,0.148271441,-0.0427229069,-0.143074632
85372.704949,-0.172170119,0.217483059,0.0313566768,0.179597944,-0.0744491443,-0.138995737
85372.714976,-0.248788225,0.181962103,0.0874666865,0.184946358,-0.107673943,-0.144218728
85372.725003,-0.44047458,0.115209703,0.109039636,0.203700081,-0.155418038,-0.131868854
85372.735029,-0.262981732,-0.056460869,0.155485161,0.176631451,-0.201604694,-0.0830536336
85372.745056,-0.0486399661,-0.210464705,0.261534967,0.138606831,-0.228960961,-0.0253160372
85372.755083,-0.0561383591,-0.280165726,0.36926995,0.105336756,-0.225333199,0.0357561037
85372.765110,0.0458910328,-0.230598416,0.498262241,0.0659193099,-0.174974948,0.0961147845
85372.775137,0.0391987686,-0.247554665,0.554057193,0.0589093342,-0.0925932601,0.115259185
85372.785164,-0.0961262322,-0.126638275,0.575500963,0.0582611226,0.0268367287,0.0835747644
85372.795191,-0.28625301,0.250945038,0.572072742,0.075448364,0.156824291,-0.000139044598
85372.805218,-0.596587006,0.486163076,0.417518141,0.111190915,0.265652239,-0.0899280533
85372.815245,-0.56841232,0.41090296,0.251600433,0.121837437,0.343194962,-0.130813435
85372.825272,-0.266094969,0.267702842,0.135976743,0.115669556,0.386775196,-0.120297946
85372.835298,-0.196793323,0.14820611,-0.0589507861,0.0876594931,0.385651618,-0.101643831
85372.845325,-0.352398968,0.0720940531,-0.21885844,0.0540418737,0.337075293,-0.0540400892
85372.855352,-0.14183694,0.0246326292,-0.406108858,0.0037403563,0.266417086,0.0267306529
85372.865379,0.132299077,0.0597445669,-0.542652002,-0.0414388403,0.198806092,0.0901804641
85372.875406,0.148241985,0.203686443,-0.5898463,-0.0747062489,0.151357621,0.117176399
85372.885433,0.184466487,0.369815894,-0.539075313,-0.0611600801,0.128440589,0.103282422
85372.895460,0.124704603,0.497016479,-0.578562104,-0.0228907205,0.127982527,0.057458207
85372.905487,0.125412825,0.468213432,-0.520895513,0.023989968,0.140364349,0.0233806632
85372.915514,0.348304246,0.312220322,-0.422072151,0.0540211014,0.156025335,0.0177640542
85372.925541,0.633783276,0.18270956,-0.227760708,0.0637024939,0.179687798,0.026721064
85372.935568,0.757995054,0.201689863,-0.0121849433,0.0570019782,0.209688827,0.0335813686
85372.945594,0.706351011,0.360398954,0.141314597,0.0519667417,0.249309748,0.0294369571
85372.955621,0.710311439,0.527552194,0.256198867,0.0225878134,0.285215557,0.0259301066
85372.965648,0.781935975,0.557438799,0.378354589,0.00850395206,0.324357629,0.0301536135
85372.975675,0.762635939,0.493947446,0.355775093,0.00134031544,0.358311325,0.0165129025
85372.985702,0.586167319,0.476218605,0.326582317,-0.0149406539,0.389113456,0.0069974279
85372.995729,0.465442762,0.434251541,0.245823603,-0.0526342355,0.401242018,0.0157485753
85373.005756,0.320351825,0.300737243,0.151505736,-0.0793233663,0.394057065,0.0215835609
85373.015783,0.13569599,0.178232707,-0.0983539912,-0.0382350571,0.34757641,0.0152167417
85373.025810,0.0395079441,-0.0174020934,-0.360866864,0.0286547616,0.266498595,0.00913754385
85373.035837,0.0808692245,-0.19949586,-0.459919358,0.0790961012,0.168597862,0.0114417113
85373.045864,0.0702477311,-0.427771824,-0.390492186,0.1245749,0.0554848835,0.0379084721
85373.055890,0.105285471,-0.614819413,-0.231328629,0.132817656,-0.0573111735,0.0959177166
85373.065917,0.201532991,-0.63795099,0.063914546,0.0896422192,-0.154604971,0.169175148
85373.075944,0.235861926,-0.688382808,0.452806896,0.0379646383,-0.227593154,0.239107087
85373.085971,0.330170222,-0.635843204,0.727891665,-0.0121946679,-0.267641246,0.293813497
85373.095998,0.442270305,-0.501807658,0.894268807,-0.0456439704,-0.279132247,0.318761438
85373.106025,0.47286513,-0.399437125,1.03034433,-0.0479843579,-0.255087644,0.305334061
85373.116052,0.482517742,-0.250793208,1.05502109,-0.034832336,-0.196040019,0.274589211
85373.126079,0.40433856,-0.0937441594,1.02228144,0.00331611466,-0.115736395,0.233372763
85373.136106,0.256683874,-0.061635349,0.959694926,0.0347427465,-0.0301727615,0.18798025
85373.146133,0.132473995,-0.113276397,0.925373555,0.0454177596,0.0412790515,0.131195545
85373.156160,-0.14637378,-0.231606131,0.747254537,0.0841563717,0.0711298883,0.0969281197
85373.166187,-0.260707576,-0.349550374,0.30595337,0.105223306,0.0530273207,0.0818426386
85373.176213,-0.279074204,-0.558642475,-0.0944727659,0.106207348,-0.0152356224,0.0856996998
