t,ax,ay,az,gx,gy,gz
92366.683546,-0.56774902,0.00357516411,0.0768927586,-0.0192672315,0.00719805401,-0.148911745
92366.693570,-0.37264113,-0.106401205,0.143461619,0.0102871989,-0.0271173104,-0.132995889
92366.703594,-0.0838550577,-0.2636744,-0.189739239,0.0141786101,-0.0157040659,-0.127506852
92366.713618,-0.169920463,-0.1206827,-0.348318275,0.00127506168,0.0520707179,-0.137905166
92366.723641,-0.257100715,0.230574898,0.242392533,-0.046389662,0.0344334018,-0.132402271
92366.733665,-0.11985177,0.346421163,0.641571299,-0.0745480585,0.00635942411,-0.145389974
92366.743689,-0.164273561,0.653012977,-0.249822244,-0.0141038944,0.0238095202,-0.123151794
92366.753713,-0.00834703945,0.349916823,-0.391613811,0.0381196287,-0.00475527845,-0.107264437
92366.763736,-0.0839758071,0.0161155515,0.25730544,0.0216037684,-0.00435766797,-0.122241512
92366.773760,-0.0308858051,-0.0395878867,0.144968516,0.00913165294,0.00317854494,-0.119456917
92366.783784,-0.153031232,0.0487251875,-0.148436923,0.00735133018,-0.00120714875,-0.116822511
92366.793808,-0.236193481,0.117528236,-0.144399046,0.0132643466,-0.016987976,-0.112338551
92366.803832,-0.0629576695,0.190250541,-0.123581883,0.00490787968,-0.00898384522,-0.112618722
92366.813855,0.144095108,0.0740672984,-0.0150466894,0.0176455115,-0.00318561132,-0.106658832
92366.823879,0.223052417,-0.047499701,0.0442536408,0.00961022329,-0.00550948582,-0.111251988
92366.833903,0.263371367,-0.0149929409,0.125955772,-0.00377056312,-0.00433183588,-0.113865346
92366.843927,0.379528031,0.206113259,0.0203344206,0.0184119695,0.0246161927,-0.106990129
92366.853950,0.288509077,0.103118804,0.227337587,0.0128161364,-0.00760565917,-0.103339464
92366.863974,0.189624907,0.0204148379,0.117380836,0.0105937288,-0.0121495448,-0.10674645
92366.873998,0.282891767,0.129427239,-0.211189439,0.0103191563,0.0150261499,-0.103827626
92366.884022,0.232743442,0.0216409822,-0.0926402167,0.0100895918,0.00717861265,-0.100817189
92366.894046,0.188747868,-0.00476883106,0.0817080499,0.00444342446,0.00211754152,-0.0976887721
92366.904069,0.22225469,-0.0539810989,0.0900912629,0.00180636223,-0.0200785756,-0.092105985
92366.914093,0.232506583,-0.137866968,-0.293708148,0.0132907114,-0.0237297698,-0.0887698459
92366.924117,0.266908162,-0.144105259,-0.614633462,0.0243476235,-0.0140984462,-0.0885786268
92366.934141,0.484570159,-0.139277017,-0.15098953,0.0179573686,-0.00343301855,-0.0867463726
92366.944165,0.551317188,-0.217542252,0.162546258,0.0214879212,-0.0274938814,-0.0829971808
92366.954188,0.541104276,-0.322581018,-0.166832996,0.0725953203,-0.0559721257,-0.0846424776
92366.964212,0.61574878,-0.326473276,-0.419924544,0.103395045,-0.0227987285,-0.0836184922
92366.974236,0.606134126,-0.218571339,0.232549184,0.030527489,0.00868756012,-0.0928423482
92366.984260,0.476432591,0.0319366411,0.933665071,-0.0946029949,0.00383048681,-0.108282291
92366.994283,0.601679886,0.425853267,0.527621679,-0.159080528,0.0476757061,-0.11605233
92367.004307,0.665921071,0.741450189,-0.393612291,-0.0887818041,0.0772141476,-0.111776486
92367.014331,0.500917811,0.636284253,-0.349696577,0.0250331756,0.00812163357,-0.105020844
92367.024354,0.301688676,0.151575266,0.144382241,0.0560656597,-0.0561819862,-0.102319867
92367.034378,0.169995693,0.0494892124,0.0319161373,0.0868645829,-0.0475978221,-0.108388678
92367.044401,0.233857541,-0.159436227,-0.357779346,0.104089379,-0.0344455357,-0.102087371
92367.054425,0.0664014543,-0.188333547,-0.111062009,0.0870190483,-0.0231044631,-0.0980572107
92367.064449,0.177392014,-0.330903952,0.389793756,0.0446651985,-0.0381920676,-0.093737297
92367.074473,0.353766471,-0.339008165,0.311582973,0.00074035307,-0.00147746397,-0.0881736877
92367.084496,0.22365336,-0.182257533,-0.0667178399,-0.0156351592,0.026931008,-0.0956241491
92367.094520,0.148379471,-0.0719336841,-0.166269517,-0.0217923879,0.0197135747,-0.0827719944
92367.104544,0.104660494,-0.0388469504,0.189676257,-0.0107165662,-0.00162526952,-0.0869012254
92367.114568,0.342149756,0.00296353502,0.111117684,0.0121152463,0.00651974245,-0.0763599056
92367.124592,0.186861031,-0.0362731179,-0.0195077605,-0.0132593516,0.00142857725,-0.0839483145
92367.134615,0.106594997,0.0279689613,-0.162011275,-0.0203500188,0.00456498204,-0.0858964178
92367.144639,0.243394874,0.159432136,-0.180005781,-0.0126460263,0.0203058623,-0.0878791439
92367.154663,0.255759394,0.0832169474,0.152162227,-0.00815993112,-0.00199997621,-0.0907998311
92367.164687,0.205694765,-0.183009429,0.158285678,0.00280403665,-0.0211393166,-0.0931117165
92367.174710,0.237264993,-0.326247212,-0.118085039,0.00274518079,-0.00593825882,-0.0990455079
92367.184734,0.304798132,-0.33277866,-0.113601756,-0.0143738848,0.0178757269,-0.0980332422
92367.194758,0.108288366,-0.16924677,0.116499962,-0.0212453737,0.0156474604,-0.0953162837
92367.204782,0.0180962867,-0.0411325041,0.071869962,-0.0071426037,0.00680842916,-0.0795442465
92367.214806,-0.201606207,-0.0681815468,-0.0146158968,0.00712634686,-0.00453077802,-0.0631969648
92367.224829,-0.292125249,-0.216098756,-0.126673419,0.0078733635,0.00144482255,-0.0500630478
92367.234853,-0.382325379,-0.274325722,-0.190409102,-0.00348794769,0.0108934517,-0.0474009517
92367.244877,-0.188729993,-0.321746759,0.0633581543,-0.0098241403,0.000265042201,-0.0447242114
92367.254901,0.0101065438,-0.293831309,0.208948528,0.00235449493,0.000886624,-0.042865854
92367.264924,-0.0542876207,-0.130150877,0.1523785,-0.00602114649,0.0127592624,-0.0492009821
92367.274948,-0.176119445,0.0578080366,0.0447633439,-0.0168029557,0.0101871813,-0.0486015047
92367.284972,-0.268768064,0.242166971,0.0225170253,-0.0574601035,0.0304706149,-0.0550237189
92367.294996,-0.324230442,0.398539327,0.0573457621,-0.08130312,0.0425027792,-0.0534242208
92367.305020,-0.29456307,0.387383215,-0.0608977555,-0.0460700284,0.0217594147,-0.0596898462
92367.315043,-0.310136889,0.352490911,-0.316509762,0.0179523618,-0.00897000111,-0.0445319305
92367.325067,-0.465703115,0.0954508993,-0.10905476,0.0163065285,0.00273112943,-0.0568437244
92367.335091,-0.698190888,0.0035502306,0.273110912,-0.0141762787,0.00450213127,-0.0721145573
92367.345115,-0.564986716,0.0397968166,0.111328697,0.000754467845,-0.0210117496,-0.0683850649
92367.355138,-0.418565553,0.0712578488,-0.08511742,0.0162998714,-0.00293847439,-0.0688234272
92367.365162,-0.552620607,0.0889694648,0.0657394964,-0.00345545711,0.029192831,-0.082803421
92367.375186,-0.689830399,0.218165808,0.162089162,-0.00780013792,-0.00836466472,-0.0858319703
92367.385210,-0.503059727,0.18926405,-0.0822667067,0.00998232111,-0.0290289301,-0.0755681473
92367.395234,-0.528169253,0.222348556,-0.359524728,0.00795991596,0.0234992575,-0.0845954644
92367.405257,-0.64859048,0.217968624,-0.204202649,-0.0154213061,0.0409363021,-0.094158076
92367.415281,-0.504850775,0.0563717933,0.408373953,-0.0108710288,-0.0347659107,-0.0891342911
92367.425305,-0.284732745,-0.0886355021,-0.0113373135,0.0192080435,-0.0162279144,-0.0752749297
92367.435329,-0.440908574,-0.0632625028,-0.319401977,0.00695191015,0.0331196595,-0.0862873721
92367.445352,-0.554458125,0.0534554857,0.195772821,-0.0232238363,0.0292101406,-0.1002687
92367.455376,-0.557766957,0.213798772,0.345809068,-0.00915755175,-0.0208144098,-0.0900120663
92367.465400,-0.354588755,0.0839554726,-0.175063648,0.0187678222,-0.0225308168,-0.0768099802
92367.475424,-0.185839697,-0.0495144018,-0.137465447,0.00812210299,0.0182019655,-0.0882418605
92367.485447,-0.160788258,-0.105336535,0.0566203704,-0.00854475826,0.0267096997,-0.0842103663
92367.495471,-0.300168781,-0.0126173343,0.167313034,-0.0147158348,0.000227757982,-0.0779972154
92367.505495,-0.322926739,0.0733167358,-0.071674001,0.00615349429,-0.0253415186,-0.069709726
92367.515519,-0.285432455,0.067302791,-0.335476913,-0.0025624992,0.000547603607,-0.071460754
92367.525543,-0.198059858,0.046763733,-0.0190097478,-0.00534230687,0.0201042608,-0.0744797143
92367.535566,-0.184211128,0.0174495218,0.216523932,0.00544562627,-0.00164124845,-0.0589082058
92367.545590,-0.238749358,-0.196733345,0.258880142,0.003959316,-0.0364338498,-0.0528287406
92367.555614,-0.228355353,-0.206330738,-0.0945486807,0.00441551551,-0.00289799399,-0.0609513859
92367.565638,-0.0765194724,0.00409935239,-0.157577092,-0.0143110345,0.0277834848,-0.0680162164
92367.575661,0.0639177112,0.0583220688,-0.0179704679,-0.00010813005,0.0207290385,-0.0571182932
92367.585685,-0.107051517,0.111452588,0.171324023,-0.00829948049,0.00373301063,-0.0634742009
92367.595709,-0.107933469,0.0292857613,0.0123744015,-0.00732103532,-0.0109513936,-0.064638533
92367.605733,-0.0958073065,-0.174441891,-0.303813362,0.00498702999,0.00558097814,-0.0586709197
92367.615757,-0.249435642,-0.165680346,-0.143267411,-0.0218879956,0.0285193172,-0.0700431543
92367.625780,-0.22874048,-0.0433565551,0.276069762,-0.0358932915,-0.0284398388,-0.0734312239
92367.635804,0.307187401,-0.224635023,-0.105679147,0.0238246319,-0.0411934521,-0.0456294197
92367.645828,0.179362273,-0.158652,-0.520672153,0.0447634716,0.0239690409,-0.0626060071
92367.655852,0.130302867,-0.222106728,0.105224535,0.0192463917,0.00657726652,-0.0504856932
92367.665875,0.253138872,-0.314363225,0.863438273,-0.00532499637,-0.0416150283,-0.055976067
92367.675899,0.152163054,-0.0926229825,-0.333939036,0.0212168653,0.00746170259,-0.0422658439
92367.685923,0.0912537359,-0.0424343805,-0.460949213,-0.0108555828,0.0393714343,-0.0536191652
92367.695947,0.0192365337,0.00318006385,0.479144356,-0.0412451814,-0.00557793337,-0.0500550608
92367.705971,0.0733853857,0.167880395,-0.0867657717,-0.0359886329,-0.0117796365,-0.0435188639
92367.715994,0.0200092008,0.23256187,-0.565965,0.0029646253,-0.0209672752,-0.0421758297
92367.726018,0.477910737,0.0331691238,-0.293131225,0.0231846754,0.0263427157,-0.04000216
92367.736042,0.459186346,-0.18447004,0.341393005,0.00724352634,0.00419160691,-0.0416224266
92367.746066,0.135567053,-0.171919039,0.462135939,-0.0195406846,-0.00451479932,-0.0544596578
92367.756089,-0.000539846568,-0.0942583469,0.192746751,0.00179576378,-0.022548661,-0.0416658337
92367.766113,0.170496135,-0.21657337,-0.111432595,0.0200959404,-0.00690951324,-0.030531958
92367.776137,0.112594393,-0.196377372,-0.118144076,-0.0118665186,0.0320480053,-0.042404596
92367.786161,0.0381476754,0.00508759624,0.0558564003,-0.00639745111,0.00333060687,-0.0330140258
92367.796185,0.0280964859,0.117944818,-0.0373549673,0.011843072,-0.00221089865,-0.0272059369
92367.806208,0.234333141,0.0794138654,-0.000359992419,0.0108600992,0.00729205892,-0.0248700793
92367.816232,0.136945995,-0.0781664776,0.0595219371,0.00938763719,0.000308718086,-0.0290046337
92367.826256,0.10583921,-0.0296648057,-0.13079196,0.00610236142,0.0106612245,-0.0276024791
92367.836280,0.0651381107,-0.11290781,0.114165381,-0.000429040992,-0.0279197249,-0.0294272791
92367.846303,0.171099143,-0.182985811,-0.190484505,0.0168649942,-0.0144049808,-0.0190350938
92367.856327,0.375437072,-0.195180727,-0.254327155,0.0151568434,0.0165473424,-0.0169437121
92367.866351,0.412354598,-0.32765686,0.25642515,0.00889894709,-0.00560962488,-0.00746951745
92367.876375,0.405474337,-0.184020835,0.174720096,-0.0101178869,-0.00954551096,-0.00824556248
92367.886399,0.47742299,0.0152263841,-0.0991447763,-0.0015126812,-0.0144907351,0.0041969928
92367.896422,0.640321642,-0.0351220664,-0.300367021,0.022964697,0.00669923951,0.0202736964
92367.906446,0.501035629,-0.176711388,-0.00178856392,0.00432416907,0.0150567718,0.0138157976
92367.916470,0.429762865,-0.305738677,0.257840277,0.0038184346,-0.0183874707,0.0180113425
92367.926494,0.479172683,-0.234970338,0.0576187338,-0.00351031806,-0.0135277355,0.0271108297
92367.936517,0.500709794,-0.0473198692,-0.262301202,0.00700250983,0.0149947197,0.0344944445
92367.946541,0.390532277,-0.075894715,-0.161415647,0.00175554997,-0.000524851358,0.0349021738
92367.956565,0.221166566,-0.0777257663,0.187368565,-0.0105109702,-0.0170596189,0.0269465146
92367.966589,0.244516042,0.0221534252,0.0190145701,0.00636654737,-0.0117700485,0.0337780562
92367.976613,0.291967292,-0.119843729,-0.0397707963,0.0059769267,-0.0122574077,0.0324717757
92367.986636,0.351288062,-0.117037001,0.233442334,-0.0142569722,0.000967051504,0.019956514
92367.996660,0.411038803,0.0082630662,-0.029790085,0.0042709058,-0.00139650386,0.0242756304
92368.006684,0.183233909,0.075995216,-0.238507654,0.00692830903,0.00879666083,0.0280593631
92368.016708,-0.0109825859,-0.0258436765,0.135284742,-0.00551264763,-0.0111698567,0.0239011028
92368.026732,0.11446057,-0.136868623,0.125244409,-0.000489659556,-0.0150745831,0.0275392474
92368.036756,0.0674309708,0.00908515971,-0.15068967,-0.00564633852,0.0164143663,0.0196720024
92368.046780,-0.192931866,0.238593424,0.0161153416,-0.0296962804,0.0236919873,0.0153227949
92368.056804,-0.308453064,0.259704564,0.297764876,-0.0488236363,-0.000606694472,0.00916183806
92368.066827,-0.35090002,0.283135508,-0.0849408944,0.00672218034,-0.0233402367,0.0144860295
92368.076851,-0.221287132,0.00630588599,-0.591242649,0.0404817422,-0.0171654302,0.0222736445
92368.086875,-0.399349432,-0.144839492,-0.21551607,0.0510536914,-0.0105498725,0.00903240843
92368.096899,-0.124473813,-0.304462885,0.205378269,0.0296663788,-0.00893945932,0.0126737484
92368.106923,-0.197121079,-0.194846381,0.376290131,-0.00719336869,-0.0042525617,0.00332125901
92368.116946,-0.16602709,-0.0258253188,0.00981361107,0.00802872766,-0.0126295354,0.0140314276
92368.126970,-0.225112444,-0.0224892149,-0.329506607,0.0267398317,0.000880148398,0.0274678745
92368.136994,-0.36924429,-0.184137995,0.166888671,0.00278789264,0.00336700831,0.0157177408
92368.147018,-0.424017243,-0.1219091,0.32878253,-0.000654775598,-0.00936556454,0.0169696935
92368.157041,-0.359188176,0.0351437301,0.0482190373,0.00972169887,-0.0082070896,0.0275925097
92368.167065,-0.451181144,-0.00369665352,0.0579805529,0.00689075857,0.00612071682,0.0256212388
92368.177089,-0.550974228,0.00474006144,0.0925532691,-0.00201831415,-0.011039628,0.0201998425
92368.187113,-0.566176035,0.140657311,-0.245176465,0.00878772855,0.00199148561,0.0228899007
92368.197137,-0.608322182,0.264608959,-0.26234095,0.0159705409,0.0173914802,0.0194035561
92368.207160,-0.633410446,0.164726753,0.183459867,0.00255459983,-0.00688110139,0.0134090471
92368.217184,-0.514470836,0.0034705347,0.193612428,-0.00447374845,-0.0485276136,0.0169763525
92368.227208,-0.352073521,-0.150354913,-0.379066464,0.0020219676,-0.0132521823,0.0256974042
92368.237232,-0.402259329,-0.234881125,-0.314142449,-0.0158672839,0.0167893392,0.0148282458
92368.247255,-0.398162122,-0.170431048,0.202358044,-0.0221198539,0.00923901205,0.0105027395
92368.257279,-0.166059312,-0.193729159,0.451296565,-0.0141500778,-0.0422089997,0.00950938063
92368.267303,-0.108893272,-0.121653171,-0.0438811542,0.00337325542,-0.00360115278,0.00693809819
92368.277327,-0.155225527,-0.0337112132,-0.341652971,0.000872014608,0.0380485576,0.0044131551
92368.287351,-0.173460766,-0.0115884114,0.189433096,-0.000895791752,0.0123543783,0.0010636977
92368.297374,-0.294994685,0.0671008022,0.163677893,-0.00709030434,-0.0178213682,0.000198969343
92368.307398,-0.308697832,0.159909617,-0.256062016,0.0103304979,-0.00861908063,0.00129992022
92368.317422,-0.208612232,0.074368656,-0.252276652,0.0187950895,0.0226325818,0.000896717147
92368.327446,-0.28658789,0.0083141388,0.144132065,-0.015089907,0.00439126012,-0.0139687809
92368.337469,-0.275257006,0.12659702,0.296411123,-0.0109939653,-0.0235434345,-0.0109498224
92368.347493,-0.0575628476,0.16127285,0.0846803437,0.0143340283,0.0226397716,0.00440063812
92368.357517,-0.365267057,0.0225194455,0.371080288,-0.0312630165,0.0183065437,-0.0111098777
92368.367541,-0.549704427,0.0639144089,0.402550946,-0.0342369716,-0.0285504445,-0.00708291148
92368.377565,-0.375815558,0.0445019255,-0.485717744,0.0462978181,-0.025458515,0.00808325755
92368.387588,-0.499497833,-0.226761513,-1.10461478,0.0558034402,0.0164500528,0.00089778258
92368.397612,-0.582688011,-0.279406441,-0.057198901,-0.000366088883,0.00862275683,0.00903853374
92368.407636,-0.387217717,-0.0355339899,0.879154897,-0.0491943474,-0.0109046058,-0.00291160335
92368.417660,-0.0866276825,0.192875464,0.254994825,-0.0612994808,-0.0119773265,-0.00685388064
92368.427683,-0.15295245,0.311063653,-0.692155093,0.00867054954,0.0192410458,0.000441050814
92368.437707,-0.108053533,0.0786651294,-0.31333347,0.0250910685,0.0353350599,0.00710214926
92368.447731,-0.510057257,-0.128849731,0.812094455,-0.0261263124,-0.0113767836,-0.0163717515
92368.457755,-0.432088321,-0.0170033126,0.402006172,-0.00929779775,-0.0508866425,-0.0161288719
92368.467779,-0.218388981,0.185839702,-0.557008371,0.0165724155,0.00624908148,-0.00708024976
92368.477802,-0.468809922,0.17690808,-0.43863509,-0.0195797312,0.0392869261,-0.0211486633
92368.487826,-0.402687126,0.187874423,0.259077126,-0.0218631256,0.00440404298,-0.00963928019
92368.497850,-0.252513168,0.192979509,0.333111499,-0.00358904649,-0.0179329536,-0.0186032153
92368.507874,-0.195512895,0.224146856,-0.0403991573,-0.0012025878,0.0095391503,-0.0279711506
92368.517898,-0.31428356,0.289591333,0.238053042,-0.0217467438,0.0276212149,-0.0498082715
92368.527921,-0.286930328,0.371993557,0.357489569,-0.0665949064,0.0109682024,-0.0492503422
92368.537945,-0.273044116,0.477547141,-0.0448163893,-0.0794792849,-0.00493912478,-0.0663491639
92368.547969,-0.420788088,0.700066551,-0.965468761,0.0186776441,0.0393979807,-0.0714943933
92368.557993,-0.0447935376,0.453940604,-0.0979318934,0.01153185,0.0441192311,-0.0755706283
92368.568016,-0.143919212,0.0615058317,1.2023844,-0.0218490104,-0.0469638075,-0.0991952571
92368.578040,-0.340808652,0.277546894,-0.221298745,0.0114865766,-0.0176490604,-0.0845007378
92368.588064,-0.163042028,0.521659876,-0.642830213,-0.0223006814,0.0376922261,-0.117646702
92368.598088,-0.0421654313,0.537869508,0.173481494,-0.0539616722,0.0307714675,-0.116263725
92368.608112,0.0988775453,0.854659439,0.35565417,-0.0926110673,0.0424371805,-0.135013983
92368.618135,0.0587474324,0.966560894,0.0787544608,-0.0483296181,0.0196144205,-0.130700991
92368.628159,0.187797947,0.457561826,-0.152917868,0.0469231305,-0.0682869445,-0.116972126
92368.638183,0.0215820511,0.140091914,-0.684182799,0.11268004,0.0122587705,-0.149616093
92368.648207,0.0797394218,0.0352431901,0.241499968,0.0650395525,0.00510259033,-0.136969805
92368.658230,-0.0145770028,-0.0821767544,1.11777544,-0.0493365604,-0.0472365137,-0.166855276
92368.668254,-0.0802311864,0.546361223,-0.294534077,-0.0537113364,0.0267538239,-0.150312513
92368.678278,0.245552856,0.721765684,-0.564286838,-0.0232200048,0.0620636117,-0.156026066
92368.688302,0.406518001,0.543444532,0.413978349,-0.0279431216,0.0177294366,-0.138982624
92368.698326,0.829222969,0.313236284,0.363376874,0.0132522515,-0.0267506804,-0.121142902
92368.708349,0.694891217,0.15071706,0.0114748223,-0.000648916647,0.0380536166,-0.131487429
92368.718373,0.0614614041,0.189750592,-0.0749449855,-0.0363509881,0.00881929756,-0.159050077
92368.728397,0.148562098,0.268002108,-0.5924152,0.0328283493,-0.0279762674,-0.130931095
92368.738421,0.504397141,0.0615082428,-0.384091014,0.0743326467,0.0331502032,-0.143534243
92368.748444,0.625674766,-0.128573417,0.490938255,0.069717392,0.00569913829,-0.127039954
92368.758468,0.862698611,-0.319822403,0.973241879,0.06438335,-0.0840001221,-0.140453488
92368.768492,0.615876644,-0.303729968,-0.6047755,0.0888332945,-0.0167055022,-0.120461397
92368.778516,0.225722622,-0.358624172,-1.4749772,0.0815175918,-0.0149997476,-0.0999231043
92368.788540,0.602272445,-0.544529459,0.0270003082,0.0650571284,0.000641529177,-0.0907373282
92368.798563,1.11401701,-0.3927593,0.868342412,-0.0157935138,0.0263610069,-0.0813480842
92368.808587,0.958767268,-0.320158357,0.655907283,-0.0514998476,-0.0314146731,-0.0746363851
92368.818611,0.780295272,-0.305218745,-0.379833941,-0.00129846164,-0.00195744993,-0.0573293048
92368.828635,0.783329818,-0.234811585,-0.643771878,0.00123100873,0.0374629271,-0.0477911907
92368.838659,0.823834043,-0.478957794,0.288297375,-0.0202034435,-0.0105248386,-0.0447272289
92368.848682,1.15186736,-0.412292341,0.130858158,0.0116237287,-0.0041159418,-0.0305397681
92368.858706,0.825672218,-0.388433327,-0.341496904,0.0178480686,0.0250683088,-0.021391012
92368.868730,0.505910834,-0.514489637,0.0718302145,-0.00124945952,0.0145264525,-0.0231452345
92368.878754,0.664844016,-0.264181692,0.241957649,-0.00499892404,0.0022724491,-0.025971914
92368.888777,0.828868895,0.0155497161,0.155564729,-0.0298241119,0.010255274,-0.0231726675
92368.898801,0.630138029,0.156103411,-0.068842577,-0.0404330793,0.041419584,-0.0281133636
92368.908825,0.51443287,0.102315488,-0.178011977,-0.0276586957,0.0307975669,-0.0233087524
92368.918849,0.43458908,0.047293255,0.0365455507,0.0145271073,-0.00948034726,-0.0210538547
92368.928873,0.634882739,-0.204285295,0.0215239226,0.0451425423,-0.00811015102,-0.0147229883
92368.938896,0.319678397,-0.284328371,0.0190952342,0.0347897668,-0.00349569121,-0.0171541891
92368.948920,0.233486735,-0.311358088,-0.0119855483,0.00110797077,0.00216752048,-0.01798616
92368.958944,0.183807452,-0.0609735882,-0.198735616,-0.00519493252,0.0286859476,-0.0195728711
92368.968968,0.307668828,0.0691453684,-0.0748386026,-0.00374484139,0.00998496324,-0.0120587631
92368.978992,0.157606368,0.0393470818,0.116847752,0.00315407727,-0.00178274638,-0.00922223022
92368.989015,0.224612944,-0.0984718912,0.0671744977,0.00164007028,-0.00909418832,-0.0118433128
92368.999039,0.263160993,-0.244213017,0.00701492026,-0.00479892066,0.00235127858,-0.0120688829
92369.009063,0.0535493295,-0.244345229,-0.142941248,-0.00773554791,0.00767417778,-0.0139451886
92369.019087,0.0284685272,-0.077270917,-0.0605067103,-0.00751610316,0.00889736754,-0.01612472
92369.029109,0.149559977,0.0107348449,0.210769314,-0.00261135988,-0.00787495389,-0.0121331739
92369.039134,0.163687698,0.0563262006,-0.032245077,-0.000121037861,0.00422644955,-0.00768250068
92369.049158,0.0409289767,0.0714280725,-0.0569504792,-0.0157742988,0.0088494305,-0.010955524
92369.059182,0.0322705544,0.102120568,0.0302636939,0.00609264959,-0.00056111508,-0.00709287663
92369.069206,0.0700048171,-0.0926136119,-0.10348076,0.0122429539,-0.00575241479,-0.00202807625
92369.079229,-0.101545485,-0.238295025,0.115286494,-0.0164408873,0.00346585074,-0.0139294772
92369.089253,-0.145806176,-0.0385532647,-0.0541506193,-0.0136288575,0.00543419332,-0.00792458122
92369.099277,-0.215557374,0.123800558,-0.224457502,-0.0029597013,0.0112476075,-0.00674133775
92369.109301,-0.377395777,0.162354599,-0.100847489,0.0108101728,0.000239164821,-0.00558659182
92369.119325,-0.282081701,0.115018518,0.0811510006,0.0172840521,-0.0139541518,-0.0121880363
92369.129347,-0.121000629,0.0948942518,0.202843197,0.0109782188,-0.00604988994,-0.0243674687
92369.139372,-0.0452087628,0.226013618,0.0891297244,0.000910937023,0.00865635243,-0.022348529
92369.149396,-0.154836583,0.238889447,-0.113777697,0.000253668921,0.00249486244,-0.011782436
92369.159420,-0.354094104,0.105229658,-0.216554181,0.0169807185,-0.0018242524,-0.00958506232
92369.169444,-0.362362385,-0.175395282,-0.0801980838,0.00501939578,0.00264879283,-0.0203186667
92369.179467,-0.283162336,-0.192890114,0.328144232,-0.0208678602,0.0101679616,-0.034361251
92369.189491,-0.163135972,0.0907930818,0.308629969,-0.0199181776,-0.0104038924,-0.0225072524
92369.199515,-0.061297262,0.2695059,-0.0635584991,-0.00673419965,0.000656215901,-0.0210494383
92369.209538,-0.251187966,0.287384598,-0.35399632,0.0166150664,0.0101549128,-0.00976535892
92369.219563,-0.282336133,-0.122909655,-0.160590302,0.0221549735,-0.0124606512,-0.0111187774
92369.229586,-0.311571196,-0.370403019,0.082510014,0.0412477066,-0.0406187888,-0.00448058107
92369.239610,0.00199115376,-0.396698284,-0.0398128819,0.0230532584,-0.0210967496,-0.0011985016
92369.249634,0.130429708,-0.139192499,0.0775059221,-0.0224721491,0.0365103517,-0.016470399
92369.259658,0.257295079,0.0904871942,0.363976009,-0.0553997423,0.0284529604,0.000340806046
92369.269682,0.122609764,0.290374318,0.361227587,-0.0813077691,0.0213487108,-0.0161369706
92369.279705,-0.0208460708,0.428948968,-0.187534423,-0.0432416129,0.0244539563,-0.00656823283
92369.289729,-0.117533839,0.314277829,-0.425922908,0.0248042864,0.00026233438,0.00524528297
92369.299753,-0.174904242,-0.142291981,-0.0590477437,0.0624022593,-0.0382794629,-0.0111693761
92369.309776,-0.122252474,-0.275996413,-0.110586792,0.112504579,-0.0521646555,0.0110112929
92369.319801,-1.35960985,-0.736962833,-0.871104131,0.210651911,-0.095773917,0.0459730026
92369.329824,-0.717554418,-0.563861827,-0.033740284,0.1095514,-0.027660644,0.0529257205
92369.339847,-0.597168701,-0.539866947,0.850600419,0.0102996451,-0.0103879127,0.0198157036
92369.349872,0.0492444079,-0.327805767,0.765831301,-0.155325271,0.0512794439,0.0370482204
92369.359896,0.384230875,0.0350213823,0.281310585,-0.206870489,0.0840632204,0.0307762099
92369.369920,-0.187692157,0.181186981,-0.43873855,-0.126915731,0.114323128,0.0387872641
92369.379943,0.411490382,0.339905205,0.010104703,-0.0460469837,-0.00563630122,0.0494779942
92369.389967,-0.0666966916,0.237414096,0.0816870071,0.00898244575,-0.0548235517,0.044308528
92369.399991,0.335240269,0.402754972,-0.855415564,0.022668963,0.0496953983,0.0561271084
92369.410015,0.055302233,0.147706206,0.316983371,-0.0313884135,0.00308501874,0.0303309296
92369.420039,0.541907445,0.00562548424,0.390122257,0.0223706902,-0.0361878167,0.0561888886
92369.430062,0.525561035,-0.0891639099,-0.477641989,0.0812816766,-0.021049878,0.0428919938
92369.440085,0.419353006,-0.223016463,-0.326986733,0.105921238,-0.0537194054,0.0663395298
92369.450110,0.335791108,-0.24227646,0.0645353813,0.0462472585,-0.0194988533,0.0523424891
92369.460134,0.362361062,-0.0581325195,0.487242907,-0.0495650212,0.00685765282,0.0306409203
92369.470158,0.579934174,0.0785360961,0.307663754,-0.0598908964,0.0187193729,0.0430975926
92369.480181,0.564112336,0.200438611,-0.17532493,-0.0249978903,0.0202664022,0.0329157931
92369.490205,0.390797212,0.148442667,-0.288309504,0.0146568424,-0.00825898196,0.042363092
92369.500229,0.330578926,-0.0728978712,-0.151944639,0.017810825,-0.0162932057,0.0393641067
92369.510253,0.403905553,-0.147484527,0.0159604433,-0.00657334441,0.0171752718,0.0311490518
92369.520276,0.505220148,-0.0501652304,0.21555421,-0.00942399196,0.00789016033,0.0305407864
92369.530301,0.408545853,0.0609374755,0.111249786,0.00287954573,-0.0100427674,0.0301847213
92369.540324,0.283263286,0.127939411,0.10090784,-0.0120093891,-0.0087005341,0.0212335696
92369.550348,0.226302577,0.197220581,-0.0552039278,-0.0119555931,0.00503525198,0.013761806
92369.560372,0.324623525,0.179354212,-0.185554063,-0.000921051432,0.0141672312,0.0184937117
92369.570396,0.283897419,-0.0694608095,-0.0382960476,0.0070141034,-0.00556892329,0.0241460034
92369.580420,0.236112152,-0.326565923,0.0116975251,0.0069107727,-0.00577212251,0.021517731
92369.590443,0.245889157,-0.34374345,-0.0798608146,0.00806551956,-0.00546532623,0.0331043449
92369.600467,0.333493535,-0.195308117,-0.00190605282,-0.0154081148,0.0118880976,0.0256956962
92369.610491,0.297085164,0.101508866,0.0468167693,-0.0194513261,0.00885768667,0.0268379261
92369.620514,0.361680678,0.222837965,-0.00244381296,-0.00252773666,-0.00495186854,0.0262997017
92369.630539,0.330790231,0.133769908,-0.0771024558,0.00642874062,-0.000803196434,0.0310782117
92369.640563,0.298702025,-0.0304740214,0.043511298,-0.00116446434,-0.0020303811,0.0255074107
92369.650585,0.251872944,-0.105323931,0.0351275005,0.000385229091,0.00514417481,0.0293024161
92369.660610,0.17355861,-0.0987632023,-0.0399859004,0.00259272329,0.00178379835,0.0324326974
92369.670634,0.0919529245,-0.0449080223,0.039625981,0.00233199976,0.000502817818,0.0312300117
92369.680658,0.0554927643,0.0245051212,0.00147715988,0.00267501495,0.00322030731,0.0328899619
92369.690682,0.0393360906,0.0856714097,0.0475743097,0.00213439314,0.0016120244,0.0319573206
92369.700705,0.0445230831,0.0871138087,0.115812564,0.00322256091,0.00200377535,0.0280454044
92369.710729,-0.0138542848,0.126072887,0.0766145262,0.000254201551,0.000733980172,0.02406105
92369.720753,-0.142657028,0.125388868,-0.0131703742,0.000453672307,-0.00043115274,0.0250972842
92369.730777,-0.174216936,0.077356878,-0.106688616,0.00104329624,0.00463018487,0.0249979493
92369.740801,-0.227820096,-0.0388542204,-0.0107668201,-0.000656865835,0.00663740947,0.0236495898
92369.750825,-0.320877953,-0.12628589,0.0531237605,-0.00538877055,-0.0019246534,0.021906018
92369.760848,-0.325227235,-0.155509172,0.0209411543,-0.0029575709,-0.00270495969,0.0221955047
92369.770872,-0.329075434,-0.150404177,-0.14336035,0.00439381896,0.00659666317,0.0246786361
92369.780896,-0.320180838,-0.204384572,-0.105633554,0.00472777959,0.0134652216,0.0286787038
92369.790920,-0.382865367,-0.301334542,0.160425028,-0.00539729262,0.00122133866,0.0322092545
92369.800943,-0.371414401,-0.217598676,0.103846232,-0.00243532501,-0.00516918241,0.0333861073
92369.810968,-0.306373554,-0.0891542652,-0.0324747941,-0.00098203781,0.0161225234,0.0364791003
92369.820991,-0.323410467,0.0792849783,0.0686749654,-0.00497704588,0.0192056649,0.034786131
92369.831014,-0.391571163,0.148812122,0.118488505,-0.00781277969,0.00298834606,0.0365233121
92369.841039,-0.526655999,0.179984674,-0.0772497554,0.00194264569,-0.00506025912,0.0352889371
92369.851063,-0.465192864,0.143859961,-0.255457036,0.00602527166,0.00138512302,0.0345469785
92369.861087,-0.419298909,0.107705547,-0.115546461,-0.00858110126,0.0158894971,0.0290118658
92369.871110,-0.36698957,-0.00205871359,0.100662341,-0.00482098462,0.000359273419,0.0339206007
92369.881134,-0.330355355,-0.157684452,0.133870783,-0.000530365687,-0.0159259572,0.0387065706
92369.891158,-0.311200645,-0.150779677,-0.035088776,-0.010485262,0.000850094036,0.0358876136
92369.901182,-0.263016241,-0.0459537502,-0.120403837,-0.00400073111,0.0204432361,0.0353693624
92369.911206,-0.27514465,-0.0611017263,0.0691940208,0.00581008818,0.0065902715,0.0449612734
92369.921230,-0.342715508,-0.0774717185,0.2727035,-0.00187792519,-0.00909628007,0.0412040797
92369.931254,-0.167645138,0.00669055619,0.128889488,-0.00176074607,0.000403748204,0.0387055052
92369.941277,-0.0491875713,0.0918215663,-0.0973654917,-0.00314132899,0.0121663982,0.0381923166
92369.951301,0.00185202614,0.123579316,-0.0669943188,-0.00245050487,0.0122108726,0.037357412
92369.961325,0.114654019,0.0782214955,-0.0104131844,0.0130922354,-0.00458381963,0.0382205431
92369.971349,0.0975418031,-0.000588275708,-0.187987427,0.0144895964,0.0123235245,0.0376919058
92369.981372,0.0704481176,-0.015913435,0.00940736836,-0.00110054849,0.0100188252,0.022590717
92369.991397,0.0491007023,0.13745066,0.0885656607,0.00503777124,0.000784580266,0.0242298932
92370.001420,0.25950101,0.313513056,-0.0580628243,0.00419461465,-0.00383493896,0.0270837356
92370.011443,0.286527092,0.211979576,-0.103842579,0.00632917386,-0.0101568199,0.0285345164
92370.021468,0.241621855,-0.0373917832,-0.249702418,0.018307272,0.00266097453,0.0361002904
92370.031491,0.0893096617,-0.266812789,-0.0253611627,0.00698590947,0.00419016149,0.0303393413
92370.041515,0.205254072,-0.302388892,0.274375817,0.000711768335,-0.014843983,0.0301563812
92370.051539,0.329512028,-0.187698555,0.144486285,-0.000505562587,-0.00343207163,0.0291046982
92370.061562,0.291770289,-0.00922124389,-0.0530388587,-0.00270773035,0.0206807215,0.0313196478
92370.071586,0.199462574,0.0989661408,0.0723510235,-0.00148241007,0.00205190947,0.0323170011
92370.081610,0.120499211,0.0305523472,0.0214812525,0.00757233722,-0.00461584689,0.0373152231
92370.091634,0.0760600026,-0.0907861225,0.0738585055,-0.00264408073,-0.00827875859,0.0268905458
92370.101658,0.00766152527,-0.112857158,-0.0276109874,-0.00595811877,0.00828317334,0.0226209664
92370.111682,0.0269924268,0.0154624762,-0.0110228407,-0.00954805903,0.00344660706,0.0241863725
92370.121705,0.011677443,0.118886647,0.00288994929,0.00866822869,0.00275871241,0.0332062316
92370.131729,-0.0235970751,0.103085066,-0.0726536597,0.00767300481,8.43660868e-05,0.0360486244
92370.141753,0.0370453448,-0.0505581022,0.0660831953,0.00920592126,-0.00378387547,0.0336669606
92370.151777,0.0547130349,-0.0793174012,0.0225596954,0.00643490132,0.0040053382,0.0312301663
92370.161801,-0.0446035269,0.0346008371,-0.00825454506,0.000403640611,0.00420560795,0.0289627497
92370.171825,-0.0895255228,0.146281708,-0.0426612571,0.00411129341,-0.00545607401,0.0276335661
92370.181849,0.0656156833,0.178307443,-0.133474331,0.00734277273,0.00379707911,0.0296919269
92370.191872,0.0340883947,0.0863780418,-0.0182323337,0.00858034443,0.00654173283,0.0267406103
92370.201896,0.0229581069,-0.0504641768,0.035512116,0.00689829158,0.00744880563,0.0265643072
92370.211920,0.074449727,-0.205364103,0.216278433,-0.00314289082,-0.00736156558,0.0232896858
92370.221944,0.154328351,-0.261041932,0.101650183,0.00112881936,0.000513933968,0.0255608295
92370.231968,0.134743324,-0.178269925,-0.160503793,0.00407241115,0.0215497107,0.0255863962
92370.241992,-0.03006947,-0.10951203,-0.0125122025,-0.0041753988,0.00591402561,0.0250870545
92370.252016,-0.0724289334,0.00488840214,-0.00323700916,0.00409424927,-0.00562119005,0.0286061537
92370.262039,-0.0846213659,0.0760787113,-0.140289272,0.00774517672,-0.00213031876,0.0317585391
92370.272063,-0.0816595752,0.0255404008,-0.0409193818,0.00103001604,0.00931914304,0.0296924559
92370.282087,-0.0718522569,-0.0320488512,0.15210962,-0.00112501387,-0.00537538049,0.0297513117
92370.292111,-0.0718533437,-0.0253691178,0.0828244867,-0.00257031137,-0.014376066,0.0329934468
92370.302135,0.0279822347,0.0125361039,-0.0487063824,0.000668092508,0.00343275829,0.0267395449
92370.312159,0.0977184292,0.115494758,-0.0355359352,0.00296906375,0.0186974664,0.0201895011
92370.322183,-0.0511633969,0.106617094,0.025071386,-0.000526867872,-0.00109887633,0.0202201267
92370.332206,-0.0517525401,0.0361003732,0.0545470713,-0.00161450281,-0.0174368362,0.0188792252
92370.342230,0.130672166,-0.0344892849,-0.135042604,0.00490438256,0.0108973325,0.0167790555
92370.352254,0.125905079,-0.0388681759,-0.092087259,0.00121830153,0.0181877368,0.0121787113
92370.362278,0.0472083036,-0.0697849451,0.115608566,-0.00537701679,0.000710741578,0.0145571807
92370.372302,0.00529555533,-0.0532174576,0.112296665,-0.00513067452,-0.015173416,0.0185947993
92370.382326,-0.0040644736,-0.0589518731,-0.192516887,0.00270834023,0.00274885879,0.0257467178
92370.392350,-0.0475169119,-0.135794637,-0.0755014504,-0.00607210195,0.0132387836,0.0198012103
92370.402373,0.0694406347,-0.105793357,0.216717409,-0.0059048555,-0.00506006214,0.0176863947
92370.412397,0.152914283,0.0233425619,-0.0255423645,0.00950286321,-0.0119938686,0.0225562525
92370.422421,0.0035706632,0.118431852,-0.164225443,0.0105873027,0.000794098499,0.0207341162
92370.432445,-0.0131719605,0.183340414,-0.00349361427,0.00372912984,0.00937560168,0.0173678805
92370.442469,0.0933264779,0.241914348,0.179523697,0.00570386339,-0.00971873044,0.0169899796
92370.452493,0.206146783,0.212692382,0.0558002862,0.0153876503,-0.015072483,0.0240377669
92370.462517,0.155429901,0.0443814592,-0.205420208,0.0153024296,0.00432784683,0.0246281919
92370.472541,0.0188937162,-0.10642517,-0.0732627315,0.00574354472,0.0130481009,0.0231663805
92370.482564,-0.0498213803,-0.152837907,0.182629846,0.00369743833,-0.00784413084,0.0231810284
92370.492588,-0.089210155,-0.0520824622,0.0837193898,-0.00405955112,-0.0142474355,0.023199137
92370.502612,-0.109988027,0.0678574292,-0.04394136,-0.00800795324,-0.00295802891,0.019001465
92370.512636,-0.104900549,0.11699634,-0.0904891762,0.00112988467,0.0041611331,0.0199460869
92370.522660,-0.231544852,0.0251340667,0.00677526629,-5.09609884e-05,-0.00881778296,0.0203689967
92370.532684,-0.13925807,-0.250893628,0.134881422,0.0113292594,-0.0200147762,0.0244116743
92370.542708,-0.019695154,-0.46366429,0.0208809485,0.00567803083,-0.00396497022,0.0241466907
92370.552732,-0.183919707,-0.279661183,-0.0726519062,-0.0125108262,0.00776039543,0.0220811439
92370.562755,-0.185897528,0.141676918,-0.131493971,-0.00876349241,-0.00317907134,0.0210925785
92370.572779,0.0823893975,0.360264395,-0.0459111988,0.00278583838,-0.00940793972,0.0236737129
92370.582803,0.155854337,0.387160549,-0.0732790982,0.010163061,0.0127255923,0.0182643008
92370.592827,0.0605387499,0.274377781,0.0114391664,0.0119282041,0.00657768561,0.0148144417
92370.602851,0.0549009267,0.0155665394,0.207048832,0.0149037537,-0.0191793426,0.0163100732
92370.612875,0.196027157,-0.119358137,0.0671750822,0.00901736941,-0.00495619872,0.0151811593
92370.622899,0.174468619,-0.0490369205,-0.0760269356,-0.0012997173,0.0193864253,0.0137238779
92370.632923,0.140177533,0.11027642,-0.034874841,0.000862503243,0.0111346204,0.0182145012
92370.642946,0.0450964397,0.090075983,0.0790198338,0.012645926,-0.010321936,0.0242641361
92370.652970,0.053030854,-0.104544087,0.0359616133,0.00909486663,-0.00335617164,0.021451039
92370.662994,0.0912886793,-0.212989831,0.040601548,-0.00465689816,0.00745679498,0.017020337
92370.673018,0.0490900987,-0.118503493,-0.102461938,0.000302174166,0.00211316221,0.0212188118
92370.683042,-0.0229434655,-0.00350779815,-0.218419975,0.00498720694,0.00292649157,0.0245996934
92370.693066,-0.0706533934,-0.0801674421,0.0661895783,-0.00204273902,-0.00484834086,0.0199540776
92370.703090,0.0923365079,-0.118610515,0.1472803,-0.00728730235,-0.00721775541,0.0189018619
92370.713114,0.109245493,-0.0769243137,-0.0611759879,0.00123827525,-0.00315510282,0.0248755996
92370.723138,0.026117329,-0.076580487,-0.144219597,0.00416642072,-0.00352235265,0.0297792775
92370.733162,0.0333175564,-0.0246648237,-0.0376647639,0.00198449293,0.0125391713,0.0255341974
92370.743185,0.0254400782,0.16589492,0.172126572,-0.00240013522,0.00681204362,0.0167761256
92370.753209,0.0365207204,0.312314895,0.144894282,0.00864719011,-0.0128689831,0.0174115558
92370.763233,-0.0249828669,0.309882353,-0.0238706319,0.0132121143,-0.00803534626,0.0175633577
92370.773257,-0.127753894,0.149105351,-0.122301195,0.00366894242,0.0097420529,0.0137078983
92370.783281,-0.169822811,0.0256796996,0.00983406934,0.00117702252,-0.00516951816,0.0124788496
92370.793305,-0.0221215272,-0.0509892784,0.127899892,0.000352507902,-0.00497244425,0.0173100901
92370.803329,-0.013313416,-0.0605523853,0.0159703801,-0.00260200288,0.00163219533,0.0182166302
92370.813353,-0.120817071,-0.0462094785,-0.0257820184,-0.00491415972,0.00850900975,0.0209655461
92370.823377,-0.186699511,-0.0378385771,0.0930185485,-0.00277564099,0.00211076534,0.0204060149
92370.833400,-0.180139878,-0.0697876668,0.0315110636,-0.000575071149,-0.0111070362,0.0243711953
92370.843424,-0.156188235,-0.149489966,-0.00739822049,-0.00142408693,0.00193313243,0.0256369968
92370.853448,-0.188950157,-0.115327128,0.0154823044,-0.00790382393,0.0165666692,0.0228257624
92370.863472,-0.128918508,0.0051046935,0.184856874,-0.00566676894,0.00474835992,0.0198952218
92370.873496,-0.0998223052,0.11962561,0.19426943,-0.00483559614,0.00394168836,0.0197050718
92370.883520,-0.0534449593,0.202400157,0.0678063658,-0.00800662145,0.00571002778,0.0184797493
92370.893544,-0.143807751,0.119435823,-0.147672368,0.0028460258,0.0100355331,0.023500608
92370.903568,-0.188189055,-0.0400819721,-0.162482399,-0.000364947663,-0.00649257643,0.0172839907
92370.913592,-0.067908917,-0.140861163,-0.126555346,0.0116070273,-0.00371942656,0.0178389938
92370.923616,0.0920730529,-0.0520977694,-0.232788692,-0.00837387174,0.0132795299,0.0128804545
92370.933639,0.116328693,0.155468347,-0.0825794259,-0.00936243713,0.00886933566,0.0149734334
92370.943663,0.224081157,0.222956787,-0.0999455713,0.000947990739,-0.0135025497,0.0214284022
92370.953687,0.272828711,0.167653728,-0.0205002786,-0.00944286428,-0.00775624658,0.011770982
92370.963711,0.536322302,0.130049554,0.158277495,-0.0152890359,0.00241143619,-0.000527230366
92370.973735,0.708508386,0.189476871,0.00488375345,0.00187929806,0.00658833808,0.000881315866
92370.983759,0.504233731,0.148003509,0.00339088455,0.00133681221,-0.00293379403,-0.00273019662
92370.993783,0.463822116,0.0359360312,0.0939175432,-0.00579033961,-0.00295829527,-0.00540747242
92371.003807,0.529479231,0.036096446,0.0427198554,-0.0079514946,-0.00553623527,-0.00405165767
92371.013831,0.555296869,0.107684431,-0.0470779045,0.000287565949,0.00341659635,-0.00174541985
92371.023855,0.48559625,0.113202226,-0.0219428787,-0.00466165256,-0.00134034185,0.00161362505
92371.033879,0.458992284,0.0682938661,0.0878776785,-0.00533090515,7.99219319e-05,-0.000901464648
92371.043903,0.434522298,0.0711565256,0.0341460883,-0.00502597338,0.00327145415,-0.000490272692
92371.053926,0.317705781,0.116370371,-0.0423304177,-0.00230821717,0.000606695151,-0.00777028994
92371.063950,0.266498449,0.121369038,-0.0852746564,0.00467778666,0.00411887201,-0.00766962142
92371.073974,0.258364352,0.141365916,0.0402748003,-0.000834956364,0.00279128612,-0.0158356729
92371.083998,0.270419915,0.224098103,0.10161745,-0.00240036246,0.00529066301,-0.0192517082
92371.094022,0.262692262,0.298989458,0.0468565168,0.00438563822,-0.00188123002,-0.0186511653
92371.104046,0.152255801,0.260161733,0.0235148042,-0.000793411112,-0.00584880715,-0.0233668278
92371.114070,0.133450682,0.201939974,-0.0549005609,0.000403946084,-0.000971494107,-0.025378045
92371.124094,0.160523827,0.14310907,-0.0451787928,-0.00375298184,0.00322112036,-0.0332868363
92371.134118,0.136525066,0.106064922,0.063750953,-0.000132414548,-0.00393639119,-0.0313813428
92371.144142,0.119302777,0.00775780183,0.0131763655,0.00366099219,-0.0128198977,-0.0275178964
92371.154166,0.210875602,-0.148907271,-0.00207965582,0.00176961516,-0.00728611495,-0.0245596583
92371.164190,0.273756969,-0.208581147,-0.0610321955,0.00149850529,0.00761267277,-0.022529796
92371.174213,0.281878097,-0.14538781,-0.0254114316,1.5923543e-05,0.00749975503,-0.019567028
92371.184237,0.241074414,-0.0196604213,0.119579808,-0.00182352175,-0.00449272558,-0.0175789784
92371.194261,0.288642805,0.0757635079,-0.0333474853,0.0051385138,-0.00837561428,-0.0129565292
92371.204285,0.381067333,0.0744010604,-0.143161028,0.00777451059,0.00572768752,-0.010909091
92371.214309,0.448932517,-0.00691305828,-0.0237391144,-0.000839750114,0.00669308346,-0.017673787
92371.224333,0.528765566,-0.0410300301,0.0594471183,-0.00930274308,-0.00215926404,-0.0224072899
92371.234357,0.611718648,0.00637111498,-0.0025250615,-0.00430558791,0.00337345306,-0.0215731862
92371.244381,0.592199051,0.0317535396,-0.0779511816,-0.00466378342,0.0112817098,-0.0238794836
92371.254405,0.544112846,0.0135990569,0.0575988601,-0.00943377085,0.00108792833,-0.0264007005
92371.264429,0.557277046,-0.0595927831,0.0725485919,0.00190623529,-0.00434172466,-0.0236480574
92371.274453,0.515248571,-0.19761042,-0.0523836096,0.00807864375,0.00379875991,-0.0159472602
92371.284477,0.351589346,-0.311421691,0.0179530784,-0.00350903633,0.0103429459,-0.0186564925
92371.294501,0.328691615,-0.327777344,0.0566963583,-0.00354046195,0.00228422032,-0.0136715875
92371.304525,0.369464135,-0.229290064,-0.0116956254,-0.00277719979,0.0063620523,-0.00922064604
92371.314549,0.34177263,-0.101208769,-0.029361046,-0.00391170645,0.00625472716,-0.00772501649
92371.324573,0.298491761,-0.0207769677,-0.00946508989,-0.000150524057,0.00298250108,-0.00465705459
92371.334596,0.251152722,0.00648794629,0.00355455068,0.00181169312,-0.000352042824,-0.00382082192
92371.344620,0.236722849,-0.0515143435,0.0221113671,-0.00106585242,0.000184051479,-0.00384718673
92371.354644,0.222821896,-0.0440246453,-0.00871807092,-0.00330077724,0.00273269661,-0.00555560486
92371.364668,0.245489837,0.020395092,-0.0180014476,-6.23734152e-05,0.00392605913,-0.00618118075
92371.374692,0.206676305,0.0423440716,-0.028173882,0.0012287271,0.000312682144,-0.00372441513
92371.384716,0.192623102,0.0104203721,-0.0145539375,-0.000258382038,0.00157288999,-0.00338432965
92371.394740,0.21234582,-0.0272430401,0.0141735598,-0.00203231356,0.00245599416,-0.00690130079
92371.404764,0.255877577,0.029179287,0.00234459036,-0.00334631728,0.00521396347,-0.00905766086
92371.414788,0.24759028,0.0506310942,0.00862644711,0.000933648837,-9.93088857e-05,-0.00350630218
92371.424812,0.213718954,-0.0125218746,0.0381050551,-0.00121951692,0.000102558775,-0.00424133455
92371.434836,0.184088772,-0.0579156436,0.00353292337,-0.00113429566,0.000660491021,-0.00390018364
92371.444860,0.198570229,-0.0618650754,-0.0192219293,-0.0042174373,0.0044126186,-0.00749225476
92371.454884,0.221153159,-0.0203963343,0.0258026228,-0.00511385763,0.00242403629,-0.00794339487
92371.464908,0.26063743,0.0358420145,0.00948277168,-0.000811520563,0.00203894325,-0.00711009213
92371.474932,0.249827994,-0.0156154384,-0.0288238704,0.00034056286,-0.00117442697,-0.00508395889
92371.484956,0.232694434,-0.102109024,-0.00323993177,-0.00418334903,0.00361633338,-0.00544028943
92371.494980,0.231540314,-0.106369805,0.00677117464,-0.00551839156,-0.00090384982,-0.0064315184
92371.505004,0.274567847,-0.0587903076,-0.00955276818,-0.0047135845,0.00156516677,-0.0051968771
92371.515028,0.27212597,0.0227428973,0.041456119,-0.0071612958,0.00275107254,-0.00875086458
92371.525052,0.300658876,0.0999434249,0.0432348192,-0.00319664769,0.000729999524,-0.0095066701
92371.535076,0.271218518,0.133772246,-0.0181212746,0.00166122446,-0.00211372399,-0.0064858471
92371.545100,0.238140717,0.0546851006,-0.0226039729,0.00187507626,0.00169539535,-0.00609409557
92371.555123,0.201589522,-0.0647830817,0.0219862794,-0.0028688126,2.93386111e-07,-0.00544961104
92371.565147,0.182004714,-0.0875158504,0.0140473031,-0.00403447852,-4.68445747e-05,-0.00523495981
92371.575171,0.233931063,-0.0408399509,0.00655256345,-0.00556366548,0.00294388518,-0.00555374035
92371.585195,0.233715265,0.0255278518,-0.00243679869,-0.00302966737,0.00148660354,-0.00598703632
92371.595219,0.248659919,0.0252004282,0.0131208359,-0.00145840244,-0.000258299619,-0.00454599997
92371.605243,0.244769688,-0.0138769425,0.0167109694,0.00200477224,-0.00431562527,-0.00341442348
92371.615267,0.186520127,-0.0827502252,0.00743226889,-0.00156972261,-0.00414971062,-0.00280402628
92371.625291,0.174050796,-0.113989924,-0.0268382495,-0.00438628189,0.00254414477,-0.00287007289
92371.635315,0.179774178,-0.0776181595,-0.0135327777,-0.00466351707,0.00394869586,-0.00177338374
92371.645339,0.167698029,-0.0295825342,0.00112703127,0.00144124735,-0.00164793698,0.00158752613
92371.655363,0.156396024,0.00494195896,0.000822495364,-0.0030501737,0.000644778328,0.000646630959
92371.665387,0.184472547,0.0878167329,0.00724755998,-0.00206586935,0.000970482962,0.000435442389
92371.675411,0.21010765,0.130970066,-0.0389846144,0.0058533062,0.000916953451,0.00306877606
92371.685435,0.164217421,0.0346198341,0.0279209302,0.0061318727,-0.00378965107,0.00195131377
92371.695459,0.146887516,-0.0577703534,0.02508483,-0.000151322957,0.000235184232,-0.00154381925
92371.705483,0.149328917,-0.0755801874,-0.00439377798,-0.000920177502,-0.000234597459,-0.00155100906
92371.715507,0.154967462,-0.0272223261,-0.0229482563,-4.13344308e-05,0.0027310987,-0.00157950473
92371.725531,0.152910749,-0.0157620621,0.00518185962,0.000523788324,-0.00193049838,0.000587508739
92371.735555,0.149779027,-0.0497276427,0.00114573597,0.00220504187,-0.000178671073,0.00200564201
92371.745579,0.130358515,-0.0823476174,-0.0305733444,0.000628184229,0.000784327994,-0.000841276995
92371.755603,0.148083055,-0.0797846351,0.00982530151,-0.00321715401,0.00220911917,0.00119604143
92371.765627,0.18023195,-0.0130801661,0.0265753608,-0.00250662264,0.000704166848,-0.000569900773
92371.775651,0.228458185,0.0581984607,0.019090558,-0.000238142012,-0.00135445674,-0.000180546469
92371.785675,0.215525638,0.111627597,0.0198434222,0.00292569346,0.0012858012,-0.000516637503
92371.795699,0.159426515,0.0674428936,0.00802965026,0.00285565218,-0.00125192488,-0.000592271141
92371.805723,0.121673771,-0.0116433017,-0.030121509,0.00208280276,-0.00213875771,-0.00212811613
92371.815747,0.161131967,-0.0179186191,-0.016504487,-0.00119901048,0.00416680858,-0.00219682632
92371.825771,0.205489214,0.0115762276,0.00713474725,-0.00063841517,0.000828270121,-0.00233131581
92371.835795,0.222606024,0.00302070857,0.0218027396,0.00390946509,-0.00240613902,0.000123852589
92371.845819,0.216658606,-0.0478083468,-0.0310093977,0.00249479379,-0.00125565343,0.000913480022
92371.855843,0.206367221,-0.10563791,0.00909172654,-0.00482756767,0.00243042796,-0.00168709671
92371.865867,0.233720361,-0.0548580279,0.0217951408,-0.00531971997,0.00170897753,-0.00217898311
92371.875891,0.291968936,0.0351091337,-0.00799034117,-0.000468771737,0.000504163463,-0.00215155193
92371.885915,0.273384829,0.056510051,0.00563077243,0.00218240514,-0.000595189495,0.00016220259
92371.895939,0.263852154,-0.0145148933,-0.00499174387,0.000488900922,-0.000202639475,0.000697231577
92371.905963,0.271094545,-0.0512327866,0.00982062533,-0.00104534609,0.000505228721,-0.000583216823
92371.915987,0.303713314,-0.0264551777,0.0159499219,-0.00208850631,0.000889522858,-0.00229802569
92371.926011,0.331172326,0.0431601555,-0.0241611392,-0.0020299168,0.00159792371,-0.00274437228
92371.936035,0.339569713,0.0456319159,0.000826587017,0.00139091367,-0.00175339808,-4.20625275e-05
92371.946059,0.378465809,0.0259561237,-0.0014115473,0.00189132155,-0.000362961766,-0.000680155396
92371.956083,0.36672839,-0.0085211876,0.025526144,4.47194243e-06,-0.00250600754,-0.000268430724
92371.966107,0.240434052,-0.0529607794,-0.0210029675,0.00358029844,-0.00216352507,0.00220804262
92371.976131,0.117637903,-0.0488945712,-0.0195013307,0.000468394596,0.000809894312,0.00295079798
92371.986155,0.0202036069,-0.0232822467,-0.0027413346,0.00121993868,-0.000702248517,0.000801893608
92371.996179,-0.016912823,0.0280726409,0.0680290687,-0.00483795425,-0.00146071669,-0.00416969535
92372.006203,-0.0521674913,0.0807984516,0.0193945094,-0.00113323046,-0.00400749767,-0.00105539551
92372.016227,-0.0846754433,0.0377005932,-0.0322222806,0.00604903901,-0.000521340854,0.000740637728
92372.026252,-0.12457256,-0.070044418,0.00579853021,0.004074305,0.00136470983,-0.00032436037
92372.036276,-0.138178029,-0.102904942,0.0351251625,-0.00429228211,5.92282935e-05,-0.00233531305
92372.046300,-0.0860584586,-0.03631661,0.0307722279,-0.00464994444,0.000914901922,-0.00108096404
92372.056324,-0.00620078638,0.0959664293,-0.0237040431,0.000239619338,-0.000255291098,-0.00136006372
92372.066348,0.000461829301,0.103847885,-0.0090325437,0.00450280745,-0.00178288026,0.00231350093
92372.076372,0.00899093411,0.0356691422,0.00848966899,0.001806357,-0.00140684201,-0.000234345249
92372.086396,0.0196445939,-0.0110375909,0.0252484961,-0.00212899625,0.00239854878,-4.23307484e-05
92372.096420,0.0444122203,0.0081268726,0.00220021346,0.00102258875,0.00158894797,-0.00109507916
92372.106444,0.0550433446,0.0289123249,-4.02589452e-05,0.00229238386,-0.00110670375,0.00122986055
92372.116468,0.0603024615,0.0191324334,0.0131348644,0.00225243641,-0.00236664513,-0.00187085783
92372.126492,0.0900549454,-0.0174442796,0.0180752435,0.000466520659,-0.0020121784,0.000836511799
92372.136516,0.0755751874,-0.0554258361,0.00685709935,0.00219997222,-0.00298929201,0.00183067024
92372.146540,0.0725289516,-0.0573200706,-0.00271795372,-0.00232660265,0.00183422505,-0.000984823606
92372.156564,0.104246443,0.0130164165,0.0209160198,-0.00293300447,0.00306274127,-0.0011065307
92372.166588,0.116172087,0.0643490192,-0.0154453333,0.00716596859,-0.00305746901,0.0025513216
92372.176612,0.0911019337,0.0160992945,-0.0115395581,0.00293207511,-0.00338477162,0.000591501319
92372.186636,0.0597654777,-0.015868098,0.0333528921,-0.00207386871,-0.000351431178,-0.00269670346
92372.196660,0.0754646032,-0.0115700903,0.00925597719,-0.000415252004,0.00213755914,-0.00244317045
92372.206684,0.0921932361,0.0379595181,-0.00495959517,0.000523778632,-0.00120524071,-0.00148017173
92372.216708,0.0597032398,0.0066459316,0.0177923349,0.00235576712,-0.00182655603,-0.000737415901
92372.226732,0.0394059044,-0.0367027232,-0.00674238693,0.00190542667,0.00109253476,9.56204766e-05
92372.236756,-0.0162899145,-0.0497504026,-0.00643960459,0.000507267011,-0.000589517741,-0.000464975177
92372.246780,-0.039368421,-0.0257817902,0.00881992386,-0.00183072227,-0.0011639617,-0.00129241896
92372.256804,-0.0306521128,0.054582517,-0.0109410077,-0.000678372285,0.00218895813,-0.00345996608
92372.266828,-0.00973741723,0.0904576575,-0.00510631016,0.00203272577,-0.000420407023,0.000369127565
92372.276852,-0.0295418591,0.0394572642,-0.0035959056,0.00505701143,-0.00272563924,0.00253454335
92372.286877,-0.0612021082,-0.0381472595,0.00254917303,0.000978912861,-0.00175012332,0.00200031344
92372.296901,-0.0829822843,-0.061071459,0.0332196211,-0.00278892747,0.00265660942,-0.00142744118
92372.306925,-0.0679536055,0.00730434071,0.00164199505,-0.00240676391,0.00134606766,0.00307995892
92372.316949,-0.0763342429,0.0501264143,-0.00479183739,0.00142632395,-0.00162628629,0.00129297767
92372.326973,-0.0658124516,0.0554350239,0.000297594707,0.000850282195,0.00122143179,0.00160589926
92372.336997,-0.083023758,0.0314560363,0.0128706606,0.000407132168,0.000959110349,-0.0014181205
92372.347021,-0.0558126155,0.0446510517,0.0365098948,0.000169311891,-0.00164173274,-0.00327034881
92372.357045,0.0028114526,0.044554222,0.00478789186,0.00140395335,-0.00109445313,0.000618398846
92372.367069,-0.00959176625,0.00640667948,-0.0183971689,0.00361464329,-0.001770896,9.88167757e-05
92372.377093,-0.015652507,-0.0266567281,-0.000735255472,0.00041165956,0.00175646077,-0.00228098435
92372.387117,-0.0212793431,-0.0288512973,0.0333791956,-0.00100700634,0.00142756037,-0.0013946847
92372.397141,0.00259996185,0.0177964173,0.000906666516,0.000196742455,-0.000867019272,0.000477784039
92372.407165,0.0101548633,0.00929105754,-0.0170445852,0.00321463652,-0.00190858157,0.00149085066
92372.417189,-0.0247359201,-0.0229968905,0.00435417662,-0.00110607589,0.000327142208,-0.000151254511
92372.427213,-0.00652530734,-0.00280091026,0.0206559076,-0.00388055744,-0.00110191,-0.00182984517
92372.437237,0.0255347114,0.0391830321,-0.00239412859,-0.000581166888,-0.000423602857,-0.00174435721
92372.447261,0.0384931461,0.0531936747,0.00374335125,0.00281649379,0.000237660036,-0.000537678874
92372.457285,0.0457669274,0.00533654776,-0.000890153773,0.00128118163,-0.00156689794,0.00207275125
92372.467309,0.0291805068,-0.0446336989,0.00360306599,0.000923519074,-0.000487252352,0.00181122888
92372.477334,0.0222280459,-0.0435804817,0.00958857014,-0.00207253715,-0.000621741967,-0.000591741218
92372.487358,0.0473603706,-0.00462008851,0.00988083109,-0.00370372349,0.00205287071,-0.00211054207
92372.497382,0.0626285025,0.0541930427,-0.0133170891,0.00242767244,0.000273879055,-0.000797869912
92372.507406,0.0548050332,0.0333639705,-0.0067254358,0.00365645502,-0.00227290192,7.77772674e-05
92372.517430,0.0459356944,-0.00945099753,0.00884096665,-0.000703139645,-0.00155331577,-0.000103850192
92372.527454,0.0576812416,-0.0131713698,0.00659231094,-0.00203551917,-0.000107485665,-0.00146046401
92372.537478,0.0840320592,0.00531714894,0.00225106686,0.000850814795,-0.00067340732,0.000242094235
92372.547502,0.057884605,0.00172317957,-0.000139043145,0.0025954516,-0.00141962511,0.0010136121
92372.557526,0.0423629094,-0.000596020623,0.00165894619,0.000430834298,-0.000791918118,-0.00148629704
92372.567550,0.045854866,-0.00497706698,-0.000437149308,0.0007879642,-0.00149153043,-0.000557386591
92372.577574,0.0722221552,0.000742187445,-0.00193294082,0.00145375454,-0.00157115898,-0.000153119019
92372.587598,0.0870078328,-0.0011862416,-0.00672075962,0.000513924919,-0.000412950156,-0.00156246339
92372.597622,0.124131558,0.00470436907,-0.000139627666,-0.00237054501,0.00042621188,-0.0019209248
92372.607646,0.136557507,0.0440033832,-0.00837554109,-0.00125814236,-0.00189420032,-0.00297260684
92372.617671,0.134280209,0.0159175082,-0.0023888679,0.00198478885,-0.00146676307,0.000611208105
92372.627695,0.136508553,-0.0314784675,0.00943367184,0.000195677182,0.000839800768,0.000373921082
92372.637719,0.135117555,-0.0738155158,0.0338205096,-0.0022576268,-0.00125104688,-0.00183090968
92372.647743,0.156164956,-0.0533579438,0.00343823082,-0.00276948635,0.00027734113,-0.00185061739
92372.657767,0.15100982,0.0266377127,0.0168956783,-0.00355565159,0.000798255457,-0.00249270563
92372.667791,0.149531774,0.0902112998,-0.0157346717,-0.00187493052,0.000331935958,-0.00288711981
92372.677815,0.196430623,0.125766689,-0.0184258105,0.00211208796,0.00127043391,0.00239126543
92372.687839,0.154967581,-0.0134668638,0.00553140371,0.00597526941,-0.00838858481,0.0031553262
92372.697863,0.105602543,-0.149949218,0.00269588802,-0.00302461727,0.000355105401,-0.000372296474
92372.707887,0.126406672,-0.104841189,0.0164432583,-0.00906679623,0.00832967427,-0.00432389536
92372.717912,0.138287491,0.0344181375,0.0201660783,-0.00141074154,-0.000594844207,-0.00133689334
92372.727936,0.141783388,0.0959171468,-0.0302582871,0.00361517601,-0.00511609284,0.00363070071
92372.737960,0.137230483,0.048714246,-0.00930259281,0.000825781077,0.00043233713,0.000214663991
92372.747984,0.19404581,0.0163026716,0.0170359635,0.00258746201,0.00130478865,0.00171375713
92372.758008,0.211505844,-0.0157991062,0.0309581059,0.00238213239,-0.0037054162,0.00372630796
92372.768032,0.240510569,0.0054489221,0.0318559315,-0.00275111065,-0.0013783461,-0.000327822096
92372.778056,0.268594672,0.0727056182,-0.0191728294,0.00106573192,-0.00218341975,0.00308848098
92372.788080,0.260030824,0.0313826788,-0.0258989228,0.00287481717,-0.000524536687,-0.00121891526
92372.798104,0.230632533,0.0121418073,0.0246803408,-0.00173990819,-0.00108220252,-0.00508209718
92372.808128,0.232770513,-0.0125999813,0.0164444274,-0.000403267746,-0.00288409726,-0.00538356723
92372.818153,0.235412461,-0.0114156121,-0.0462548976,-0.000217645407,-0.00112827528,-0.00454467097
92372.828177,0.250209194,-0.0209597403,-0.00301255275,-0.00124189718,0.00229388675,-0.00380617687
92372.838201,0.237929613,-0.0640030373,0.00851071178,0.000942161242,-0.00430489364,-0.00267752939
92372.848225,0.210314589,-0.0960296674,-0.00271269302,-0.00122272241,-0.00272830236,-0.00428341543
92372.858249,0.252580033,-0.052496596,0.00550802283,-0.00400998706,0.0023277089,-0.00686268629
92372.868273,0.318612302,0.0634486363,-4.20125108e-05,-0.00220249949,0.00108800737,-0.00469487374
92372.878297,0.361638045,0.114492357,0.0132804104,0.00406578293,-0.00335308011,-0.00323679326
92372.888321,0.333203429,0.0947208862,0.00446406674,0.00348627887,-0.00115117836,-0.00345037812
92372.898345,0.331367081,0.0538049385,0.000430281176,0.00285963708,-0.00167182633,-0.00371136823
92372.908370,0.356880256,0.0420052864,-0.0217067318,0.0057859185,-0.00069710948,-0.000768042444
92372.918394,0.403507421,0.0270432613,-0.00493446073,0.00559763301,0.00101423778,-0.000766977011
92372.928418,0.459315525,0.0184618224,0.0199123958,0.001828195,-0.00387159768,-1.94276636e-05
92372.938442,0.511863385,0.0312575911,-0.00746134886,0.00411611673,-0.00406281264,-0.00392948119
92372.948466,0.514256308,0.0453766077,0.00227561678,0.00297974579,0.00345848701,-0.00759185971
92372.958490,0.5111373,0.0626100666,0.012909239,0.00357682647,-0.00165185272,-0.00651541007
92372.968514,0.505149932,0.075913109,-0.00818206435,0.00411238818,-0.00190032563,-0.00666801007
92372.978538,0.508470236,0.0320768716,-0.00292779708,0.00645943189,-0.00210459005,-0.00677054123
92372.988563,0.502558126,-0.044074074,0.0395827264,0.00304019934,0.00296660107,-0.00687839956
92372.998587,0.504797356,-0.0604795576,0.0484171902,0.0021632206,-0.00303163645,-0.0065369823
92373.008611,0.502029316,-0.0749714444,0.0214865132,0.00212540378,-0.00351686436,-0.00637958878
92373.018635,0.507983767,-0.0755416638,-0.00798741856,0.00293283787,0.00141192823,-0.00546887917
92373.028659,0.510936662,-0.0707789611,-0.00244264391,0.00271339336,0.000945076133,-0.00411199899
92373.038683,0.484973259,-0.0683842297,0.0574205809,0.00484498747,-0.00417112266,-0.0034659163
92373.048707,0.481811106,-0.092015025,0.000874517812,0.00875184469,-0.00187574407,0.000540544004
92373.058732,0.45878087,-0.139998263,0.0146592975,0.00500877172,-0.00197587894,0.0014638614
92373.068756,0.447542012,-0.157193563,0.0354717839,0.00587429915,-0.000742569081,0.00534914686
92373.078780,0.45095193,-0.178165697,0.00361066478,0.00310301378,-0.00283394973,0.00883895318
92373.088804,0.408462961,-0.189461108,-0.00670790014,0.00149046984,-0.000391830671,0.0132483493
92373.098828,0.353171355,-0.173667838,0.00451258205,-0.00300760923,-0.00140489729,0.0157301498
92373.108852,0.306367208,-0.127278262,-0.0354447498,0.000396709504,-0.0044781853,0.0160207001
92373.118876,0.268393871,-0.0640865326,-0.0414296694,0.00181138067,0.000553325129,0.0166814306
92373.128901,0.236514924,-0.0221570969,-0.0111976128,0.00283110508,0.00140420512,0.0176257861
92373.138925,0.214609199,-0.0453043829,0.0637801791,0.00339755945,-0.00729554319,0.0221166757
92373.148949,0.191256051,-0.103230849,0.016501126,0.0010963219,-0.0118998823,0.0246474777
92373.158973,0.167726525,-0.136816509,-0.063702876,-0.0018880163,0.00069047792,0.0229347979
92373.168997,0.191812754,-0.0887188878,0.00586750379,-0.00520738011,0.00210381755,0.0194615048
92373.179021,0.213370597,-0.00482394052,0.0588380465,0.00448998826,-0.00720606079,0.0214056109
92373.189046,0.20104988,0.0248043416,0.0256342805,0.00785435939,-0.00243767104,0.0206269023
92373.199070,0.141644473,0.057100345,0.0644021103,0.00446335662,0.00173124126,0.0163850204
92373.209094,0.0873699715,0.0856419461,0.0285007759,0.0065459485,-0.00426539858,0.0198439338
92373.219118,0.0454710862,0.116134882,-0.0775648127,0.0106099319,-0.00249013524,0.0243417469
92373.229142,0.00013630712,0.100158748,-0.0182913704,0.00340661423,-0.0018224808,0.022671146
92373.239166,-0.0577138095,0.0748313781,-0.0483615145,0.00566071382,-0.00678874352,0.0296550185
92373.249191,-0.0844209662,0.025937218,-0.0981733009,0.00556750286,0.000603658865,0.029431313
92373.259215,-0.0910478827,-0.00956569168,0.101737862,-0.00696080534,0.00244949585,0.0272685603
92373.269239,-0.0641924492,0.035714808,0.0447072298,-0.00433093386,-0.00691897222,0.025435507
92373.279263,-0.0289729869,0.0985206986,-0.0537554825,0.0017911407,-0.000479182442,0.0270099674
92373.289287,-0.0934570171,0.0200799617,0.0237562117,-0.000481867296,0.00464633726,0.0247489435
92373.299311,-0.12521495,-0.0882500829,0.00580437543,0.00279967969,-0.00328056175,0.0247963478
92373.309336,-0.110044415,-0.136460462,0.0228700765,0.00147049611,0.00110220259,0.0213379671
92373.319360,-0.0565481997,-0.155490924,0.0801853704,0.00241112446,0.00393660473,0.0155794143
92373.329384,-0.0898312369,-0.00288913653,0.00881700125,0.00420689413,0.0117138341,0.0143117492
92373.339408,-0.10813786,0.143522728,0.0415993269,0.00169846269,0.0027317909,0.0155394671
92373.349432,-0.127299464,0.194824059,0.0483359417,0.00295733887,-0.00482226569,0.0185365879
92373.359456,-0.120830716,0.174572531,-0.132706854,0.00998009432,0.00282846358,0.0225619559
92373.369481,-0.157651494,0.0671537927,-0.0494902263,0.00347425852,0.00367162064,0.0202788279
92373.379505,-0.14191095,-0.0314677634,0.101049295,-0.000648048538,-0.00132926342,0.0227148213
92373.389529,-0.0603333032,-0.0603804446,0.0639455988,0.00345961114,-0.00530056921,0.0251758487
92373.399553,-0.052666367,-0.0671058256,0.0329706148,-0.00252025069,0.00269184345,0.0215638035
92373.409577,-0.0439884044,0.0104647592,0.0558558158,-0.00456049835,0.00917237964,0.02212573
92373.419602,-0.0465599491,0.102129519,0.0935633229,0.00305401155,-0.00258148169,0.0243531984
92373.429626,-0.123678899,0.0452051967,0.0121820938,0.0123923856,-0.0113512709,0.0244224404
92373.439650,-0.169286932,-0.0564283094,-0.0971755221,0.00721227115,0.00531452442,0.0218429023
92373.449674,-0.195142747,-0.0541644561,-0.010230229,-0.000180131151,0.00611347253,0.0117362064
92373.459698,-0.159053105,0.053187044,0.0173095198,0.0040479034,0.0013490777,0.0173951571
92373.469723,-0.146109826,0.191581881,0.0111854839,0.00421355169,-0.007128829,0.0167453454
92373.479747,-0.0660084354,0.192793321,-0.020521906,0.00826581817,0.00267692995,0.0160441359
92373.489771,-0.0243218001,0.132579273,0.0188561647,0.00678110559,0.0025067538,0.013072048
92373.499795,-0.0332676382,0.0818668297,0.110592784,0.00170006061,-0.00421133624,0.00930181118
92373.509819,-0.0610656178,0.0504902062,0.0513438913,0.00741360633,-0.00998720001,0.0110999771
92373.519844,-0.0704839277,-0.0313969449,-0.107553124,0.00686446268,-0.00329014925,0.0115644324
92373.529868,-0.0921964317,-0.120720128,-0.0225501969,-0.000232861762,0.00180687501,0.00811457327
92373.539892,-0.0516424034,-0.0762369708,0.0232359872,0.00277704297,-0.00384941264,0.00922058402
92373.549916,-0.0158569721,-0.0441058208,0.020398718,0.00488813052,-0.00657409323,0.00837689518
92373.559940,0.0135088482,-0.00371590621,0.0144243197,0.00262471003,0.00376296709,0.00279863803
92373.569965,-0.00152609939,0.0483987503,0.0249088889,0.00449664582,0.00156612533,-0.000968137099
92373.579989,-0.0429208619,0.0555517821,0.0389900212,0.00643036718,-0.00316604586,-4.90800431e-05
92373.590013,-0.0792285122,0.0617745656,0.0147627579,0.0043967773,-9.86166802e-05,-0.00186801916
92373.600037,-0.130140871,0.0160039261,-0.0275759161,0.0020044599,0.00241114632,-0.00014122603
92373.610062,-0.230846714,-0.00651046883,-0.0367055635,-0.00330907905,0.00076717699,0.000348263145
92373.620086,-0.277727579,-0.0108760254,-0.00319959976,-0.00364623528,-0.00133112769,0.004657258
92373.630110,-0.283855451,-0.0353546148,-0.0664992288,-0.000103698468,-0.000917538748,0.00428521419
92373.640134,-0.300654976,-0.0590443554,-0.0249087427,-0.00679622201,0.00323353046,-0.000338033116
92373.650158,-0.321121224,0.0175007771,0.042256914,-0.00738265023,-0.00153192992,-0.00572401033
92373.660183,-0.308183453,0.127532949,-0.0979652111,0.000240381953,-0.00647156113,-0.00576528934
92373.670207,-0.29654807,0.177694225,-0.103198436,0.00163747632,0.000629225241,-0.00910036666
92373.680231,-0.312488128,0.159825738,0.019652868,0.0004710117,-0.00172021541,-0.00931794596
92373.690255,-0.33574187,0.0925496431,0.0365747767,0.00980672304,-0.00753070028,-0.0044147999
92373.700280,-0.377624069,0.00644913038,0.027314781,0.0011130998,-0.00118838225,-0.00687156645
92373.710304,-0.46195074,-0.0160278734,0.0672662676,-0.00291200175,-0.003819852,-0.0127409066
92373.720328,-0.410939661,0.0907463018,0.00381758553,0.00348917225,-0.00168586078,-0.0108314197
92373.730352,-0.431777319,0.180134385,0.0235785171,0.00222843157,-0.00400307714,-0.0127180035
92373.740376,-0.459434155,0.17534916,0.0446838489,0.00458959041,-0.00584651749,-0.0129606186
92373.750401,-0.505490278,0.136546167,-0.0112665864,0.00669588445,0.0011317637,-0.0115347619
92373.760425,-0.599685542,0.0765537815,0.0583277589,0.00357705651,-0.0011963716,-0.0146740957
92373.770449,-0.63716863,0.0647223643,0.0457646299,0.00382153474,-0.00410028254,-0.0120863023
92373.780473,-0.622289625,0.065023795,0.0387386768,0.000316814673,-0.00144191503,-0.0118724502
92373.790498,-0.646436809,0.114712028,0.0288625949,-0.00121556823,0.00215095551,-0.010150716
92373.800522,-0.675820943,0.136479514,0.0204811356,0.000879274267,0.00200821007,-0.00413436936
92373.810546,-0.734048018,0.105059654,0.0121090285,0.00621917861,-0.00341904615,0.00340264263
92373.820570,-0.718743482,0.0229012844,0.00494162112,0.00486043392,-0.00233007954,0.00586926258
92373.830595,-0.684224834,-0.00872209873,0.0520792199,-0.00152209803,-0.00229252861,0.00473022853
92373.840619,-0.594865136,0.0541373853,-0.0236409148,0.000898449035,0.00188543824,0.00753560262
92373.850643,-0.520639369,0.0938514282,0.0152707074,0.00217703258,-0.00160996055,0.00799233439
92373.860667,-0.49547139,0.0786710476,0.072736808,0.00473420013,-0.00367630725,0.0101529571
92373.870692,-0.477279791,0.0454195336,0.0525380696,-0.000175337459,-0.00320013413,0.00839260752
92373.880716,-0.477848055,0.00735817152,0.0080974548,0.00436082499,-0.00341824708,0.00595554868
92373.890740,-0.530477895,0.007371031,-0.120129697,0.00376214616,0.00840645437,0.00617632522
92373.900764,-0.497896206,-0.0139676164,0.06901165,-0.00423186442,0.000977833018,0.00098848688
92373.910789,-0.441182933,-0.0167820893,0.0904010595,0.00226305279,-0.00850302014,0.00339545236
92373.920813,-0.359577686,0.0134376741,-0.099777229,0.00421568256,0.00401756507,0.00470705908
92373.930837,-0.270987914,-0.0409792132,0.0902613587,-0.00843699586,0.00715929609,-0.00321451323
92373.940861,-0.0194879753,-0.0167208789,0.118823436,-0.00585479459,-0.00370027577,0.00190354949
92373.950886,0.0579527383,-0.00979047688,-0.0770486798,0.000718419375,-0.0049221342,0.00425884892
92373.960910,0.0901280654,0.00298275118,0.0217057089,-0.00844791468,0.00628338256,0.000366106355
92373.970934,0.0848827852,0.145635099,-0.0423561366,-0.00415596442,0.00569136175,-0.00087785562
92373.980958,0.151445489,0.220031602,-0.0335222573,0.0059387476,-0.00363369692,0.00282926411
92373.990983,0.0295689468,0.108289448,0.0200667095,0.00955718447,-0.00743642436,0.00269956813
92374.001007,-0.0205868947,-0.029025631,-0.0179289669,0.00133147911,-0.000426185531,0.000376758822
92374.011031,-0.0293478115,-0.0272599365,0.065261942,-0.00878107578,0.00363406972,-0.00453703971
92374.021056,0.0217119793,0.0925550134,-0.00223747673,0.000882907124,0.00363673796,-0.000256020851
92374.031079,0.109078192,0.158451929,-0.00522496811,0.00618526077,-0.000970530653,-0.000529527008
92374.041103,0.00843520849,0.0162153221,0.00960552128,0.00650483992,-0.00999065708,-0.00143100721
92374.051127,-0.085528069,-0.171085986,0.00557758094,0.00160622171,0.00396670368,-0.000643777004
92374.061152,-0.12270494,-0.193163396,0.0613789631,-0.00802270353,0.00323593211,-0.00533120641
92374.071176,-0.0416738301,0.00879408607,0.055968044,-0.00941500377,0.00306042996,-0.00235006427
92374.081200,0.0625200097,0.124576072,-0.0719732763,0.0060680813,-0.0026198261,0.0019714471
92374.091225,0.0635442017,0.0723859212,-0.0243762433,0.00449814804,0.000917117888,0.00137889404
92374.101249,0.0041949497,-0.0382276129,0.029197526,-1.91055654e-05,-0.000318322544,3.39976558e-05
92374.111273,-0.00716990255,-0.013660231,0.0203659847,0.000118846184,-0.000611270176,-0.000125525794
92374.121297,-0.0261080533,0.035220887,0.00779467246,3.46903041e-05,0.00106439066,-0.00163047788
92374.131322,0.0113185796,0.0730956769,0.00779174985,-0.00273766026,0.0018393706,-0.00107947019
92374.141346,0.0177220375,0.0737194348,0.0203618931,0.00258386804,-0.00168132838,0.001145601
92374.151370,0.0217929219,0.0123593043,-0.00731404934,0.00160116172,-0.00170449783,0.000534405657
92374.161395,0.00545605568,-0.0182523446,0.0224655874,-0.00211341546,0.00377788548,-0.000814485638
92374.171419,0.00319326413,0.00972583223,0.00689976945,-0.000772247505,0.000982365358,-0.000371068991
92374.181443,0.0720951998,0.0463650343,-0.000877878813,0.00265177868,0.0013741163,0.00197437658
92374.191467,-0.000166581392,-0.00431794549,-0.00879581233,0.00641535752,-0.00315751867,0.00363379224
92374.201492,-0.0889033723,-0.0701566645,0.0501649107,-0.00331183786,0.00342901134,-0.00130903469
92374.211516,-0.055355081,-0.0213628595,0.00167180567,0.000877847132,-0.000627515469,-0.0002309869
92374.221540,-0.0178520469,-0.00428174166,0.0148364077,0.00124696123,0.00182845154,0.00225613891
92374.231565,-0.0482180093,0.0203641489,0.029050811,0.000707138498,-0.00482199421,0.000481941462
92374.241589,-0.0283393811,0.0310987838,-0.0125490274,-0.00271608873,0.00497790579,0.000470223562
92374.251613,-0.0327499207,0.0553919337,0.0299416223,-0.00116533001,-0.00252714833,2.6540556e-05
92374.261638,-0.0452963634,0.105949241,-0.0278196618,-0.000334690128,0.000468108939,-0.000844313106
92374.271662,0.0243521825,0.107485803,0.0187193866,-0.00166121062,-0.000785973718,-0.00339908367
92374.281686,0.00509346944,0.0553234533,0.033684316,0.00473303877,-0.00328588286,0.000479544238
92374.291710,-0.0390043324,-0.0366411475,-0.016585151,0.00279186101,0.000839619917,-0.000742047369
92374.301735,-0.0939491571,-0.0465711515,0.0187246473,-0.0103332618,0.000441743663,-0.00747265415
92374.311759,0.000931009153,0.0764998228,0.00883102977,-0.00309638825,0.00559682459,-0.00612802458
92374.321783,0.0784223113,0.115941424,-0.0236385767,0.00705957616,-0.00439375812,-0.00241770902
92374.331808,0.00944221869,-0.0119463945,-0.0143446786,0.00346164608,-0.00348295677,-0.00395994475
92374.341832,-0.00509973151,-0.0860707661,0.0523919391,-0.00297494798,0.00291981515,-0.00438684998
92374.351856,0.0140920835,-0.0873922057,0.0196142896,-0.00104415621,-0.00104190349,0.000790068605
92374.361881,-0.00974566447,-0.0202449979,-0.0287198255,-0.000393546018,-0.000208866647,-0.00010528536
92374.371905,-0.0740284867,-0.00110371442,0.00375153455,0.000235492633,0.000782894572,-0.00154259363
92374.381929,-0.118592052,0.00560256002,0.0131746119,-0.0013256523,0.00265722735,-0.00216044699
92374.391954,-0.155919172,0.035247026,0.0109224491,-0.00130940712,-0.000874124331,-0.00130690382
92374.401978,-0.148893895,0.0966279985,-0.00449723835,-0.00467590924,0.00340024931,-0.00595864774
92374.412002,-0.0736607311,0.178319463,0.000578749736,-0.00280264143,0.0057470269,-0.0072670591
92374.422027,-0.0179049439,0.194702369,0.00791333041,0.0054041554,-0.00284646112,-0.00432879319
92374.432051,-0.0678509397,0.0746528798,0.0142121383,0.00212900008,-0.00477885115,-0.00763244489
92374.442075,0.0294970483,-0.0942252484,0.016915552,0.00751471071,0.00602293028,0.000149844871
92374.452100,-0.0403489428,-0.200358769,0.0519330894,-0.00086013176,-0.0076926149,-0.00335887009
92374.462124,-0.148181198,-0.120077154,-0.00403780415,-0.0142222758,0.0102991682,-0.00447979411
92374.472148,-0.0438482835,0.0676645187,-0.0197684572,-0.00574809808,0.00810898435,-0.00396553734
92374.482173,-0.0404385253,0.186703735,0.038437648,0.00556394521,-0.00631416343,-0.00140117974
92374.492197,-0.0136722154,0.128511183,-0.0463905067,0.00300597905,-0.00310718487,-0.00333383614
92374.502221,-0.0734795384,-0.00650692517,0.0540186635,0.000438425509,0.00670496574,-0.00574266472
92374.512246,-0.0721945036,-0.0173614967,0.00269121185,0.00223179807,-0.0001180528,-0.00346166761
92374.522270,-0.0527096673,0.0128836752,0.0112217243,-0.00321569766,0.0035861378,-0.0052406595
92374.532294,-0.00125809154,0.0632875092,-0.00344743704,0.00111779785,0.00219596796,-0.0017729572
92374.542319,0.0244461124,0.0663522853,0.00643449003,0.00373222323,-0.000336964712,-0.00275566363
92374.552343,0.0124361444,0.0443814775,0.00105221247,0.00139583198,-0.000963073786,-0.00354076391
92374.562367,0.0795163628,0.0218886368,0.00943016471,0.000766526959,0.00161273558,-0.00401560524
92374.572392,0.123173042,0.0418683439,-0.0128629156,0.00191568099,0.00228731441,-0.00347684817
92374.582416,0.136362715,0.00570554547,-0.00103628425,0.00225656543,0.00064707334,-0.00163633683
92374.592440,0.177995332,-0.0529251419,0.0179717831,0.00187573354,-0.00262568505,-0.00109225353
92374.602465,0.155197408,-0.073735345,-0.00282784384,-0.00195202773,0.00265749371,-0.00112421093
92374.612489,0.190351248,-0.0345687799,0.00733932991,-0.00460640091,0.00174376312,-0.00330054601
92374.622514,0.19858855,0.0262528964,0.00045015492,-0.000137882547,-0.00228666477,-0.00244753556
92374.632538,0.192489192,0.0547954108,-0.00224098386,0.00135588453,-0.00100168968,-0.00228348495
92374.642562,0.172213625,0.0605875113,-0.00643200581,-0.000630567381,0.00207399509,-0.00292344326
92374.652587,0.157244147,0.0774118048,0.0113772071,0.00326031091,-1.65863699e-05,-0.00141263129
92374.662611,0.14165177,0.0304094498,-0.00567446544,0.00275590823,-0.00173219466,0.00016182913
92374.672635,0.103946912,0.00721238811,0.0191688839,0.00172819447,-0.000514863854,-0.00276551703
92374.682660,0.0969124466,-0.000437304663,-0.000130859838,0.00405526457,-0.000379841522,0.000794596695
92374.692684,0.0762198465,-0.0422100519,-0.00296286839,0.00591654766,-0.00146800918,0.00221352857
92374.702708,0.0154702263,-0.0632971723,0.0175374833,-0.00199623622,-0.0019465793,-0.00199479823
92374.712733,-0.0182932331,-0.00907694005,0.0113953273,-0.00298426912,0.000943483222,-0.000504760346
92374.722757,-0.0176218001,0.0348125071,2.05313314e-05,-0.00079408539,0.000260116086,-3.89733305e-05
92374.732782,-0.0189484958,0.0268328882,0.0104975017,0.00362356629,-0.00261157039,-0.0020962649
92374.742806,0.00409299858,0.00550271638,0.0259119284,0.000186756785,0.000350929816,-0.0015359356
92374.752830,0.00837504155,0.0112226467,-0.00207322608,-0.00293446804,0.00145108173,-0.000487981639
92374.762855,0.000811919668,0.0600719082,0.0136363842,0.000749482708,0.000161579131,0.000392459058
92374.772879,0.00942596167,0.0701993162,0.0118436556,-0.000210320555,-0.00181022529,0.00128781395
92374.782903,0.00795174267,0.0680023906,0.00646137803,0.00240863201,0.000486751048,6.30260492e-05
92374.792928,0.0159905512,0.036696823,-0.000265299873,0.00345099338,0.00161939349,-0.000208083815
92374.802952,-0.0344335242,0.00225306693,0.00752286979,0.00204431166,-0.0019186161,-0.000861623599
92374.812977,-0.0382888091,-0.0135914949,0.0206956551,-0.000473707164,0.000454793122,-9.48992511e-05
92374.823001,-0.0623893042,-0.00126058548,0.012762524,-0.00162179588,-0.000356405721,0.000880616442
92374.833025,-0.0492098608,0.0160252064,0.00139181968,0.0024227469,0.00155068389,0.00120019606
92374.843050,-0.0355165542,0.022307538,0.00154496442,0.00150555412,-0.00277482239,0.00215786854
92374.853074,-0.0465280926,0.00556264814,0.0322206732,-0.000585826295,-0.000487166903,-0.000920213102
92374.863098,-0.03679847,0.0111275157,0.0185972215,-0.000683830534,0.00194270131,-0.00234766704
92374.873123,-0.0428787352,0.0605008559,-0.0104324736,0.00189117988,0.000732560836,-0.00186643404
92374.883147,-0.0349342265,0.0727431006,0.00079326927,-0.000395676535,-0.00082112742,-0.00163900041
92374.893172,-0.0204861834,0.082282918,0.0194968007,0.000530837214,-0.00093457811,-0.000770276687
92374.903196,0.0261417419,0.0676237118,-0.0125215549,0.00361291359,-0.000177973978,-0.000757494285
92374.913220,0.0681690439,0.0215520983,-0.00323584012,0.00365738844,0.000714983985,-0.00153380567
92374.923245,0.0822589577,-0.0216885295,0.0250497586,0.000119911442,0.000235614968,-0.00230532353
92374.933269,0.14701232,-0.00579055706,0.00754683518,0.00282461795,-0.000869330581,-0.000233916841
92374.943294,0.162049301,-0.0216672858,-0.00651208531,0.00236309197,-0.00212341301,-0.000449099853
92374.953318,0.193876244,-0.0153157431,0.00486212614,-0.000552802994,0.00223005623,-0.000793447061
92374.963342,0.131089405,0.0170490695,0.00157068338,0.00117851799,-0.00146055231,0.000190324807
92374.973367,0.0868981253,0.038790069,-0.00216967219,0.000360394894,-0.00163126095,0.000186863081
92374.983391,0.0110306113,0.0452499857,0.00725808137,0.00128877285,-0.00166907777,-2.43254891e-05
92374.993416,-0.0122064377,0.0238727963,0.000977393665,0.00120461691,0.000626833314,0.00151205175
92375.003440,-0.029291718,-0.00839047389,0.0258224966,0.0015308542,-0.00175083694,-0.000232052333
92375.013464,-0.0500297258,-0.00562732932,0.0238748696,-0.00139116607,-0.00159024829,-0.000642178855
92375.023489,-0.0498512274,0.054117475,0.0148971979,0.00117896654,0.000359470976,0.000113912583
92375.033514,-0.0641856221,0.043043653,0.00263509774,0.00437289586,-0.00186799709,0.00215575863
92375.043539,-0.0538993383,-0.000313860947,0.00952310369,0.00198217591,0.000433773113,-0.000708737685
92375.053563,-0.00223640994,-0.00672243108,0.0253852742,0.000369099224,0.00121620986,0.00106466162
92375.063588,-0.0183927731,0.0441700267,0.0138596716,-0.0033036662,-0.00212046467,0.000934965634
92375.073612,0.0416699952,0.0854270247,0.000245572259,-0.00243094849,0.006459708,0.00106519433
92375.083636,-0.0259856256,0.117920907,0.0174544812,0.000672699586,-0.00327228159,0.00207373286
92375.093661,0.0208584038,-0.0088683936,-0.0661678048,0.0134337681,-0.0014461522,0.00759925945
92375.103685,-0.0130465509,-0.193567118,0.0454758761,-0.00600304624,-0.00239263974,-0.00323128355
92375.113710,0.010294737,-0.0679855676,0.084352427,-0.0155070688,0.0103159655,-0.00437404615
92375.123734,0.0868446416,0.189279705,-0.0724812258,0.00637106568,-0.00139422072,0.00323380596
92375.133758,0.0755095292,0.162354672,-0.0251694395,0.0132606623,-0.00604916024,0.00650017309
92375.143783,-0.0445897039,-0.0570222933,0.0330577085,0.000789878709,0.00204578451,-0.00185682652
92375.153807,-0.0307518468,-0.0916006355,0.0378390976,-0.00439156715,0.00293501387,-0.00209571169
92375.163832,0.0220695674,-0.000267427989,-0.0220223737,0.0013595288,-0.000887953773,-0.00137159815
92375.173856,0.0381815023,0.0578716582,-0.0149835611,0.00279896723,-0.00012575705,0.00212406666
92375.183881,0.00153978642,0.011383445,0.0249743553,0.00108841905,-0.00277400446,-0.000317252516
92375.193905,-0.01796209,-0.00716177235,0.0252736305,-0.000383510086,0.00190383803,-0.00226082773
92375.203930,-0.00103593897,0.0243193893,0.00297587401,-0.000435175381,0.00111421083,-0.00240011075
92375.213954,-0.0161898653,0.0292763176,0.000731894471,0.00146152794,-0.0011121918,0.000511523061
92375.223978,0.00993329699,0.00350326792,0.00941321358,0.000699064862,0.000232970827,0.000611657933
92375.234003,-0.00277430479,0.0127091954,0.0146487761,-0.00191109937,0.000407141536,-0.00232847249
92375.244027,0.00359705916,0.0401447167,0.000132175012,-0.00141388708,0.0021123636,-0.00147812468
92375.254052,0.0151262397,0.0686956336,0.01389825,0.00161625753,-0.000428558424,-0.00168931325
92375.264076,0.0228652593,0.0754180189,0.0162959588,0.0011528675,-0.000359848821,-0.000288490481
92375.274101,0.0298545862,0.0561574381,0.0248264713,-0.000967807667,0.00190596855,-0.00271809222
92375.284125,0.046158621,0.065573483,0.0140519793,0.000610381649,-0.0009191128,-0.00179424164
92375.294150,0.114198796,0.0467522983,-0.0083889851,0.00378753262,-0.000850136722,0.00256641787
92375.304174,0.0802873197,-0.0082621896,-0.0161613727,0.00178883044,0.000569328045,-0.000453340164
92375.314198,0.0286187471,-0.00148500535,0.0131687667,-0.00228926825,0.00117892564,-0.0010869068
92375.324223,0.0156577939,0.0514834184,0.0149603263,0.00176566088,6.439271e-05,-0.00124136945
92375.334247,0.00578480814,0.00739448494,-0.0302179551,0.00738173507,-0.00615595221,0.00271715289
92375.344272,-0.0332331811,-0.123142989,0.00855513544,0.00518382823,-0.000157182318,0.00247081016
92375.354296,-0.0936238067,-0.160397072,0.0616735622,-0.00685579034,0.00186229278,-0.00236548977
92375.364321,-0.0555613167,-0.00428112061,0.0380091935,-0.00877300028,0.0035571285,-0.0037418113
92375.374345,0.00912380496,0.155196873,-0.0152699768,0.00248764379,-0.000248262406,0.00126280049
92375.384370,0.0301563159,0.147416174,-0.0163063341,0.00588131014,0.00025507507,0.00338001336
92375.394394,-0.0133419674,0.061919454,0.0169231508,0.0015366291,0.00134350897,-0.00347256595
92375.404419,0.029188181,0.0149654865,0.0269465322,0.000650329043,-0.000333483544,9.60693741e-05
92375.414443,0.084569107,0.047368293,0.0218571001,-0.000696697803,0.00152726706,0.000187149928
92375.424468,0.081419703,0.0635231446,-0.0436771561,0.00213903601,0.000532043768,0.000987962545
92375.434492,0.0615411639,0.0171225914,-0.0023701632,0.00708505901,-0.0042099807,-0.0010690636
92375.444516,0.0246658607,-0.0451929036,0.0491110177,-0.000752890547,-4.63947459e-05,-0.000880245394
92375.454541,-0.00112640287,-0.0510669102,0.0205284818,-0.00368662883,-0.00124321934,-0.0012171355
92375.464565,-0.0202407139,-0.0224825843,-0.0141874422,0.00281201669,-0.000293536209,0.000186617211
92375.474590,-0.0424601491,-0.0146872725,0.0166384887,-0.0017941866,0.00111820551,-0.000209927834
92375.484614,-0.050439124,0.0188743487,0.0324977366,-0.00218726911,-0.000336679378,-0.000194480917
92375.494639,-0.0790103668,0.0435472551,0.0115443804,-0.000575524005,-0.00072310409,-9.62105533e-05
92375.504663,-0.0720298511,0.077456265,0.00645494829,0.000480951997,0.00113498346,-0.000177703141
92375.514688,-0.0378277811,0.0770303495,-0.00955510627,-0.000451154373,0.00426046936,-0.000291953138
92375.524712,0.0925782899,0.0467667287,0.0380284827,0.000828494544,-0.00687633767,-0.000823785826
92375.534737,0.189968514,0.0437907998,0.0046633887,0.000462842516,0.00478085097,-4.02846327e-05
92375.544761,0.136680722,0.079043242,-0.00656118515,0.00560460769,-0.00213857424,-0.00306110763
92375.554786,0.0934161106,0.106998056,0.0113953273,0.00359551881,-0.00188051383,-9.43460455e-05
92375.564810,0.0371188735,0.0184374186,-0.0200092803,0.00641980132,-0.00293778871,0.00664451644
92375.574835,-0.0815709928,-0.195830588,0.00874276697,0.00435878074,-0.00163869872,0.00143563953
92375.584859,-0.0928163354,-0.212331769,0.0807102711,-0.00677642815,0.00239519137,-0.00690804449
92375.594884,-0.00481729556,-0.0838274259,0.0223323164,-0.0049734682,0.00132966055,0.000219373689
92375.604908,0.0422890678,0.0788674835,-0.0450081124,0.00284237688,-0.0016533461,0.006533995
92375.614933,0.0269880155,0.108924659,0.0389420904,-0.00318755239,0.00379281831,0.00391956997
92375.624957,-0.0480271264,0.16947519,0.0329478184,-0.00283468358,0.00268041589,0.000405529239
92375.634982,2.39270782e-05,0.208140527,-0.024062355,0.0089079921,-0.00166932526,0.00123643568
92375.645006,-0.0214708699,0.15338712,0.0221914466,0.00725550128,-0.00283206124,0.000518181087
92375.655031,-0.0403578522,-0.0111266939,0.0251970582,-0.000979259209,0.00173499367,-0.00118704168
92375.665055,0.0530232826,-0.085493222,0.0156202515,0.00391323392,-0.0006085882,-0.00343288509
92375.675080,0.0926742884,-0.0740322273,0.0085861151,-0.000212801452,-0.00149142589,-0.000771587989
92375.685104,0.0808585803,-0.0528730646,0.0187591341,-0.00361525623,0.00223034168,0.000783697427
92375.695129,-0.00448282117,-0.0197198781,0.00962597954,-0.00155556721,-0.000742012499,-0.00108450958
92375.705153,-0.0088597188,0.0401634214,0.00827573398,0.000729957531,0.00170090517,-0.00142938857
92375.715178,-0.0450157518,0.0717376499,0.014112185,-0.000719068404,-0.000939885251,-0.00261050118
92375.725202,-0.0227203562,0.0602691478,0.0223399152,0.00136884994,0.00111367812,0.000110450857
92375.735227,0.00477898525,0.068417182,0.0232383253,0.00397262227,-0.0034043748,0.00167745464
92375.745251,0.0588266351,0.0310688818,0.00483816075,-0.000952094975,0.00136801009,0.000792486318
92375.755276,0.0583982902,0.0535857428,0.0241402426,-0.00321977662,-0.000178753961,-0.000370515785
92375.765300,0.0325758895,0.0510154173,0.00409172629,0.00173157249,0.002277746,0.00138557209
92375.775325,0.0215517815,0.0230157228,-0.0232849409,0.00409592705,-0.00258039274,0.00181167825
92375.785349,-0.0292906996,-0.0286100176,0.00425539242,0.00152304692,-0.00066877562,-0.000162523515
92375.795374,-0.00568926522,-0.0309440135,0.0222136584,-0.000743569405,0.000977590641,-0.00121314013
92375.805398,-0.0315641336,-0.00891362098,0.0127835668,-0.000446626981,3.93893191e-06,-0.000948155574
92375.815423,-0.0252943326,0.0298040313,0.0127823977,0.00081304821,-0.000441874242,-0.00104402964
92375.825448,-0.032059509,0.0439752165,0.0259493378,0.000327287599,4.38863839e-05,0.000366113805
92375.835472,-0.0627122251,0.0489481095,0.00859196032,0.0015249112,-0.00167651577,-0.00049834819
92375.845497,-0.0400233321,0.0413783867,0.00545132421,-0.000612541923,0.00266124089,-0.00278733512
92375.855521,-0.0426557995,0.082619767,0.0238520733,-0.00244506315,0.00240957238,-0.0034568536
92375.865546,0.0218390261,0.102677307,-0.00697327308,0.00222239288,-0.00108156549,-0.00166800832
92375.875570,0.046594309,0.0387688983,-0.018334625,0.00485679198,-0.00142404796,0.000767718726
92375.885595,0.0137638721,-0.037136201,0.0258113907,-0.00245811261,0.000642564982,-0.00211328854
92375.895619,-0.000474316184,-0.0204872092,0.022363296,-0.00142533874,0.00175044001,-0.00151061574
92375.905644,-0.0119130579,0.0388104907,-0.0108556675,0.00194276118,-0.000631757643,-0.00221235798
92375.915668,-0.0429910959,0.0134835956,0.00276427708,0.00150147528,0.0003453562,-0.00430986406
92375.925693,-0.0949229614,-0.0107323791,0.043765565,0.000454054062,0.00103298437,-0.00408509308
92375.935718,-0.128268273,0.0192736137,0.0223662187,-0.000666870393,0.00115655504,-0.00316790053
92375.945742,-0.158312315,0.0557828509,0.0057529375,-0.00134650915,0.0019800045,-0.00306563479
92375.955767,-0.146325022,0.103813234,0.0100883364,-0.00202295214,0.001997315,-0.00314020393
92375.965791,-0.117790663,0.119128091,0.000364230203,0.000418367731,0.000791968273,-0.000692226267
92375.975816,-0.0855707756,0.102680156,0.00455759024,0.00251534062,0.000264129737,-0.00370346223
92375.985840,-0.0681846789,0.0591988699,0.0208739343,0.00210867606,-0.000954266502,-0.00319746164
92375.995865,-0.0574481717,-0.00474724028,0.00995681893,0.000998137861,0.00341251879,-0.00373169155
92376.005889,-0.0336564114,-0.0439823223,0.0198364079,0.00094460835,0.00185190644,-0.00336018046
92376.015914,-0.0388374285,-0.0382186807,0.00965929729,-0.00106261619,6.99853021e-05,-0.00463104089
92376.025938,-0.0483668158,0.02853255,0.02028006,-0.00067286619,0.000446756041,-0.00415212689
92376.035962,-0.0723396112,0.0554573453,0.00786013892,0.00115699175,0.000386834979,-0.00430792225
92376.045987,-0.0999073348,0.0175884371,0.0107067605,0.00130319938,-0.00114421638,-0.00452523613
92376.056011,-0.0999123489,0.000371856295,0.00980835037,0.00053487732,0.00336078708,-0.00398541269
92376.066036,-0.0600951653,0.0138280617,0.0196850167,-0.00201856142,0.00361858089,-0.00559050058
92376.076060,-0.0583578019,0.0334842359,0.0328513723,-0.000365537423,0.00117433166,-0.00414866516
92376.086085,-0.0700275074,0.0686481777,0.0086100805,-0.000823334797,0.00326464665,-0.00639370949
92376.096110,-0.085028047,0.086322293,0.0300059198,-0.000412142726,0.00246623125,-0.00534282652
92376.106134,-0.141130677,0.0889619756,0.016541458,0.00278444954,0.000821995452,-0.00413268553
92376.116159,-0.176305487,0.0718932423,-0.014126652,0.00194608646,0.0012249317,-0.00450632749
92376.126183,-0.194604822,0.0262679113,0.0169985541,-0.000173789834,0.00335865621,-0.00702754156
92376.136208,-0.166617402,0.0278112683,0.0324094738,0.000194259032,0.00398929291,-0.00748027982
92376.146232,-0.123408814,0.0474388192,0.0156512312,0.00108055904,0.000508275077,-0.00704778293
92376.156257,-0.112769081,0.0105914726,0.00742408559,0.000857119849,0.000861676546,-0.00824727052
92376.166282,-0.103314275,-0.0349432758,-0.00185461489,-0.0029123184,0.00290831588,-0.0095700615
92376.176306,-0.10220278,-0.0377023835,0.0268711289,-0.00288462133,0.00306650777,-0.00988484667
92376.186331,-0.0835504031,-0.000752215831,0.0343454103,-0.00195358025,0.00228407085,-0.0115386707
92376.196355,-0.106966368,0.0521684964,0.0103987175,-0.00156182942,0.00410727099,-0.0144870554
92376.206380,-0.152378449,0.0928603896,0.00455992833,-0.00224999019,0.00437838086,-0.0144870554
92376.216405,-0.220630002,0.0905405318,-0.00501804736,0.000344461318,0.00505269332,-0.0130252478
92376.226429,-0.255431302,0.079341549,0.0340344446,-0.00241963339,0.00150935738,-0.0154268865
92376.236454,-0.233204584,0.0770900255,0.0127823977,-1.37338423e-05,0.00321111725,-0.0155938652
92376.246478,-0.248424401,0.0849997209,0.00215754336,0.0014006709,0.00287262946,-0.0166447501
92376.256503,-0.265441404,0.108062781,-0.00113273036,-0.00109524356,0.00989458584,-0.0172101374
92376.266528,-0.331461672,0.0993290193,0.0247539906,0.00204142759,-9.70613715e-05,-0.0170159939
92376.276552,-0.330270891,0.0307925857,0.00964819138,0.00378739595,0.000547423571,-0.0162016007
92376.286577,-0.376606088,-0.0436598489,-0.0112946434,0.000223021169,0.0071938747,-0.0150018458
92376.296601,-0.446765958,-0.0352485058,0.0539415066,-0.00320899446,0.00392590989,-0.0176269229
92376.306626,-0.504440733,0.0284213813,-0.00786466896,-1.61306883e-05,0.00034528961,-0.0154141032
92376.316651,-0.537329624,0.0375307165,-0.0117517395,-0.00026646781,0.00178792399,-0.0161874856
92376.326675,-0.565762741,0.0376524798,0.0268506706,-0.00158313459,0.00302549488,-0.0216477628
92376.336700,-0.570013129,0.075699174,-0.0549999296,0.00262732308,0.00284626418,-0.0225553702
92376.346724,-0.579033251,0.093599006,-0.00905417101,0.00137110979,0.00270884498,-0.0241612571
92376.356749,-0.58297461,0.107113609,0.0484078379,0.000387338216,-0.000467773507,-0.0282862264
92376.366774,-0.545160464,0.121922124,-0.000969064228,0.00234529439,-0.000100789805,-0.0262481089
92376.376798,-0.496575954,0.12727302,-0.0106896633,0.00118202547,-0.00268538748,-0.0286880958
92376.386823,-0.449777378,0.117124441,0.00397891357,0.000518898357,0.000982317744,-0.0347854051
92376.396848,-0.371617339,0.110364299,0.0316647929,0.00147124467,0.000860877587,-0.0379764031
92376.406872,-0.334271067,0.106579886,0.0550105971,0.00122729915,-0.00411071149,-0.0383178222
92376.416897,-0.358733783,0.104008702,-0.035368762,0.00333785445,-0.0018504866,-0.0376935753
92376.426921,-0.32666483,0.0493872681,-0.0335696036,-0.000153283479,-0.00178603814,-0.0362874272
92376.436946,-0.290915946,-0.000990171039,0.0068290423,-0.00505456544,0.00094263665,-0.0347459915
92376.446971,-0.22324528,0.0331840656,-0.0151735307,0.000352184485,0.00491980151,-0.033606157
92376.456995,-0.180645581,0.0427937334,0.060989087,0.00255488505,-0.00277034226,-0.0300005044
92376.467020,-0.186376252,0.0241946852,0.0496183827,-0.00107819943,-0.00242759367,-0.0332716632
92376.477045,-0.206085782,0.03956151,-0.00620111966,-0.00773530297,0.00392883936,-0.0388443286
92376.487069,-0.15073176,0.119490001,-0.0189314219,-0.00102253917,0.00391019708,-0.0408512878
92376.497094,-0.175487084,0.138487054,-0.00276997617,0.00415571097,0.00304227289,-0.0374767932
92376.507119,-0.284407715,0.0576891047,-0.0165249453,0.00151785014,0.000963142976,-0.0369042161
92376.517143,-0.332781194,-0.0230523104,0.0799848794,-0.00874863595,-0.00266514752,-0.0471067841
92376.527168,-0.174027496,0.0715656543,0.0403087026,-0.00574991649,0.00103744517,-0.0521380308
92376.537192,-0.115615776,0.223863636,-0.0252489345,-0.00424176857,0.00496374364,-0.0621374029
92376.547217,-0.097499406,0.297606644,0.0687158819,-2.25222678e-05,0.00285824844,-0.0662192258
92376.557242,-0.152084599,0.162237713,0.0378975498,0.00696428044,-0.00889188457,-0.0625914711
92376.567266,-0.250516076,-0.0653882263,-0.0517225154,0.00336874712,-0.00264437483,-0.0631794932
92376.577291,-0.324201399,-0.230244168,-0.0186584502,-0.00620584965,0.00551075688,-0.0662253502
92376.587316,-0.335821,-0.254972659,-0.0158352094,-0.00955637295,0.00236742771,-0.061541118
92376.597340,-0.240475725,-0.171280376,0.0371137059,-0.00851214707,-0.00165687476,-0.0591906088
92376.607365,-0.192753495,-0.0389940855,0.0546014318,-0.00658082293,0.00199724841,-0.0584356043
92376.617390,-0.242141887,0.102332329,-0.0518037639,-0.00443564665,0.00898618218,-0.0618340674
92376.627414,-0.326352293,0.221068215,0.0298866773,-0.00619200135,0.00635497891,-0.0659095052
92376.637439,-0.349669127,0.248175783,0.102607046,0.00350083986,-0.00121265951,-0.0622734877
92376.647464,-0.35553232,0.209703228,0.0249556506,0.00358179997,-0.000598534689,-0.0586398694
92376.657488,-0.364286704,0.112247337,0.0598241349,-0.000969009772,0.00312270028,-0.0609411078
92376.667513,-0.29954506,0.0770060188,0.019718919,-0.000251021476,0.000973795677,-0.0549018609
92376.677538,-0.254516727,0.060861853,-0.0402816684,0.00176179566,0.00161961224,-0.0522062073
92376.687562,-0.178041828,0.0793156474,0.0646078621,-0.00477067225,-0.00130134283,-0.0497624914
92376.697587,-0.121658609,0.066629093,-0.0182948776,0.00261161051,-0.000290673207,-0.038992666
92376.707612,-0.139611669,0.0327439937,-0.0589863689,0.000444063561,0.00231150132,-0.0347483869
92376.717636,-0.243418537,-0.0300889311,0.0251064573,-0.00160310843,0.00138711826,-0.0364743809
92376.727661,-0.306347068,-0.0232255299,-0.012752441,0.00182304828,-0.000437679681,-0.0317600521
92376.737686,-0.257275195,-0.0321082533,0.0729875679,-0.00268328639,-0.00540900217,-0.0312157015
92376.747710,-0.168453934,-0.0155456611,0.076875223,0.00411096977,-0.00698106629,-0.0302332642
92376.757735,-0.137118035,0.0415659451,-0.0381779742,0.00861064687,0.00440208302,-0.0253242592
92376.767760,-0.25453408,0.0113908428,0.100246162,-0.00213307731,-0.00103103205,-0.0256457034
92376.777784,-0.30561426,0.0940161903,0.100092432,-0.000609749294,-0.00297753639,-0.0242022688
92376.787809,-0.349278557,0.242566711,-0.0890500833,-0.00105795923,0.00647402242,-0.0281669165
92376.797834,-0.312209786,0.282051274,-0.038480172,-0.00574379118,0.000653683693,-0.0317376818
92376.807858,-0.209994334,0.250003547,-0.0552489359,0.00168536294,-0.00484654294,-0.0281522687
92376.817883,-0.220152338,0.106268445,-0.128109589,0.00609395949,0.00483937389,-0.0255759287
92376.827908,-0.271272558,-0.093570456,0.0198855078,-0.00394615747,0.00832065814,-0.0290545489
92376.837933,-0.291637739,-0.146474546,0.150203494,-0.0039898337,0.0060021101,-0.0318042601
92376.847957,-0.183979986,-0.0962376294,0.0958844593,0.000384142412,0.00223320457,-0.0279232378
92376.857982,-0.113947057,-0.0976200784,0.0738912387,-5.90075863e-05,0.00342017519,-0.0267919267
92376.868007,-0.15575821,-0.0295441019,-0.00527465247,-0.0035823696,0.00139377617,-0.0272561165
92376.878031,-0.159697796,0.117447883,-0.156409217,-2.57180721e-05,0.0149841529,-0.0213481563
92376.888056,-0.170869343,0.189149649,0.0879437295,-0.00658188837,0.00336984186,-0.0254198651
92376.898081,-0.0719463467,0.244843607,0.12309746,-0.00194026443,-0.00516132857,-0.0229985195
92376.908105,-0.0814666008,0.243944155,-0.115721817,0.0041314761,0.00157167532,-0.0205052684
92376.918130,-0.173642588,0.146163744,-0.110484501,-0.00632649085,0.0108136429,-0.0250707271
92376.928155,-0.213045026,0.0173667937,0.122184437,-0.00806846499,-0.00433388432,-0.0225503112
92376.938179,-0.188154148,-0.128478816,0.0772802966,0.00184568523,-0.00871638242,-0.0142929119
92376.948204,-0.0668564762,-0.256611859,0.0636539223,-0.0114986164,0.00502579533,-0.0162751007
92376.958229,-0.0473948199,-0.185884783,0.11299926,-0.0117457577,0.0122568101,-0.0183787349
92376.968254,-0.105765112,-0.0396246751,-0.0468300672,-0.0015999126,0.00541674732,-0.0116864753
92376.978278,-0.149664268,-0.0213929259,-0.00148753514,0.00207551609,-0.0106817953,-0.0067862601
92376.988303,-0.0974264321,-0.165362092,-0.117741925,0.00924714252,0.00263374406,0.00426292951
92376.998328,-0.15192813,-0.225039658,-0.0617587562,0.00506970769,0.0160898973,0.0095194771
92377.008352,-0.294505312,-0.153656091,0.10328626,-0.00914864272,0.00521993977,0.00648533712
92377.018377,-0.174895584,0.00365042131,0.146357925,-0.00367904228,-0.0129987452,0.012003673
92377.028402,-0.012229451,0.0979299479,-0.0342441418,0.00958408106,0.00257737483,0.016981553
92377.038427,-0.0225160019,0.129287008,-0.11368885,-0.0056238997,0.0182372943,0.0123058406
92377.048451,-0.0487219677,0.132347401,0.183466881,-0.00855444215,-0.00452447669,0.0109361761
92377.058476,0.056532784,0.246197505,-0.0193008397,0.00439757545,0.000425806987,0.0163061746
92377.068501,0.0519988075,0.139010987,-0.1608434,0.00733397685,0.00162050107,0.0161386614
92377.078525,0.0285861348,-0.118895999,0.0283207431,0.00781201402,0.00463333507,0.0181906276
92377.088550,0.0432129594,-0.208709304,0.06574125,-0.000422213699,-0.00433725664,0.0161850003
92377.098575,-0.0103686837,-0.0775071734,-0.00773958128,-0.00477142196,0.00143834089,0.0152121482
92377.108600,-0.0330476387,0.145110345,-0.102763551,0.0040393804,0.00820969385,0.0180433539
92377.118624,-0.0319354671,0.247878061,0.012174495,0.00520824146,0.00215845964,0.0172414777
92377.128649,-0.0510224997,0.163082858,0.261179066,0.00248009915,-0.0153667371,0.0139998772
92377.138674,0.0569031654,0.0931186204,0.0178788441,0.00561969977,-0.0100633189,0.0133372822
92377.148699,0.0662140237,-0.00951670144,-0.149707673,0.00274029018,0.000289985813,0.0111992971
92377.158723,0.0074074215,-0.0894946579,-0.059469184,0.000471276865,0.00917961788,0.0112893113
92377.168748,0.0271567368,-0.0745812212,0.0825287187,-0.00821249217,-0.00379663506,0.00853160834
92377.178773,0.0536356423,-0.00755007754,0.0781751996,0.00180445524,-0.012434332,0.00924054226
92377.188797,0.0698623718,-0.0275826474,-0.103477253,0.00411687808,0.000697449451,0.0107817135
92377.198822,-0.0162239503,-0.0409350818,-0.0186321467,-0.00611605199,0.0151789204,0.0040321976
92377.208847,-0.0111418315,0.044978183,0.179770365,-0.00587849814,0.00238163247,0.0030175333
92377.218872,0.0229779053,0.178510492,0.105692737,-0.000106096449,-0.00520731123,0.00230567037
92377.228896,-0.0190760266,0.221257491,-0.0750677351,0.00287344812,-0.000627206968,0.00111497073
92377.238921,-0.0333836726,0.134573936,-0.0973567238,0.00173334887,0.00595612744,0.00242604521
92377.248946,0.00712766156,0.0201149964,0.0247528215,0.00233682122,0.00100424562,0.00179727301
92377.258971,0.0257645609,-0.0980219007,0.103921635,0.00513553729,0.00429111872,0.00395283541
92377.268995,-0.00357950196,-0.194898586,0.0783330205,-0.00270374382,0.00355928242,0.00254721912
92377.279020,-0.120127143,-0.150280751,0.0174153182,-0.00694083312,0.000592254587,0.00431289496
92377.289045,-0.0534810536,-0.0397000419,-0.237134028,-0.00424544776,-0.00203894857,0.0128118412
92377.299070,0.00356203465,-0.0165975996,-0.219932133,9.20427198e-05,0.00439365082,0.0146579442
92377.309094,0.0681261272,0.00434662341,-0.00909508754,-0.00417380856,0.0133168377,0.016686741
92377.319119,0.0367162064,-0.000112347025,0.210412171,-0.000253369282,-0.015841313,0.0179221814
92377.329144,0.0785431521,-0.0736061108,0.105075482,0.00720667763,-0.0209058471,0.0212458053
92377.339169,0.126108055,-0.118035656,-0.0357270739,-0.00261186466,0.00554014151,0.0168313493
92377.349193,0.115633806,-0.0639578464,0.0874159062,-0.000544186455,0.00807307441,0.0159197503
92377.359218,0.17087739,-0.0616000678,0.0995470735,0.00838246353,-0.0103970136,0.0287194361
92377.369243,0.155285442,-0.103441131,0.0622984161,0.00172163097,-0.0119565598,0.0232410465
92377.379268,0.166348514,-0.0613675742,-0.0937812034,-0.0058084571,0.0105154586,0.0207320822
92377.389293,0.201478663,0.0793009613,-0.113991632,-0.00255513943,0.00481389756,0.0233137493
92377.399317,0.14669813,0.114361863,-0.0421685051,0.00091682368,-0.00783718224,0.0281710883
92377.409342,0.167667451,0.0761063117,-0.0297409852,0.00523434037,-0.010137888,0.0287660395
92377.419367,0.243987963,-0.0183401507,0.0253320827,0.00138074642,-0.000304431751,0.0246439983
92377.429392,0.304971479,-0.116400748,0.0790625039,0.0064735093,0.00422720299,0.0245422662
92377.439416,0.223044361,-0.144817152,0.101221729,0.00217037362,-8.20577648e-05,0.0231635475
92377.449441,0.109859424,-0.113080865,0.0210159731,-0.00272931002,-0.00669708369,0.0286216957
92377.459466,0.178601353,-0.0944091718,-0.0481195225,0.00333816971,-0.0125296734,0.0303697956
92377.469491,0.272690509,-0.067194472,-0.152547865,0.00981417827,0.00578035847,0.038130514
92377.479515,0.170491934,-0.119162925,-0.0180002785,0.00738777237,0.000366152167,0.0387947072
92377.489540,0.136748253,-0.042840203,0.119673916,-0.00346673938,-0.00372872441,0.0352311281
92377.499565,0.225752323,0.176888663,0.0681956574,0.00305933685,-0.0016013911,0.0310837884
92377.509590,0.25876685,0.281037513,-0.0619569092,0.0221440808,0.00883260709,0.0381313113
92377.519615,0.0443510738,0.129160405,0.0516653784,0.0104362934,-0.00208741809,0.0326478628
92377.529639,-0.0723965929,0.00777458857,0.130230381,-0.00320042327,-0.0162301346,0.0263481547
92377.539664,0.0222920146,0.0405143903,-0.152143376,0.000970885849,-0.00850457172,0.0232993697
92377.549689,0.146148945,0.0659644368,-0.179974801,-0.00152316452,0.0127256155,0.0172574555
92377.559714,0.14406422,0.0226984553,0.0296540376,-0.00823646069,0.00784643893,0.0169437339
92377.569738,0.0829143529,-0.00918631871,0.12750534,-0.00189787133,-0.0119674786,0.0242932604
92377.579763,0.00490266186,-0.0912253359,0.0480401736,-0.00177563221,-0.0100033976,0.028644066
92377.589788,-0.0450933471,-0.202402495,0.0124053811,-0.00975579426,-0.0101661164,0.030683249
92377.599813,-0.00533123643,-0.238468117,-0.0615208558,0.00457014812,-0.000241314856,0.0375352983
92377.609838,0.00206679683,-0.24861085,-0.00839073866,0.000825210992,-0.00109379259,0.0415337679
92377.619862,-0.0691329606,-0.241013418,0.140650653,0.00334855605,-0.00614314606,0.0437782814
92377.629887,-0.0292901654,-0.15846751,0.0228987181,0.00708923226,-0.00470610415,0.0494801064
92377.639912,0.0279909591,-0.0701262511,0.0181260969,0.00513500458,-0.00655753431,0.0508918499
92377.649937,0.0636244364,0.0839384849,0.0133435388,0.0038899767,0.00278749843,0.0543925759
92377.659962,0.103536669,0.23535762,-0.000851575328,0.00839524593,0.00157416206,0.0555640978
92377.669986,0.0578130011,0.237120264,0.116776441,0.00514832016,-0.0138932116,0.0500747931
92377.680011,0.0934070506,0.203790479,-0.0713045832,0.0063038661,-0.00988994758,0.0474236158
92377.690036,0.122437111,0.158630829,-0.156287052,0.00356187525,0.00608822018,0.0419079435
92377.700061,0.155810224,0.174906914,0.0732628777,-0.000438991591,0.00785442874,0.0362165009
92377.710086,0.233806158,0.155401218,0.234581567,0.00751746835,-0.0139025323,0.0370841582
92377.720110,0.221898077,0.0978444616,0.063110317,0.00445882807,-0.0137589875,0.0361973231
92377.730135,0.138746907,0.0469162749,-0.193207792,0.00694755202,-0.00199713684,0.0319810097
92377.740160,0.163144604,0.0153566229,-0.178227081,0.00590465793,0.00837720711,0.0305871104
92377.750185,0.112146439,-0.0142954602,0.0417448729,-0.00298950106,-0.00266585672,0.0271223371
92377.760210,0.148088964,0.0167885737,0.126433911,0.00202043767,-0.00566750565,0.0338236501
92377.770234,0.130072994,-0.0694124951,0.00464176139,0.00876862153,-0.00670240992,0.0374426168
92377.780259,-0.0112814798,-0.187506613,-0.0737589906,0.0013684958,-0.0041356551,0.0384042856
92377.790284,-0.115778465,-0.176587068,-0.0564045357,-0.00176284888,0.00369963087,0.0393473131
92377.800309,-0.0607299424,-0.0891028821,0.0486369705,-0.00155405718,0.000372277476,0.0394338627
92377.810334,-0.0791125394,-0.0057152816,0.138871953,0.00406654429,-0.00839511524,0.0412552019
92377.820358,-0.140920998,0.0959620454,0.0486486609,0.00259248463,-0.00402353597,0.0407513303
92377.830383,-0.21538695,0.169608278,0.0121329939,-0.00312745275,-0.00638922197,0.0382234563
92377.840408,-0.223364048,0.23545845,-0.082741923,0.0024675824,-0.00343231424,0.0381377039
92377.850433,-0.174990551,0.235529488,-0.144083988,0.00470250722,0.00239175246,0.0404948701
92377.860458,-0.162347908,0.0648281263,0.0934031639,0.00431954458,-0.00477934149,0.0375211832
92377.870483,-0.187846909,-0.048544132,0.121542048,0.00464365136,-0.00905424762,0.0374450159
92377.880507,-0.253403596,-0.0448133115,-0.0222474146,0.0068788423,-0.00770402546,0.0393382569
92377.890532,-0.209026932,-0.0521318543,0.0335855318,0.00673822749,-0.0022493383,0.0394437161
92377.900557,-0.139709257,-0.00547984714,0.0175900903,0.0106104637,-0.0065612624,0.0400719565
92377.910582,-0.136526992,0.0719388168,-0.0609398411,0.0159855221,-0.00336733307,0.0397896615
92377.920607,-0.137309365,0.124686054,-0.0456417342,0.0118206038,0.00493933227,0.0372697783
92377.930631,-0.110777725,0.183626392,0.118233654,0.00797606416,-0.00408718582,0.0331693103
92377.940656,-0.0624379154,0.269251761,0.0592968962,0.0129356698,-0.00707179015,0.0326515918
92377.950681,-0.0263042997,0.179978719,-0.119338254,0.0138992012,-0.00947822291,0.0337070038
92377.960706,-0.0416275616,-0.0647626965,-0.0817534965,0.00886076659,0.00233742399,0.0343634707
92377.970731,-0.0280734922,-0.251461235,0.060426777,0.00791880691,0.00428925468,0.033015113
92377.980756,-0.0800024922,-0.343462843,0.206186663,-0.000150038605,0.00145245567,0.0365043876
92377.990780,-0.132190433,-0.283466548,0.226513411,-0.0136602552,-0.0115078169,0.0381409002
92378.000805,-0.039386185,-0.161033287,-0.0666535425,-0.00413332863,-0.00449784506,0.0463202667
92378.010830,0.0191629227,-0.159519412,-0.148353921,0.00289448717,0.0110699289,0.0496569422
92378.020855,0.0516757085,-0.144959118,0.157949578,-0.0110474278,0.0145626642,0.0420786512
92378.030881,0.0870421186,0.0259264957,0.242313038,-0.0134510671,-0.00915793828,0.0378605795
92378.040906,0.115843686,0.263064469,-0.138529277,0.00266771571,-0.00473682429,0.041265167
92378.050930,0.0912925609,0.343037293,-0.314638123,0.00574739527,0.0156731099,0.0407261399
92378.060955,0.110166736,0.250550111,-0.0466225619,0.00478759192,0.0027711593,0.0383042653
92378.070980,0.197268626,0.114440207,-0.00246719383,0.0122106212,-0.0229648299,0.0433352438
92378.081005,0.281626314,-0.0197266914,-0.173336386,0.00527095579,-0.0123116536,0.0403338593
92378.091030,0.323307218,-0.0398313218,-0.134573233,0.000519077432,0.013782798,0.0400603523
92378.101055,0.301024933,-0.0321967718,0.166497042,-0.00127642573,-0.00125846963,0.0410124359
92378.111080,0.29462166,0.00721920144,0.318676731,0.00285680003,-0.0216015581,0.0434393731
92378.121104,0.244631777,0.0330294596,0.0985609851,0.00618362071,-0.0183887206,0.0425735784
92378.131129,0.222298858,0.10715131,-0.158201361,0.00577269511,0.0100399914,0.0386819017
92378.141154,0.105068025,0.166554279,0.0296043532,0.00244427652,0.00523884422,0.0331353356
92378.151179,0.127624451,0.19065671,0.114009899,0.00798045628,-0.0121912783,0.0361495015
92378.161204,0.230897815,0.121034527,0.0935165612,-0.00100371807,-0.00453335871,0.0308969484
92378.171229,0.206627077,0.114269344,-0.028000279,-0.00815324049,0.008690301,0.0248345283
92378.181253,0.149280658,0.128245902,-0.164178097,-0.00202850259,0.0148688347,0.0288649571
92378.191278,-0.0347487344,-0.0138268928,0.0554904896,-5.35022185e-05,-0.00256554908,0.0291866657
92378.201303,-0.14399383,-0.194287249,0.1023142,-0.00743418682,-0.0105390533,0.0315020193
92378.211328,-0.16927621,-0.279582857,0.0204460642,-0.00502722181,-0.00113090428,0.0300958694
92378.221353,-0.178700328,-0.211547815,-0.0069551529,-0.0117538342,0.0114860876,0.0286676155
92378.231378,-0.139759097,-0.0174335572,0.0841414146,-0.0137786356,0.00212534275,0.0256611739
92378.241403,-0.130850435,0.150208892,0.0280132846,0.00322804477,-0.00705563869,0.0353612077
92378.251427,-0.185909566,0.163852655,-0.0945276379,0.00406427745,0.00584098524,0.0370208879
92378.261452,-0.295626626,0.114031645,0.0793500886,-0.00253370411,0.00688308025,0.0316282508
92378.271477,-0.231317016,0.128180746,0.0672329499,0.00485310581,0.000806012851,0.0314538178
92378.281502,-0.26542016,0.135802674,0.020865751,0.0123709428,-0.00984796263,0.0286617574
92378.291527,-0.363876735,0.149782337,-0.0648485389,0.0107874271,0.0129423045,0.0258784869
92378.301552,-0.392615923,0.107449709,0.194178829,-0.00857694942,0.00695631713,0.0225809624
92378.311577,-0.370139193,0.15274621,0.203434733,-0.00182690117,-0.0155694972,0.0235540808
92378.321601,-0.316474202,0.0696568433,-0.293629238,0.0274753288,-0.0046843601,0.0349082013
92378.331626,-0.377545195,-0.232928512,-0.198713989,0.0081399788,0.0154435454,0.0294500531
92378.341651,-0.318509836,-0.377956978,0.163104477,-0.0113849866,9.94762135e-05,0.0262918097
92378.351676,-0.0503875811,-0.176116674,0.107722197,-0.00116004557,-0.00489528231,0.0367292685
92378.361701,0.0575316725,0.0488858214,-0.102814989,0.00138194166,0.0098564994,0.0415695679
92378.371726,-0.0681890399,0.182964969,-0.0848619839,-0.00470364775,0.0062521772,0.0411088389
92378.381751,-0.115194811,0.194864903,-0.0797801506,0.00202003499,-0.00815818678,0.0446439159
92378.391776,-0.0189503818,0.10247287,-0.0881469969,0.00997569568,-0.00927005741,0.0389514116
92378.401800,0.139445675,-0.00736754232,0.0511790562,-0.00214648067,0.0210204699,0.0277022195
92378.411825,0.0883802354,0.0136937495,0.274269434,-0.0145629368,-0.00266728164,0.020665351
92378.421850,0.064250505,0.178398117,0.00221658007,0.00603288615,-0.0150901287,0.0293970552
92378.431875,0.0942266416,0.0804089225,-0.172997363,0.00246984272,-0.00546679679,0.026592748
92378.441900,0.0442318679,-0.0168937513,-0.0408772962,-0.00914873026,0.0155620562,0.0214816087
92378.451925,0.117518104,0.0239252206,0.0845044027,-0.0053167076,0.00861946088,0.0243865845
92378.461950,0.00662170877,0.0327788276,0.167396036,0.000176062273,-0.0179098848,0.0253716872
92378.471975,-0.13519072,0.0360975237,-0.09163367,-0.00292625424,-0.00151226877,0.0262910106
92378.481999,-0.158256182,0.0533632408,-0.0947877501,-0.00657611649,0.0071653753,0.0223098506
92378.492024,-0.100440729,-0.00159613758,0.159585655,-0.00922063488,0.000456872416,0.0256529187
92378.502049,-0.0237486284,0.0322089187,0.256676494,-0.00774071675,-0.0130866332,0.0197865066
92378.512074,-0.0264948378,0.107246387,-0.0111870914,0.00141070381,-0.00444174591,0.0213258133
92378.522099,-0.0769299346,0.11382255,-0.145706036,-0.000882810512,0.0140810717,0.0170538367
92378.532124,-0.215064202,0.0856834654,0.00243460674,-0.00239149138,0.00436506108,0.0151589976
92378.542149,-0.216335775,0.108871942,0.0521026007,-0.00553082565,-0.00780878063,0.0145619174
92378.552174,-0.14231585,0.0888724707,0.0202286221,0.00787978822,-0.00445559421,0.0174466536
92378.562199,-0.0961132581,0.062346155,0.00692724198,0.00312258367,0.0196542699,0.0140026535
92378.572223,-0.191146608,0.105441237,0.23062903,-0.00936844043,0.00464469301,0.00994985523
92378.582248,-0.0933696767,0.11769477,0.0624258418,0.00676418997,-0.0161314256,0.0180618425
92378.592273,-0.0545547837,0.097629047,-0.246098256,0.0104028673,0.0159823016,0.0164937747
92378.602298,-0.117269315,0.113923764,0.0563193417,-0.0151594843,0.0321737897,-2.31510913e-05
92378.612323,0.0253901016,0.212224034,0.246183157,-0.00693511061,-0.00923117469,0.00600944153
92378.622348,0.125903782,0.210421076,-0.099631683,0.00699615123,-0.0216886442,0.0130857264
92378.632373,0.0235911441,0.174546136,-0.333656127,-0.00460431196,0.0249771286,0.00231563738
92378.642398,-0.0331406485,0.163023128,-0.0477156178,-0.015532859,0.026858918,-0.00568716162
92378.652423,0.0349315583,0.174469016,0.273232492,-0.00223250065,-0.0256508946,0.00119551151
92378.662448,0.0702912511,0.0913268781,0.00342946299,0.00114944769,-0.0220713395,0.00193533786
92378.672472,0.0492689076,-0.0379929091,-0.20338198,-0.00995034102,0.0159434207,-0.00252439109
92378.682497,0.01924508,-0.143221645,0.0207558608,-0.00863580529,0.0100759441,-0.00124394362
92378.692522,0.0460783634,-0.0136579842,0.135655913,-0.00809864543,-0.0034422617,-0.00134381214
92378.702547,-0.00589552838,0.135494211,0.0593255377,0.000378196179,-0.0103875197,0.000901232199
92378.712572,0.000603270469,0.205030798,-0.0825244809,0.00524645455,0.0106245555,0.00319767623
92378.722597,-0.0308111301,0.129635128,0.157942564,-0.00445890317,0.00101640252,-0.00102236894
92378.732622,-0.0106184835,0.0449610127,0.0911977628,0.00485576892,-0.0160786941,0.00297929692
92378.742647,0.0381882928,0.0218676123,-0.206408635,0.00935837504,0.0042116634,0.00279473998
92378.752672,-0.0313440017,0.00768190531,-0.022191885,0.000106820088,0.0244849768,-0.00730077018
92378.762697,-0.0326497825,0.058724019,0.175023462,-0.00331560831,0.00209791227,-0.00112809641
92378.772721,-0.0766347876,0.0941839481,0.125795029,0.0040304553,-0.00828921455,0.00694154827
92378.782746,-0.202649505,0.0692565737,-0.0111192868,0.000314280326,0.00123904287,0.00708615752
92378.792771,-0.29462492,-0.0537111777,-0.0989542222,-0.00167350303,0.00900588524,0.00779482509
92378.802796,-0.23080039,-0.0711412003,0.166944201,-0.00415956398,0.00459515829,0.00528665977
92378.812821,-0.163461496,0.0658109085,0.204482197,-0.00804005593,-0.00146592989,0.00161549235
92378.822846,-0.126821216,0.160735857,-0.0344995779,0.000765686091,-0.00522684572,0.00654553595
92378.832871,-0.18569227,0.0730621582,-0.0862695126,-0.00148175547,0.0137220776,0.01153337
92378.842896,-0.218115535,-0.00768272748,0.151333375,-0.0171459357,0.0143327402,0.00537507674
92378.852921,-0.135302382,0.0143636298,0.260986759,-0.00354304218,-0.0123550625,0.00870216424
92378.862946,-0.0657146629,-0.0575183149,-0.180892501,0.0110734512,-0.0269579742,0.0152985469
92378.872971,-0.10510209,-0.256468724,-0.583677767,0.0184671857,-0.000844880686,0.016745975
92378.882996,-0.315089323,-0.32947275,-0.569286254,-0.0014977344,0.0311506033,0.0114995481
92378.893020,-0.208450337,0.00402955682,0.19728381,-0.0185566119,0.019369844,0.00566589432
92378.903045,0.0981063508,0.294228619,0.654213923,-0.0352354574,-0.0157354123,0.0229905562
92378.913070,0.137706814,0.476051605,0.2044594,-0.0297578669,-0.0012414255,-0.00136405257
92378.923095,0.0284775371,0.442173411,-0.457557817,0.0213292853,0.0092450377,0.0159984266
92378.933120,-0.102943405,0.0589789436,-0.281505084,0.0259131172,-3.36818435e-05,0.0136918628
92378.943145,-0.267967635,-0.161968395,0.327121903,0.0215372775,-0.0323095958,0.00990298363
92378.953170,0.00488672908,-0.235540338,0.129486285,0.0114090095,-0.0153444618,0.0117059431
92378.963195,-0.0613025592,-0.0554863524,0.0557085163,-0.0172711036,0.0081299717,-0.00242399079
92378.973220,-0.0328217713,0.189656703,-0.0520592,0.00121070042,-0.00384093668,0.00787498588
92378.983245,-0.121994298,0.278667532,-0.227870525,0.00603022303,-0.00217006947,0.00991443517
92378.993270,-0.175672962,0.150038229,0.147721614,-0.00728398452,-0.00354532604,-4.57878178e-05
92379.003295,-0.225943141,0.0402090506,0.145913688,0.00268262944,-0.0278131146,-0.00034805601
92379.013320,-0.206235639,-0.0269088945,-0.0646158992,0.0128870641,-0.01261259,0.00282456745
92379.023344,-0.349424139,-0.150613582,0.1433868,-0.0104608697,0.00342203597,-0.00114700505
92379.033368,-0.329283816,-0.0719997351,0.26066761,-0.0181310124,-0.00279649985,-0.000676016598
92379.043393,-0.297456307,0.0243746084,0.235789189,-0.0103782837,-0.0250171165,0.00410196111
92379.053418,-0.236679511,0.206491701,-0.101225674,-0.0115380905,0.00370560833,-0.00325262481
92379.063443,-0.187072472,0.106558751,-0.311471768,0.00764545722,0.00737198176,0.000406292924
92379.073468,-0.28057168,-0.142502007,-0.198322359,0.00159262463,0.00313462633,0.00491129579
92379.083493,-0.443735504,-0.0760289723,0.0304372969,-0.0299133699,0.00152581082,-0.00708384746
92379.093518,-0.195346781,0.198145185,0.10277948,-0.0185640439,-0.0180686641,-0.00824658507
92379.103543,0.208091396,0.32884722,-0.20204401,0.00950354494,-0.0101369697,0.00298716194
92379.113568,0.241720657,0.191878306,-0.225058975,0.00802975211,0.00542680886,-0.0006845382
92379.123593,0.0149607538,-0.0294545422,0.0333727658,0.00174708798,-0.00144654324,-0.00143634835
92379.133618,0.093130042,-0.142217838,0.0864958687,0.00278944911,-0.0176438897,0.00428039274
92379.143643,0.0719291316,-0.0623089467,0.0697323655,-0.000847896277,0.00412239288,-0.00413892446
92379.153668,0.181699685,0.166929067,0.17791217,-0.00375260582,0.00763989579,-0.00744497338
92379.163693,0.272171398,0.291986119,0.253936256,0.0131233136,-0.016630024,-0.000844594366
92379.173718,0.230601425,0.223627015,-0.0928652576,0.0359516662,-0.0143215948,0.00721226698
92379.183742,0.0950337567,0.0210840972,-0.123777113,0.00993870541,0.015664267,-0.00174341099
92379.193767,0.0359616389,0.0212595268,0.235203498,-0.00692522975,-0.00349318269,-0.00777813354
92379.203792,0.177641788,0.161193647,0.000717281424,0.010083581,-0.0185070209,0.00569240069
92379.213817,0.280640591,0.204542886,-0.0281405643,0.00672027485,0.00859517199,0.00408704738
92379.223842,0.222772668,0.130465697,0.189601438,0.000981961778,0.0119198623,0.000697375932
92379.233867,0.203074006,0.0155585387,-0.0185403768,0.00900260422,-0.03298796,0.00389290294
92379.243892,0.232370225,-0.0620080092,-0.327827275,0.0127619223,-0.00536911316,0.00247982955
92379.253917,0.356763571,0.0680359824,-0.108143491,-0.0105402044,0.0469998192,-0.0114543618
92379.263942,0.397010497,0.182645034,0.369918843,-0.0175752121,-0.0118267456,-0.00174074834
92379.273967,0.352378195,0.133408837,0.0023936902,0.0161441357,-0.0510401953,-0.00548275588
92379.283992,0.440781578,0.0109001367,-0.548075123,0.025736842,0.0183380802,-0.0102391609
92379.294017,0.488948849,-0.102487831,0.0325760625,0.0109472449,0.0127784653,-0.0117486411
92379.304042,0.37640504,-0.0763088853,0.376585315,-0.0159517492,0.000451491583,-0.0135036644
92379.314067,0.313893493,0.0933162801,0.318772008,-0.0146262919,-0.035935812,-0.0117249389
92379.324092,0.480441498,0.0889988188,-0.228587149,0.0334693339,-0.00275522084,0.00265186998
92379.334117,0.408953375,-0.0840541656,-0.277738425,0.0203404796,0.029845066,-0.0157010372
92379.344142,0.305186071,-0.148621951,0.489896637,-0.0270214438,-0.0038963853,-0.0185125361
92379.354167,0.332387327,0.161699423,0.172756102,-0.0150366857,-0.0135868288,-0.0104924285
92379.364192,0.285000905,0.322902925,-0.57243215,0.0231770125,0.00719647961,-0.0010986601
92379.374217,0.208891661,0.078020767,-0.091593338,0.0121824189,0.0186648496,-0.00867908196
92379.384241,0.157769925,-0.0410909482,0.427054104,-0.00868904062,-0.000494729592,-0.0169210325
92379.394266,0.217842737,0.0345930009,0.183282757,0.00453781446,-0.0286688435,-0.0111211997
