t,ax,ay,az,gx,gy,gz
105554.026270,-0.202799212,0.11663389,0.0494160651,-0.0567174703,0.0166549254,0.0459490418
105554.036296,-0.213900525,0.153240341,-0.260098797,0.044119928,0.052145008,0.0401417539
105554.046323,-0.194332705,0.18212217,0.0914823519,0.020012198,0.0561147146,0.0274033211
105554.056349,-0.153999964,0.160785989,0.229318459,-0.0297713373,0.0340229943,0.021922268
105554.066375,-0.172915092,0.166383681,-0.0899000512,0.00585376844,0.0185210034,0.0230170935
105554.076402,-0.246588889,0.359949603,-0.438090388,0.0634512827,0.0178770497,0.00835186616
105554.086428,-0.248204799,0.367656743,-0.438490201,0.0908461586,0.0118862698,-0.0109821511
105554.096455,-0.215337207,0.305365743,-0.397800464,0.0982662588,-0.0107745677,-0.0245038196
105554.106481,-0.0758002141,0.160529658,-0.243539292,0.0732780844,-0.0422225073,-0.0291395858
105554.116507,0.0798492703,0.0411821609,-0.0462532171,0.0392870903,-0.0663028061,-0.0211271979
105554.126534,0.137146298,-0.039402511,0.0549029721,0.0115947444,-0.0685079023,-0.00556341745
105554.136560,0.162577019,-0.0312447043,0.179553434,-0.0173215922,-0.0547092706,0.00258452399
105554.146586,0.282377776,0.0236954945,0.273971839,-0.018418014,-0.0234120656,0.00769086927
105554.156613,0.297211334,0.0845174448,0.277686476,-0.00236394792,0.00423127878,0.000893683173
105554.166639,0.297306538,0.144161657,0.336346755,-0.00250909012,0.0258982256,-0.00158598647
105554.176666,0.141822838,0.165165903,0.338739787,-0.00206807069,0.037021447,-0.00402197987
105554.186692,-0.0987332729,0.258826804,0.0762818602,0.0222974569,0.0453568771,-0.0123214545
105554.196718,-0.246736115,0.38713177,-0.136623224,0.0540258251,0.0449928232,-0.0299965888
105554.206745,-0.246504279,0.450884586,-0.312172098,0.0905175209,0.0323939398,-0.0545607917
105554.216771,-0.262061475,0.446665617,-0.508158196,0.124966308,0.00239476329,-0.0815665722
105554.226798,-0.219134334,0.374628189,-0.481774047,0.113978371,-0.0420121178,-0.100807905
105554.236824,-0.145917706,0.269123084,-0.290531345,0.0750184581,-0.089339681,-0.114078172
105554.246850,-0.146762341,0.157577566,-0.210233819,0.0534407273,-0.126904905,-0.124131337
105554.256877,-0.150707717,0.133139729,-0.156450206,0.0485125482,-0.140839636,-0.137920663
105554.266903,-0.0199581346,0.0400105233,0.0216121123,0.040558219,-0.14223966,-0.130555689
105554.276930,0.067201751,-0.0465942857,0.116903793,0.0458488539,-0.139827102,-0.10735742
105554.286956,0.0563552898,-0.0333612581,0.143742116,0.0502510592,-0.138369545,-0.0912892371
105554.296982,0.0161514358,-0.0478516653,0.31148587,0.0321121998,-0.125483766,-0.0780504867
105554.307009,-0.0312535817,-0.103034477,0.40160687,0.0216856599,-0.101786695,-0.0637852624
105554.317035,-0.142264664,-0.117714744,0.4168588,0.0350749642,-0.0537728295,-0.057883963
105554.327061,-0.258980095,-0.0901095292,0.317689985,0.066544205,-0.00307210023,-0.0609684363
105554.337088,-0.334502734,-0.0913093334,0.186467744,0.0831753835,0.0318400785,-0.065489687
105554.347114,-0.333344577,-0.110812491,0.0599368746,0.0821450055,0.0420908518,-0.0703153387
105554.357141,-0.375800959,-0.154400361,-0.068012629,0.0602146722,0.0242404807,-0.0733015388
105554.367167,-0.444064129,-0.228997374,-0.0707020142,0.0338096991,-0.00413416885,-0.076962851
105554.377193,-0.548663591,-0.293214519,0.0409223775,-0.0264067687,-0.0301202312,-0.0696005449
105554.387220,-0.680641254,-0.389140516,0.167954766,-0.0938798189,-0.0418408029,-0.0510316528
105554.397246,-0.852551187,-0.350594037,0.185427879,-0.144760311,-0.0399835147,-0.0284065008
105554.407273,-0.963198916,-0.228170239,0.0626098932,-0.162406415,-0.0354915597,-0.00882294588
105554.417299,-1.03018746,-0.141303673,-0.0812584795,-0.145293206,-0.0580309555,0.00933661591
105554.427325,-0.884921352,-0.121182859,-0.137460259,-0.159618348,-0.101097204,0.0310360529
105554.437352,-1.00502708,-0.10269666,0.0471527963,-0.275827259,-0.0941865668,0.0528020673
105554.447378,-1.28053841,-0.0524958926,0.0483569114,-0.346879333,-0.0935545936,0.0612834357
105554.457405,-1.10936249,0.0205861851,-0.124876087,-0.33845228,-0.10772448,0.0724506006
105554.467431,-1.0525615,0.0347580462,-0.0340092371,-0.356797487,-0.11955823,0.0868782774
105554.477457,-1.03843792,0.0780579482,0.0922837314,-0.389881939,-0.114709951,0.0981969833
105554.487484,-1.04619503,0.145469798,0.0900099413,-0.391895533,-0.102793634,0.108560674
105554.497510,-1.09199101,0.212863693,0.0073912793,-0.36830765,-0.0890709013,0.104901224
105554.507537,-1.12511316,0.277663808,0.0179623577,-0.358249962,-0.0589689203,0.0945087671
105554.517563,-1.05752606,0.352676397,0.0775321525,-0.362338185,-0.0273105949,0.0770663917
105554.527589,-0.960508143,0.446351911,0.00193476745,-0.359475553,-0.00653527491,0.0542391092
105554.537616,-0.809615351,0.49248837,-0.117612234,-0.330270529,0.00801730249,0.0355631597
105554.547642,-0.696492757,0.506054904,-0.20474282,-0.304226398,0.0212888997,0.019278463
105554.557668,-0.606407924,0.528856555,-0.238962485,-0.271265268,0.0385863967,0.00445157988
105554.567695,-0.579684606,0.525708357,-0.389604298,-0.212613121,0.0488483533,-0.00583727658
105554.577721,-0.582691313,0.520578081,-0.411905561,-0.197126567,0.0541741438,-0.00924718753
105554.587748,-0.607137334,0.531618202,0.0540624296,-0.226663157,0.069271341,-0.0285034403
105554.597774,-0.749492745,0.548477968,0.038585459,-0.192789614,0.094245933,-0.0478774048
105554.607800,-0.951245151,0.618519144,-0.191656544,-0.108931474,0.127319202,-0.0671658814
105554.617827,-1.13504207,0.694390524,-0.36349955,-0.0451748669,0.17961143,-0.08353021
105554.627853,-1.29825658,0.553979963,-0.524177603,-0.00025532674,0.221138641,-0.0848173127
105554.637880,-1.44507328,0.317651918,-0.695260146,0.0371564925,0.243461519,-0.05657316
105554.647906,-1.49147044,0.11329037,-0.96645726,0.0680422336,0.257177591,-0.00677604042
105554.657932,-1.59849961,0.0731705963,-0.994317327,0.0616660975,0.260797381,0.0328169093
105554.667959,-1.5981071,0.0455315701,-1.07489367,0.052284047,0.246135339,0.0828979164
105554.677985,-1.54820603,0.0990542302,-1.39468735,0.083187364,0.207567438,0.117748313
105554.688012,-1.55177965,0.379606051,-1.49399411,0.132941887,0.140628085,0.107897013
105554.698038,-1.48168189,0.601245792,-1.23174778,0.143049642,0.0618592277,0.101458549
105554.708064,-1.4828274,0.654115285,-1.18234925,0.224946111,-0.0223267544,0.0914144441
105554.718091,-1.43942958,0.680342855,-1.11946814,0.304655045,-0.11078205,0.0704361871
105554.728117,-1.30441846,0.725282798,-0.772763073,0.386035383,-0.204416126,0.0382670686
105554.738143,-1.22416134,0.770147776,-0.562460865,0.477424413,-0.303471863,0.00819571782
105554.748170,-1.16693227,0.74338018,-0.275698517,0.533080757,-0.386642128,-0.0128978491
105554.758196,-0.933762394,0.645147623,-0.0598211392,0.545257807,-0.440652102,-0.021862315
105554.768223,-0.679603362,0.514266742,0.117719201,0.494123757,-0.483939916,-0.0306962878
105554.778249,-0.466550394,0.41452137,0.561762361,0.4003869,-0.515769243,-0.0288882665
105554.788275,-0.0771164844,0.101721294,0.56643386,0.32875371,-0.548187613,-0.00291392487
105554.798302,-0.145812858,0.323965193,0.753432934,0.252187043,-0.55752176,-0.0176414717
105554.808328,-0.165865831,0.402059363,1.06230131,0.185702026,-0.529770553,-0.0309732556
105554.818355,0.221086966,0.0754341025,1.29980074,0.0613361299,-0.47482577,-0.00363031495
105554.828381,0.184244734,0.198475449,1.40625621,-0.0447655395,-0.415290803,0.0148435012
105554.838407,0.19755817,0.0803682892,1.39398709,-0.112342454,-0.365946174,0.0523227006
105554.848434,0.274582409,0.01243795,1.32961954,-0.155829474,-0.335017025,0.0873917341
105554.858459,0.153494937,0.197179619,1.30429981,-0.197548687,-0.314256072,0.0963418186
105554.868487,0.0565432135,0.389451299,1.25552847,-0.228439495,-0.303040177,0.0840508044
105554.878512,-0.0208079564,0.550820403,1.22763684,-0.291649371,-0.301830024,0.0712034404
105554.888539,-0.0207417227,0.661055752,1.26044254,-0.318731308,-0.302491039,0.053558141
105554.898565,-0.0251848197,0.751106464,1.06501759,-0.290793955,-0.30472061,0.0225434974
105554.908592,-0.0938665619,0.842080281,0.937280266,-0.218558893,-0.299569011,-0.00990072824
105554.918618,-0.15862355,0.867281723,0.76365856,-0.137086138,-0.298499227,-0.0404855348
105554.928645,-0.218566361,0.861304549,0.567843142,-0.0402722508,-0.305106521,-0.0547824502
105554.938671,-0.286415251,0.735707819,0.394022699,0.0457830057,-0.323340118,-0.0571721047
105554.948698,-0.328442923,0.6075507,0.0753647453,0.126538306,-0.362115204,-0.0550594181
105554.958724,-0.256535551,0.542068942,0.00570434912,0.183171764,-0.407264054,-0.0608009249
105554.968750,-0.194021483,0.350804721,-0.0144715929,0.229151234,-0.461045504,-0.0647218972
105554.978777,-0.117202411,-0.0495270512,0.0899047273,0.223572984,-0.512883186,-0.0434208699
105554.988803,0.0111354708,-0.507565418,0.220960965,0.191927969,-0.541778445,0.0207360107
105554.998830,0.11063023,-0.910482494,0.216951145,0.133887574,-0.542720437,0.116921663
105555.008856,0.184082492,-1.20180134,0.193902277,0.0884212777,-0.517624915,0.228105977
105555.018882,0.301116214,-1.32294269,0.0287099617,0.0393051319,-0.472224146,0.331760228
105555.028909,0.353787463,-1.27550962,-0.12723288,0.00899276603,-0.409258485,0.416606128
105555.038935,0.306941431,-1.07423901,-0.547602903,0.0196422152,-0.347687274,0.479040444
105555.048962,0.140990918,-0.678425039,-0.785103499,0.0158994086,-0.300654233,0.512293458
105555.058988,0.0476992512,-0.35880288,-0.946142786,0.0184597727,-0.282015055,0.521925867
105555.069014,0.108908922,-0.11284617,-0.985555344,-0.0151597075,-0.285324275,0.521215856
105555.079041,0.313200711,-0.0989716117,-0.852739696,-0.0990253165,-0.301815391,0.52273041
105555.089067,0.507986493,-0.120437429,-0.592379617,-0.225870863,-0.321663916,0.544339538
105555.099094,0.676689886,-0.264410176,-0.338287952,-0.355537534,-0.325366527,0.594927609
105555.109120,0.905191329,-0.283658902,-0.0422720385,-0.441554189,-0.291782707,0.63797313
105555.119146,0.975686642,-0.223031634,0.177587687,-0.526640058,-0.240566939,0.668389082
105555.129173,0.9113093,-0.0022249449,0.461138671,-0.530632377,-0.190663829,0.64486593
105555.139199,0.624844402,0.161418661,0.475708464,-0.456392765,-0.151234925,0.579901814
105555.149225,0.39115792,0.309347652,0.516502831,-0.34446463,-0.103009351,0.483716428
105555.159252,0.0607759557,0.343472734,0.486589923,-0.217704013,-0.0589750484,0.367783725
105555.169278,-0.201642334,0.439752915,0.372335183,-0.0407521538,-0.0202636048,0.235831007
105555.179305,-0.469931488,0.44088338,0.277324072,0.0948655978,0.00782102719,0.0978734046
105555.189331,-0.627170214,0.303921389,0.266062089,0.198788002,0.0192739516,-0.0300765708
105555.199357,-0.726625299,0.177112909,0.16419103,0.302977771,0.00636321306,-0.147335812
105555.209384,-0.830332926,-0.00184594296,0.101863461,0.392213911,-0.0165298525,-0.254917681
105555.219410,-0.882217573,-0.279223823,0.159885442,0.451127559,-0.0422208346,-0.33224684
105555.229437,-0.868654838,-0.689321696,0.130471716,0.501740158,-0.0656137764,-0.373558819
105555.239463,-0.858612022,-1.0140057,0.13553952,0.501883686,-0.0849232897,-0.382790923
105555.249489,-0.888757788,-1.3531597,0.185467042,0.476685107,-0.0968494564,-0.375054479
105555.259516,-0.734687755,-1.61905739,0.135036831,0.412333548,-0.107757501,-0.343574822
105555.269542,-0.590624919,-1.80711255,0.229684954,0.29866904,-0.119412027,-0.303833008
105555.279569,-0.420521852,-1.83243302,0.291474178,0.182862565,-0.136324152,-0.265842199
105555.289595,-0.248138018,-1.74077443,0.300883812,0.0719672069,-0.143966362,-0.235602558
105555.299621,-0.076921181,-1.59545805,0.485619032,-0.030419223,-0.140916377,-0.202108756
105555.309648,0.115447165,-1.42647204,0.508563855,-0.090111047,-0.119579665,-0.168294072
105555.319674,0.121187681,-1.19255625,0.568045387,-0.13447772,-0.0783270374,-0.151610687
105555.329701,0.0498193852,-0.914668986,0.531042228,-0.138003752,-0.0364584178,-0.154887721
105555.339727,-0.0158637049,-0.676732044,0.362559054,-0.115247294,-0.00531381555,-0.167381138
105555.349753,-0.154405549,-0.537487167,0.221269008,-0.102510192,0.00937618036,-0.173215851
105555.359780,-0.27204942,-0.43674639,0.0679921707,-0.0728164762,0.00438222103,-0.180212781
105555.369806,-0.306980887,-0.385265428,-0.00821603968,-0.0424620397,-0.00774954259,-0.185061067
105555.379833,-0.301902268,-0.286197535,0.0619067133,-0.0136998976,-0.026735751,-0.195832223
105555.389859,-0.321876696,-0.176064021,0.101927758,0.0238216445,-0.036471732,-0.21672897
105555.399885,-0.355358402,-0.0661055898,0.226564776,0.0591540672,-0.026892079,-0.244038358
105555.409912,-0.374012542,-0.0687453455,0.278556245,0.0835672691,0.00831784122,-0.268725574
105555.419938,-0.410155211,-0.122945266,0.26513153,0.0771328062,0.0616724119,-0.290127814
105555.429964,-0.52214091,-0.121315418,0.0855395179,0.0630497411,0.114006989,-0.306809306
105555.439991,-0.580882583,-0.137275587,-0.107417588,0.0104528423,0.163083985,-0.314888299
105555.450017,-0.606034414,-0.196143097,-0.175021051,-0.0913635343,0.190331325,-0.309854656
105555.460044,-0.600653561,-0.230234441,-0.322791108,-0.197067335,0.200295001,-0.289738178
105555.470070,-0.546575532,-0.143836717,-0.583061754,-0.295998961,0.196394265,-0.259826362
105555.480096,-0.441228577,0.0485641062,-0.750355426,-0.410131395,0.184301391,-0.223504066
105555.490123,-0.402852888,0.340479288,-0.848159382,-0.530617893,0.159913227,-0.186187848
105555.500149,-0.443981456,0.538693985,-0.894963803,-0.617708564,0.11946141,-0.145001262
105555.510176,-0.590737988,0.665236472,-0.974101053,-0.649325371,0.0546014495,-0.10991171
105555.520202,-0.676831194,0.708716863,-1.07171855,-0.609669566,-0.0375332683,-0.0828521326
105555.530227,-0.609601495,0.814334489,-1.10584469,-0.517736673,-0.138425797,-0.086793609
105555.540255,-0.547597715,1.08999538,-0.969013374,-0.422040522,-0.218978688,-0.13314034
105555.550280,-0.556875904,1.26263216,-0.690045042,-0.328135878,-0.275469959,-0.203329548
105555.560308,-0.514157473,1.16219698,-0.492744939,-0.199669242,-0.320787102,-0.265720725
105555.570333,-0.359510846,0.967787632,-0.25649405,-0.057334993,-0.35576719,-0.312603027
105555.580360,-0.170855456,0.785425351,-0.103132458,0.0651674867,-0.369428128,-0.347285628
105555.590387,0.0216841547,0.656050783,0.209798935,0.139594838,-0.358030617,-0.369688958
105555.600413,0.258763384,0.482051549,0.45676294,0.207422361,-0.319987088,-0.38779819
105555.610440,0.401921708,0.290681786,0.632988107,0.282374352,-0.263887852,-0.407271206
105555.620466,0.402066377,0.132007163,0.77435005,0.357650757,-0.196855813,-0.416272432
105555.630492,0.338287441,-0.0219803885,0.700756406,0.463291675,-0.117555931,-0.411914974
105555.640519,0.301253887,-0.174143063,0.60147887,0.542776942,-0.0334724821,-0.395983666
105555.650545,0.237911588,-0.289941854,0.477752537,0.582849503,0.0393023901,-0.373978227
105555.660572,0.211967511,-0.391925252,0.343986456,0.601490021,0.0820650309,-0.330507994
105555.670598,-0.0218321118,-0.553866931,0.14522271,0.696210682,0.130712733,-0.253401756
105555.680624,0.481989663,0.0735329268,0.893841521,0.494273305,0.220226362,-0.216736436
105555.690651,0.277134249,0.0150169336,0.538445783,0.393580794,0.280256927,-0.176960528
105555.700677,0.0465975005,0.0303138167,0.34445232,0.36390385,0.317274064,-0.102699868
105555.710703,0.156683796,0.38759778,0.895471753,0.122669399,0.363894582,-0.0584485158
105555.720730,0.142997873,0.262282461,0.717258628,-0.0686230659,0.395570993,0.00765433256
105555.730756,0.238992954,0.156345358,0.494678537,-0.214631945,0.401401997,0.115218878
105555.740783,0.229547555,0.189611521,0.298135974,-0.311855167,0.384239256,0.20031859
105555.750808,0.230580441,0.462841164,0.0477419944,-0.366676867,0.359646559,0.268191934
105555.760834,0.20065314,0.74547781,-0.316276027,-0.383581012,0.325428933,0.296766579
105555.770861,0.0414530138,1.05264764,-0.410285851,-0.403111309,0.293263555,0.295282662
105555.780887,0.0456693894,1.25720839,-0.393784214,-0.404238611,0.266409814,0.276463181
105555.790914,0.0597981968,1.30829297,-0.362083838,-0.390975565,0.24378708,0.258906007
105555.800940,0.0427369892,1.31122888,-0.385363007,-0.323418081,0.207765698,0.239239082
105555.810966,-0.106442021,1.32150769,-0.180950441,-0.281238675,0.167635858,0.212276176
105555.820993,-0.0973312971,1.30322458,-0.0893558613,-0.196826309,0.122556001,0.173441157
105555.831019,-0.0983440544,1.25199752,0.108848497,-0.139648512,0.0829542652,0.121242948
105555.841046,-0.0715215504,1.04873624,0.354058937,-0.0680017471,0.0656833947,0.0676923692
105555.851072,-0.00392553941,0.829294596,0.44049102,0.0137735382,0.069636859,0.0300504528
105555.861098,-0.044028125,0.641330768,0.507395395,0.113938488,0.101772957,0.00394588057
105555.871125,-0.237609171,0.52582106,0.384703666,0.220234036,0.150007859,-0.0221272651
105555.881151,-0.43888479,0.488612296,0.207487151,0.340165496,0.19501023,-0.0470435321
105555.891178,-0.544190866,0.427815224,-0.00929565161,0.475351274,0.228834242,-0.0712247714
105555.901204,-0.582810885,0.390117435,-0.226359024,0.605613649,0.249821275,-0.0855829343
105555.911230,-0.682935867,0.152159213,-0.453419475,0.795938075,0.25853458,-0.0753478706
105555.921257,-0.607383125,0.112190318,-0.380606168,0.863576531,0.287044257,-0.0582298711
105555.931283,-0.639592766,-0.0378333254,-0.471789829,0.987710178,0.309918165,-0.0463596359
105555.941310,-0.649976578,-0.102594223,-0.317599969,1.03463626,0.334593415,-0.0178153403
105555.951336,-0.548139311,-0.15063078,-0.0251969851,1.04238224,0.362027436,0.0167327821
105555.961362,-0.422348922,-0.245678203,0.338740372,0.956444144,0.379617333,0.0581840873
105555.971389,-0.0929006486,-0.597361205,0.385160178,0.825009704,0.379610419,0.118084975
105555.981415,0.0339471613,-0.672456486,0.436014751,0.768119752,0.353741258,0.185324982
105555.991442,0.335985593,-1.04752804,0.0479261188,0.599184275,0.315510005,0.249000102
105556.001468,-0.105133367,-1.09721861,0.163465638,0.43797195,0.258983344,0.30344978
105556.011494,-0.474626806,-0.967885613,0.193456872,0.23303318,0.197254211,0.357209682
105556.021521,-0.557740558,-0.849163152,0.2697475,0.0403630696,0.12815769,0.403808862
105556.031547,-0.341325603,-0.853030641,0.0574058948,-0.0764189363,0.0713370219,0.458021522
105556.041573,-0.0778961452,-0.627199879,0.039240708,-0.192339689,0.0351017863,0.499218225
105556.051600,0.122447162,-0.373341511,0.0626648382,-0.288811356,0.0243668482,0.520959198
105556.061626,0.257788602,-0.0597002893,-0.0334679698,-0.373929709,0.046105966,0.51820761
105556.071653,0.288340977,0.291817512,0.00389174674,-0.49095434,0.0760300457,0.492978156
105556.081679,0.233547146,0.568172374,0.0786567726,-0.590315044,0.0869908184,0.451293826
105556.091705,0.0708351345,0.807686575,-0.0288771349,-0.633750141,0.0730835199,0.385772616
105556.101732,-0.141063334,1.02166791,-0.190993112,-0.620130718,0.0279290918,0.296951652
105556.111758,-0.353141457,1.10162524,-0.297317059,-0.595130563,-0.041675549,0.194608495
105556.121785,-0.430606864,0.950885305,-0.445764576,-0.54516834,-0.124292403,0.117638357
105556.131811,-0.46645983,0.674537968,-0.636844198,-0.488472015,-0.219026357,0.062353
105556.141837,-0.479929589,0.384665782,-0.515693268,-0.437255979,-0.304806262,0.0311226398
105556.151864,-0.433615545,0.190993989,-0.385411522,-0.356192797,-0.368604958,0.00527559733
105556.161890,-0.349767195,0.201840121,-0.189623577,-0.27317223,-0.405215681,-0.0264772717
105556.171917,-0.230292528,0.169732772,0.169734051,-0.195481688,-0.415614277,-0.0583638325
105556.181943,-0.0450891875,0.0297677636,0.448470328,-0.0893531144,-0.402563989,-0.0937508494
105556.191969,0.130941379,-0.12465386,0.547224717,0.021581661,-0.369876355,-0.120466344
105556.201996,0.232488029,-0.277795928,0.581810877,0.0925746113,-0.323965311,-0.142812937
105556.212022,0.208753134,-0.36657114,0.598275105,0.107236378,-0.266874075,-0.167079672
105556.222049,0.130833334,-0.507491549,0.513811108,0.0860946104,-0.205938786,-0.176997811
105556.232075,0.0635238114,-0.693838443,0.383624639,0.0517749824,-0.15443325,-0.166618407
105556.242101,0.0434444433,-0.879523877,0.29660102,0.0267210286,-0.112005904,-0.135065809
105556.252128,0.0585143675,-0.971167557,0.358258727,-0.014251438,-0.0781472772,-0.093809709
105556.262154,0.0978308624,-0.899379355,0.317633287,-0.0393517315,-0.0516112708,-0.0624294132
105556.272181,0.0997422855,-0.757746632,0.315173618,-0.0655258074,-0.0337824747,-0.0415387824
105556.282207,0.187617133,-0.653634808,0.484481553,-0.0702143013,-0.0119589353,-0.0295271259
105556.292233,0.317553572,-0.518099562,0.578852612,-0.0599403642,0.00247060414,-0.02814308
105556.302260,0.403229759,-0.404450277,0.74610186,-0.0607604496,0.00688340934,-0.0344798751
105556.312286,0.414185781,-0.341069436,0.86536303,-0.0845725685,0.00261888932,-0.0451018922
105556.322313,0.378574589,-0.334825098,0.953705331,-0.110534392,-0.0166943558,-0.057050433
105556.332339,0.350347808,-0.330897038,0.962786463,-0.145029515,-0.0284157265,-0.0767716765
105556.342365,0.28115733,-0.294934877,0.853752088,-0.185361236,-0.0294500981,-0.102665588
105556.352392,0.161057225,-0.307768384,0.636798605,-0.222709671,-0.0128580714,-0.130159795
105556.362418,-0.0791427295,-0.300393928,0.475839981,-0.259164602,0.0353608578,-0.165147066
105556.372445,-0.270732145,-0.304889942,0.307474881,-0.30674839,0.0969624296,-0.189654812
105556.382471,-0.404007721,-0.320783494,0.159392105,-0.370307654,0.149807543,-0.208635151
105556.392497,-0.455487002,-0.295284804,-0.0790881498,-0.438508809,0.184129298,-0.217686981
105556.402524,-0.509000712,-0.15971151,-0.269673265,-0.537382901,0.199882701,-0.218316019
105556.412550,-0.628819224,-0.00312473529,-0.356550754,-0.646575987,0.194360629,-0.219743475
105556.422576,-0.694971758,0.210671151,-0.433762004,-0.716576397,0.185057148,-0.210874081
105556.432603,-0.716535282,0.361357424,-0.583483194,-0.71458298,0.166188911,-0.194900975
105556.442629,-0.673634371,0.377420743,-0.766964031,-0.638893545,0.142929405,-0.173936039
105556.452656,-0.554606498,0.522593513,-0.986403485,-0.509606421,0.121364981,-0.178070053
105556.462682,-0.448452939,0.620364626,-1.12195177,-0.348521113,0.117537484,-0.197763607
105556.472708,-0.245685327,0.584612125,-0.896888049,-0.24688904,0.141167983,-0.214958563
105556.482735,-0.249896369,0.596605601,-0.575271246,-0.141421735,0.177426919,-0.236312851
105556.492761,-0.295483049,0.490452371,-0.514469279,-0.00597496377,0.212065056,-0.242101774
105556.502788,-0.373553071,0.268079621,-0.360582786,0.111587353,0.232575133,-0.229516476
105556.512814,-0.530103632,0.054809412,-0.219790752,0.225537896,0.229520753,-0.216637418
105556.522840,-0.668373674,-0.102310127,-0.245506792,0.375836045,0.20712623,-0.212731093
105556.532867,-0.805944554,-0.205995633,-0.390052042,0.545430124,0.17640321,-0.229957491
105556.542893,-0.923473055,-0.334961073,-0.365593308,0.687658131,0.14685224,-0.254459113
105556.552920,-0.925649595,-0.499347954,-0.271619139,0.797094584,0.132507652,-0.273385942
105556.562946,-0.859052897,-0.641018926,-0.163439919,0.85173279,0.12539728,-0.2572954
105556.572972,-0.75766911,-0.733136361,-0.154613054,0.873440742,0.120592125,-0.214498639
105556.582999,-0.601746142,-0.767467231,-0.0242687643,0.829295397,0.119284779,-0.150057867
105556.593025,-0.353759808,-0.753115977,0.196201202,0.761711299,0.118035495,-0.0797312409
105556.603052,-0.135763821,-0.665303034,0.142602883,0.711825788,0.118051209,-0.0051821731
105556.613078,-0.133442968,-0.686363942,0.289181099,0.654420793,0.110195145,0.0786874294
105556.623104,0.19378888,-0.111052693,0.662834963,0.453175575,0.110096879,0.111532196
105556.633131,0.255117684,-0.150450491,0.381677012,0.331066728,0.0829968154,0.127746046
105556.643157,0.229007201,-0.0712461676,0.402879374,0.189821169,0.0558456257,0.156661332
105556.653184,0.387250026,0.253284331,0.422072151,0.0585017614,0.00706397137,0.157709807
105556.663210,0.406729255,0.264388092,0.180204591,-0.0363408625,-0.0438000076,0.156370774
105556.673236,0.419241165,0.441327836,0.248693021,-0.13079226,-0.0966581628,0.16461432
105556.683263,0.454366474,0.491118507,0.189003399,-0.212551579,-0.143702626,0.178591654
105556.693289,0.416894894,0.621089652,0.237377847,-0.322198182,-0.169491887,0.182930484
105556.703316,0.392636286,0.747908617,0.335745866,-0.419418216,-0.177216649,0.190011561
105556.713342,0.452633805,0.844699013,0.200086519,-0.471682996,-0.178165272,0.190559372
105556.723368,0.445676825,1.00490769,0.226288297,-0.512568891,-0.176273629,0.180517927
105556.733395,0.405360268,1.16923726,0.362623936,-0.540600002,-0.172966778,0.148639888
105556.743421,0.384434165,1.38120316,0.446174326,-0.539435446,-0.17053771,0.0972922742
105556.753448,0.318955585,1.48595504,0.494798949,-0.507336617,-0.17804037,0.0360984206
105556.763474,0.224964921,1.40177512,0.454420761,-0.428280681,-0.19594267,-0.0103558954
105556.773500,0.140296204,1.32364003,0.36051089,-0.335043937,-0.225116536,-0.0503981188
105556.783527,0.0926446828,1.24447443,0.314907076,-0.25034529,-0.251602739,-0.0863992572
105556.793553,0.0759503449,1.07824174,0.236265501,-0.149126798,-0.275010347,-0.122319445
105556.803580,0.0623807241,0.921050869,0.099014501,-0.0125519065,-0.287673414,-0.15102087
105556.813606,-0.0487883251,0.794289479,0.0160088855,0.104308933,-0.284985214,-0.167967349
105556.823632,-0.194513998,0.682109427,-0.109079383,0.218959346,-0.260127515,-0.177223966
105556.833659,-0.403906818,0.570611767,-0.285991363,0.343416065,-0.228316322,-0.192246333
105556.843685,-0.610300949,0.51564921,-0.394939229,0.450172603,-0.196312845,-0.211924434
105556.853712,-0.638526305,0.337890331,-0.425684496,0.546625614,-0.173246145,-0.22380878
105556.863738,-0.601127207,0.0726830137,-0.401262587,0.640865326,-0.15803577,-0.219668373
105556.873764,-0.624696518,-0.130988689,-0.25901334,0.726211667,-0.156244263,-0.210578203
105556.883791,-0.666330039,-0.306523096,0.0130734166,0.778907061,-0.162998036,-0.192712381
105556.893817,-0.618169746,-0.472488625,0.179623577,0.781070113,-0.174073592,-0.173208192
105556.903844,-0.313064554,-0.747726247,0.410702031,0.702413619,-0.173570514,-0.135062397
105556.913870,0.189501558,-1.09651937,0.429210332,0.599669933,-0.163563952,-0.0626366735
105556.923896,0.477130569,-1.41566204,0.338210211,0.503266692,-0.138967797,0.0331902504
105556.933923,0.500314278,-1.35110131,0.307547361,0.390574515,-0.0955561474,0.111389175
105556.943949,0.369672759,-1.20807581,0.217528652,0.293333977,-0.0509199686,0.180008188
105556.953976,0.276503769,-1.06131113,0.224979553,0.21012032,-0.010371211,0.241828412
105556.964002,0.316498839,-0.925283904,0.113494862,0.167426378,0.0218964461,0.297861308
105556.974028,0.387735033,-0.70909936,-0.098641576,0.143841699,0.0559148677,0.328095376
105556.984055,0.344817354,-0.363233593,-0.230033329,0.108440027,0.0971704274,0.329665303
105556.994081,0.305672946,-0.00101209965,-0.342454424,0.0824015066,0.137721851,0.314021379
105557.004108,0.238930227,0.328504444,-0.288964826,0.035012681,0.163251713,0.282427758
105557.014134,0.201353836,0.423093164,-0.032363808,-0.0292842817,0.17165266,0.260866553
105557.024160,0.220248469,0.508146725,0.275537774,-0.165616021,0.162303895,0.224784985
105557.034187,0.259568124,0.596017097,0.222420516,-0.268083811,0.13066794,0.179736286
105557.044213,0.118744672,0.546686445,0.0922901612,-0.307464242,0.0828008056,0.13371633
105557.054240,-0.0968699267,0.466400756,0.064754504,-0.280187607,0.0291860513,0.0968762785
105557.064266,-0.237822923,0.34106275,-0.0112093763,-0.235347703,-0.0166932903,0.0637305826
105557.074292,-0.321767318,0.277372369,-0.0590852262,-0.159832701,-0.0586585812,0.0372100249
105557.084319,-0.398558844,0.21599304,-0.135581606,-0.0621077418,-0.0869639963,0.0118527375
105557.094345,-0.491542395,0.246230138,-0.15777824,0.0670217499,-0.104834333,-0.0171938278
105557.104372,-0.596811937,0.250626912,-0.220659936,0.208283007,-0.109258115,-0.0490939692
105557.114398,-0.659786316,0.163991123,-0.340208106,0.359401673,-0.1107122,-0.0811131597
105557.124424,-0.636341801,0.023269378,-0.450721322,0.457068861,-0.12219575,-0.110918462
105557.134451,-0.570124714,-0.214598517,-0.421638435,0.485158533,-0.14987877,-0.133601397
105557.144477,-0.454419665,-0.505313475,-0.397450335,0.462373078,-0.184840217,-0.135426462
105557.154504,-0.273553431,-0.878456102,-0.261567116,0.384504914,-0.221984118,-0.100947842
105557.164530,-0.0522902688,-1.22611007,-0.0211637841,0.260858864,-0.235500202,-0.031060908
105557.174556,0.154595701,-1.42228467,0.167878194,0.118253246,-0.224355936,0.0677564815
105557.184583,0.198722355,-1.43805668,0.382430461,-0.0430821218,-0.187770754,0.167654589
105557.194609,0.223086944,-1.30169299,0.557819176,-0.181050912,-0.137142465,0.257388204
105557.204636,0.308584632,-1.03684166,0.615679244,-0.264708251,-0.0909579322,0.332310379
105557.214662,0.374482205,-0.672853157,0.653296735,-0.297440618,-0.0441230498,0.37573427
105557.224688,0.38344077,-0.257793443,0.686612729,-0.310331941,-0.00773548055,0.385013521
105557.234715,0.416959118,0.103651659,0.744082337,-0.297510147,0.0141288051,0.372101724
105557.244741,0.464935323,0.363962053,0.857252205,-0.288307846,0.0297101606,0.334378034
105557.254768,0.421906219,0.597078077,1.10143681,-0.318436205,0.0495445877,0.278801322
105557.264794,0.390648656,0.690032182,1.34157594,-0.354539067,0.0726270005,0.212716073
105557.274820,0.409132699,0.676457611,1.47625972,-0.401805371,0.109516039,0.144428894
105557.284847,0.380728881,0.650211556,1.59216281,-0.48114416,0.162213355,0.0795934349
105557.294873,0.275629324,0.580417888,1.43228087,-0.55819422,0.226773962,0.0258087665
105557.304900,0.00150967391,0.610204759,0.967576035,-0.624182999,0.293314308,-0.0298491493
105557.314926,-0.360083129,0.705929936,0.483290882,-0.682314992,0.345689356,-0.0977283344
105557.324952,-0.670116645,0.660368719,0.0475467641,-0.739277363,0.37601769,-0.151046678
105557.334979,-0.823038458,0.587962166,-0.517692333,-0.800220311,0.374925792,-0.176815167
105557.345005,-0.969652622,0.625362288,-0.971157985,-0.857981384,0.336827964,-0.186181769
105557.355032,-1.15547206,0.739890877,-1.39768478,-0.872775257,0.265512764,-0.194358468
105557.365058,-1.21750327,0.846931229,-1.82304779,-0.808160007,0.178349912,-0.199878663
105557.375084,-1.10486408,0.891995455,-2.26935071,-0.680158138,0.0805618241,-0.20263344
105557.385111,-0.760043949,0.849669714,-2.59103531,-0.51511538,-0.00721383095,-0.202440366
105557.395137,-0.255475941,0.846372426,-2.60104233,-0.394543678,-0.0768299252,-0.221166119
105557.405164,0.131431245,0.917931568,-2.39672329,-0.311061561,-0.116774946,-0.263629407
105557.415190,0.303751421,0.874774052,-2.14059807,-0.243247628,-0.131093696,-0.317108363
105557.425216,0.354802632,0.553819622,-1.84722595,-0.1895836,-0.123462141,-0.348576009
105557.435243,0.342463375,0.0361775211,-1.68022863,-0.11500711,-0.112622015,-0.332028449
105557.445269,0.20567875,-0.378104487,-1.60482121,0.0177051295,-0.120734535,-0.290208042
105557.455296,0.0316197847,-0.557205099,-1.54522979,0.218537048,-0.140464559,-0.264496267
105557.465322,-0.114364813,-0.581799698,-1.33362527,0.427346438,-0.174013734,-0.273805618
105557.475348,-0.240964984,-0.524086747,-0.924191067,0.638646185,-0.218969211,-0.318733156
105557.485375,-0.218888433,-0.474755693,-0.493406618,0.796341777,-0.253259033,-0.380905449
105557.495401,-0.0827796247,-0.529012549,0.107315296,0.867612243,-0.272428721,-0.435846984
105557.505428,0.199909555,-0.763504465,0.700778033,0.833190858,-0.259576857,-0.458140045
105557.515454,0.507287989,-1.1188956,1.1006781,0.748606741,-0.228802681,-0.417900473
105557.525480,0.737666771,-1.47416187,1.11072077,0.701555371,-0.150687635,-0.310019016
105557.535507,0.643781742,-1.57195764,1.3486808,0.563864887,-0.0941205025,-0.199673876
105557.545533,0.584054528,-1.64970797,1.20244161,0.431431472,-0.0307660289,-0.0547968447
105557.555560,0.237773093,-1.48396883,1.03913028,0.274639994,0.0178433172,0.0566191599
105557.565586,-0.13439773,-1.12766737,1.05321668,0.0957490653,0.052968815,0.131308302
105557.575613,-0.234235165,-0.801722333,0.965069605,-0.0487311557,0.0586605221,0.183273241
105557.585639,-0.295664031,-0.283762435,0.961700421,-0.208913893,0.0545105189,0.227246821
105557.595665,-0.327564861,0.0451667736,0.623322453,-0.27613607,0.0548258349,0.246806145
105557.605692,-0.345638717,0.420323042,0.402576008,-0.306601316,0.0583979338,0.227916881
105557.615718,-0.375134604,0.810698178,0.296990311,-0.365208149,0.073474355,0.188819811
105557.625744,-0.18434666,1.06896296,0.325986104,-0.418080419,0.0931300819,0.127926365
105557.635771,0.0629150136,1.0951174,0.312706352,-0.482710034,0.0987919644,0.0783023536
105557.645797,0.350755292,1.27235232,0.402369087,-0.549926877,0.0970145687,0.0283925831
105557.655824,0.427973959,1.25241311,0.342457347,-0.552898407,0.0823480114,-0.00980566908
105557.665850,0.384132296,1.2720982,0.406235115,-0.554245174,0.0776896104,-0.0469796695
105557.675877,0.415415287,1.45382094,0.374977806,-0.526547492,0.0845978484,-0.0991150439
105557.685903,0.495327978,1.49206665,0.24616438,-0.457551152,0.0885952488,-0.149168357
105557.695929,0.514194956,1.55064217,0.32061201,-0.415702492,0.0876927078,-0.217870712
105557.705956,0.566393601,1.43605367,0.0945335562,-0.237967119,0.0666713119,-0.268750668
105557.715982,0.462449023,0.98851624,0.124631757,-0.0692351013,0.0337128267,-0.300750703
105557.726009,0.520845938,0.955431205,0.337785848,0.0772267804,0.000361530518,-0.349807978
105557.736035,0.541978889,0.5608942,0.15595687,0.248751938,-0.0246082693,-0.379739255
105557.746061,0.376608184,0.278984224,0.262513457,0.416942,-0.0337551609,-0.393943757
105557.756089,0.0824547767,0.0215454906,0.392500019,0.563611627,-0.0190899316,-0.385926843
105557.766115,-0.163082374,-0.22949482,0.529636453,0.688364208,0.00881706644,-0.349575758
105557.776142,-0.330758616,-0.360691105,0.490471733,0.817060113,0.0652635619,-0.301767498
105557.786168,-0.451075579,-0.361484301,0.331673502,0.925827622,0.137378246,-0.238414079
105557.796194,-0.503418601,-0.335497846,0.0323445188,0.981969714,0.226387486,-0.155343428
105557.806221,-0.693955493,-0.38149665,-0.304432444,0.981206954,0.305017292,-0.0660327226
105557.816247,-0.965671371,-0.477766163,-0.443850852,0.913315833,0.369386166,0.0329263471
105557.826274,-1.58985453,-0.268241771,-0.161040457,0.610014021,0.427686751,0.0877086371
105557.836300,-1.43895217,-0.32620625,-0.578934445,0.429813594,0.473537862,0.184181646
105557.846327,-0.695774233,-0.584618117,-1.57314013,0.310754329,0.512333751,0.271979153
105557.856353,-0.0736422232,-0.646775005,-1.91571555,0.22473155,0.586794913,0.416485995
105557.866379,0.3214432,-0.670026775,-2.35436591,0.24316515,0.666921437,0.507540762
105557.876406,0.601683014,0.243911924,-2.4499668,0.218401223,0.728124082,0.494363755
105557.886432,0.667370561,0.341317383,-3.65657137,0.49246791,0.800298393,0.290231645
105557.896459,0.941078197,-0.176786015,-4.00990375,0.605324984,0.778764606,0.138680205
105557.906485,1.90400173,-0.0751536599,-3.37456937,0.597368777,0.714817882,0.178652123
105557.916510,2.40307573,-0.232232885,-3.48042804,0.605579019,0.640581965,0.263526797
105557.926538,2.24959884,-0.29660723,-3.38975817,0.589254379,0.522952795,0.291861773
105557.936563,1.800717,-0.0707465109,-2.91526201,0.469746351,0.371957719,0.285385489
105557.946591,1.39329546,0.142145787,-2.5643969,0.280855,0.207561329,0.291068673
105557.956616,1.01248324,0.30615313,-2.45986626,0.103098318,0.0493306704,0.29075256
105557.966643,0.667339654,0.416069695,-2.30933727,-0.062836051,-0.098321639,0.27168566
105557.976669,0.574721942,0.377325685,-2.21891407,-0.235843509,-0.228691623,0.26984781
105557.986696,0.666334131,-0.0106877636,-2.27199918,-0.304087818,-0.327033371,0.295182467
105557.996723,0.762360556,-0.157067388,-1.87831199,-0.383037746,-0.415818393,0.302077383
105558.006749,0.691782168,0.136837816,-1.2302403,-0.366121352,-0.489082754,0.26888001
105558.016776,0.797695635,0.111473804,-1.06486795,-0.242543757,-0.531917036,0.220507696
105558.026802,1.06930177,0.0119418553,-0.84009298,-0.0568719059,-0.551237464,0.177395374
105558.036828,1.38891724,-0.114477005,-0.524893643,0.0845994726,-0.545814216,0.1401833
105558.046855,1.59223748,-0.263038504,-0.184009244,0.178825587,-0.506404996,0.104672708
105558.056881,1.73255342,-0.445402392,-0.0512456186,0.251543462,-0.440352499,0.0739139989
105558.066908,1.84382739,-0.61453665,-0.0291682268,0.309782267,-0.360896289,0.0607630387
105558.076934,1.73045046,-0.691161479,0.0118126029,0.344535977,-0.280575603,0.0346243791
105558.086960,1.53956388,-0.716783923,0.044848611,0.346753865,-0.199290588,-0.0173783675
105558.096987,1.33944652,-0.730269646,0.00777940183,0.345001757,-0.131098226,-0.0817685425
105558.107013,1.26460419,-0.82014281,-0.0482967057,0.310510367,-0.0777058378,-0.129034594
105558.117040,1.26103218,-0.893014861,-0.267033565,0.272085488,-0.0460536405,-0.160509154
105558.127066,1.25223352,-1.00354137,-0.674832275,0.267047584,-0.0468411371,-0.165688202
105558.137093,1.27414447,-1.07799982,-1.05750707,0.272063375,-0.0963309258,-0.158011377
105558.147119,1.26520172,-1.13305418,-1.06057639,0.216350853,-0.196784556,-0.161857247
105558.157145,1.29968194,-1.10624362,-0.735059657,0.07978075,-0.31646648,-0.151045084
105558.167172,1.21580341,-0.980374726,-0.381745985,-0.0101251705,-0.432748616,-0.134300992
105558.177198,1.30439757,-1.14693073,-0.47935062,-0.0112250559,-0.522285163,-0.0786574334
105558.187225,1.303945,-1.08760205,-0.517568414,0.0133410068,-0.580895483,-0.0229667425
105558.197251,1.17562024,-0.954041285,-0.671190704,0.0848037377,-0.615545094,0.0229131281
105558.207277,0.977411785,-0.735945938,-0.829356482,0.188983411,-0.620377898,0.0394124761
105558.217304,0.772428068,-0.528976674,-0.731502841,0.268028438,-0.596325815,0.020828139
105558.227330,0.596803279,-0.380844945,-0.565396333,0.315167189,-0.556764603,-0.0273926519
105558.237357,0.520673614,-0.373833167,-0.291462488,0.294592112,-0.521618605,-0.0640697032
105558.247383,0.508837265,-0.475101438,0.154219086,0.210157678,-0.503020942,-0.0785535723
105558.257410,0.403550113,-0.617707097,0.464827589,0.147570729,-0.499221683,-0.0673568472
105558.267436,0.493175074,-0.789978557,0.72042849,0.0797685012,-0.489353597,-0.0358468555
105558.277462,0.643213879,-0.874569542,0.939314986,-0.0105422214,-0.47283718,0.00126056466
105558.287489,0.856423645,-1.00126086,1.10869482,-0.124440566,-0.425637186,0.0620184541
105558.297515,0.837358879,-1.03924441,1.24423901,-0.27988553,-0.355620027,0.108926043
105558.307542,0.575728562,-1.04332949,1.23500006,-0.450975358,-0.274108559,0.132494628
105558.317568,0.378711294,-1.00598015,1.10085404,-0.612919509,-0.199253485,0.141767219
105558.327595,0.302105463,-0.961200655,0.719780839,-0.75328511,-0.16122967,0.136872336
105558.337621,0.298107625,-0.899647139,0.331496977,-0.868631423,-0.15949142,0.131768122
105558.347647,0.376919807,-0.848088874,0.00316869316,-0.935762823,-0.193970576,0.103629969
105558.357674,0.534774035,-0.744213854,-0.244510767,-0.936502635,-0.241116241,0.0598870106
105558.367700,0.704576914,-0.632346594,-0.420191159,-0.854891658,-0.284401387,0.0215377584
105558.377727,0.826256105,-0.480108964,-0.684431878,-0.691904843,-0.311331004,-0.0203265995
105558.387753,0.927034985,-0.339275648,-0.813273947,-0.487980515,-0.319060564,-0.0575719737
105558.397779,0.859288241,-0.220664247,-0.765391667,-0.302513987,-0.291733891,-0.0876912549
105558.407806,0.658622387,-0.176085977,-0.50751873,-0.18181394,-0.245153323,-0.120305665
105558.417832,0.463857136,-0.177668936,-0.250512638,-0.125244141,-0.203122526,-0.152543768
105558.427858,0.342929567,-0.260614418,-0.078520579,-0.11107932,-0.17153503,-0.166211635
105558.437885,0.301612564,-0.390420217,0.0371796838,-0.123672344,-0.145559892,-0.168004751
105558.447911,0.280360152,-0.430105454,0.16137305,-0.177825063,-0.113398761,-0.166851327
105558.457938,0.276065085,-0.415758876,0.206115278,-0.264328271,-0.0807827637,-0.15966399
105558.467964,0.323379794,-0.270438405,0.142836107,-0.356749535,-0.0614141189,-0.160795838
105558.477991,0.380943072,-0.134259856,0.0385796138,-0.402094901,-0.042307537,-0.154467359
105558.488017,0.439180668,-0.0726506641,-0.0689396807,-0.409986377,-0.0334139131,-0.138079867
105558.498044,0.496597961,0.0546926538,-0.132607559,-0.389331698,-0.0349279195,-0.116285346
105558.508070,0.56409095,0.175321167,-0.280969736,-0.323250949,-0.0393969677,-0.0930996016
105558.518097,0.594157002,0.284222563,-0.350885568,-0.254344344,-0.0494418815,-0.0765057132
105558.528123,0.682000998,0.349225124,-0.256651871,-0.172982365,-0.0651883557,-0.0629861802
105558.538149,0.763422705,0.489129086,-0.130557056,-0.0926864594,-0.103076346,-0.0575871505
105558.548176,0.784669053,0.655425126,-0.0534264698,0.0172855817,-0.156679124,-0.0665297806
105558.558202,0.777470812,0.712704033,-0.0243406605,0.141524434,-0.221634418,-0.0625781789
105558.568229,0.790755825,0.800008807,0.137723879,0.198245242,-0.307023615,-0.0627363697
105558.578255,0.772458537,0.887207782,0.400846992,0.214739531,-0.375833571,-0.0718531683
105558.588282,0.675534578,0.761706549,0.38010874,0.191254705,-0.438086033,-0.0476421118
105558.598308,0.747440561,0.726055828,0.591017681,0.14101018,-0.502615511,-0.0191904977
105558.608334,0.78672204,0.690774014,0.643482613,0.102218047,-0.563020766,0.00230440963
105558.618361,0.822720697,0.67569313,0.522163925,0.104718752,-0.621833503,0.0186825842
105558.628387,0.81085578,0.749449125,0.341153863,0.0899685696,-0.663392365,0.0253154524
105558.638414,0.761657741,0.803320489,0.301063845,0.0517093353,-0.672721148,0.0299533494
105558.648440,0.763968941,0.788834064,0.341346755,0.0043554022,-0.658878326,0.0418741889
105558.658467,0.753030198,0.838317787,0.473772527,-0.0449418388,-0.62864691,0.056338083
105558.668493,0.782003341,0.89164065,0.675995474,-0.104817696,-0.593992531,0.0744419917
105558.678519,0.782142019,0.945162397,0.890794993,-0.188618585,-0.556377769,0.0842461511
105558.688546,0.734109663,0.974416037,1.08458855,-0.283794105,-0.529367208,0.0915101916
105558.698572,0.677391604,1.01130236,1.12919575,-0.353227764,-0.508006275,0.0935709402
105558.708599,0.627672611,1.06904611,1.11757078,-0.394652188,-0.500767529,0.0824732855
105558.718625,0.587832183,1.18023789,0.909386881,-0.370687723,-0.497131497,0.0620100833
105558.728652,0.563076658,1.27462217,0.562797549,-0.276707709,-0.481572777,0.0438577123
105558.738678,0.570041529,1.3587185,0.423927423,-0.165847763,-0.452470034,0.0327965394
105558.748704,0.591644727,1.4212188,0.523929766,-0.0886493772,-0.408170223,0.0252890885
105558.758731,0.65384151,1.45321319,0.612161007,-0.0371169373,-0.358427942,0.0190583561
105558.768757,0.696184714,1.42119965,0.66432491,0.00443822658,-0.318444312,0.0100606
105558.778784,0.724387018,1.37309,0.726405811,0.0359290428,-0.297215462,-9.90927219e-05
105558.788810,0.765052206,1.30458944,0.901745426,0.0185825415,-0.2962538,-0.00844810251
105558.798837,0.859499545,1.20686717,1.2339526,-0.0281008091,-0.311043411,-0.0185686462
105558.808863,0.824102215,0.97177524,1.06969318,-0.0846740752,-0.365195572,0.0110917762
105558.818889,0.857546511,0.783779411,0.986443817,-0.128394127,-0.442162812,0.0733756572
105558.828916,0.882424055,0.690557814,0.885872734,-0.197900757,-0.545176804,0.140685454
105558.838942,0.841867296,0.701859983,0.784070064,-0.29076305,-0.678301811,0.195653364
105558.848969,0.808269563,0.753960392,0.637967649,-0.381417871,-0.840191424,0.243234992
105558.858995,0.77370123,0.789805904,0.384517788,-0.427343011,-1.01551151,0.29016763
105558.869022,0.717758978,0.825917813,0.175891989,-0.433886915,-1.18784034,0.333800852
105558.879048,0.653366878,0.85065456,-0.0287111307,-0.411888957,-1.34952891,0.374122441
105558.889075,0.592585954,0.84175463,-0.158624043,-0.397230387,-1.50939894,0.409811199
105558.899101,0.477239034,0.803798555,-0.102220019,-0.426895857,-1.66155577,0.430173993
105558.909127,0.362863298,0.708303971,-0.0255646494,-0.470223099,-1.79174602,0.456884176
105558.919154,0.244520996,0.589261924,-0.057664838,-0.492198706,-1.90226293,0.443525225
105558.929180,0.264781402,0.53844096,-0.0417652581,-0.492821872,-1.99088573,0.446049631
105558.939207,0.323650355,0.520201174,0.00777764826,-0.463688493,-2.05847454,0.431431532
105558.949233,0.299063318,0.468318427,0.0342430459,-0.360846013,-2.09051991,0.39774096
105558.959260,0.335384924,0.448106171,0.11672493,-0.252395958,-2.08370376,0.359488904
105558.969286,0.379552859,0.353733724,0.470893172,-0.169166327,-2.03159976,0.3162871
105558.979312,0.409265276,0.183264637,0.821872264,-0.11510016,-1.92556584,0.281475067
105558.989339,0.412857455,-0.0277796951,1.1282763,-0.0741854832,-1.78180897,0.260832369
105558.999365,0.500018145,-0.203861398,1.33118138,-0.0206729863,-1.61492002,0.247892603
105559.009392,0.610730098,-0.259146465,1.37090023,0.0367769934,-1.45907247,0.238108948
105559.019418,0.669523063,-0.179005737,1.29666946,0.118364528,-1.32438815,0.212219015
105559.029445,0.648509501,-0.0912916516,1.21501117,0.204676241,-1.2049278,0.180598244
105559.039471,0.643513592,-0.0187624951,1.35113579,0.275122195,-1.08496988,0.140255883
105559.049498,0.608860797,0.0315391937,1.45913323,0.335029453,-0.966365039,0.0884400979
105559.059524,0.538639259,0.0268855958,1.48163381,0.369739503,-0.864091158,0.0282065794
105559.069550,0.58319444,-0.0261361291,1.43841485,0.398350626,-0.774302423,-0.000860224478
105559.079577,0.597659019,-0.141193984,1.3795383,0.411172152,-0.706398427,-0.0300777666
105559.089603,0.659743427,-0.196672729,1.47697634,0.380653679,-0.646128178,-0.0545050763
105559.099630,0.75539985,-0.269117202,1.56337569,0.311408013,-0.584061325,-0.0553042926
105559.109656,0.792490102,-0.323420053,1.53890585,0.251686364,-0.513803422,-0.0488213599
105559.119683,0.828525876,-0.3395248,1.49993987,0.208360195,-0.4371337,-0.0284361914
105559.129709,0.842256296,-0.278021425,1.49278532,0.168045789,-0.353815883,-0.0170975178
105559.139736,0.781824331,-0.155658508,1.50366503,0.117763981,-0.268099397,-0.0271924958
105559.149762,0.674312051,-0.0191696694,1.44670804,0.0667750984,-0.183062792,-0.04684636
105559.159788,0.61058046,0.0399876631,1.39110832,0.0292506311,-0.0995258242,-0.0612977333
105559.169815,0.566936549,0.0189597164,1.27678811,0.0216238704,-0.0212347452,-0.079334788
105559.179841,0.684666856,-0.0142950399,1.24047294,0.0351234376,0.0682605132,-0.0869197398
105559.189868,0.763676095,0.00393952227,1.24354343,0.0536771454,0.167269126,-0.0785504878
105559.199894,0.777414698,-0.0268921625,1.30349258,0.0568076931,0.265784234,-0.051111944
105559.209921,0.759699593,-0.0546863884,1.2898136,0.0562931709,0.361708641,-0.0196506903
105559.219947,0.61019526,-0.0351814684,1.0564976,0.0903273001,0.449842215,0.00806429423
105559.229974,0.520404515,-0.297430548,0.475884989,0.172865316,0.529146612,0.0519404039
105559.240000,0.561589342,-0.208184394,0.115938163,0.249666095,0.617546022,0.134577751
105559.250026,0.874033828,-0.0170782272,-0.346058001,0.366928548,0.709125221,0.191190973
105559.260053,0.808413647,-0.0166394111,-0.425755808,0.410551637,0.739024222,0.172779202
105559.270079,0.460111082,-0.0327830312,-0.58001055,0.376875699,0.700583398,0.157482535
105559.280106,0.363608271,-0.156669146,-0.980909564,0.349966317,0.576587915,0.190395221
105559.290132,0.382830274,-0.287667388,-1.22781219,0.281488478,0.371129304,0.239822686
105559.300159,0.414025622,-0.229998331,-0.399511944,-0.0550546609,0.115036011,0.309592456
105559.310185,0.465588052,-0.112049723,-0.264128491,-0.288211793,-0.0657245591,0.357342482
105559.320212,0.300334946,-0.0202638669,-0.351492886,-0.451453984,-0.177438304,0.377792895
105559.330238,0.210047941,0.00715743401,-0.359427771,-0.490316153,-0.258301198,0.364377499
105559.340265,0.310604411,0.110723698,-0.602508797,-0.411255956,-0.321951538,0.338157862
105559.350291,0.508076363,-0.0426951593,-0.709264706,-0.300690293,-0.395307779,0.285282135
105559.360317,0.593197364,-0.129612852,-0.644419601,-0.273857892,-0.396752805,0.343082041
105559.370344,0.346636678,-0.012768698,-0.601975129,-0.264913648,-0.425637722,0.358127832
105559.380370,0.0581838934,-0.105225302,-0.418595414,-0.244302407,-0.436555624,0.322921127
105559.390397,0.135672791,-0.102248222,-0.604226123,-0.120756499,-0.427212447,0.295735568
105559.400423,0.186848267,-0.0562765985,-0.518035447,-0.0329430252,-0.417534262,0.263156593
105559.410450,0.155849902,-0.00435479768,-0.0921241569,-0.0252323747,-0.411587954,0.219816849
105559.420476,0.383277433,0.34928701,0.241323954,-0.0801153332,-0.399936616,0.127328977
105559.430503,0.632514059,0.639983372,0.35723406,-0.141271099,-0.383508652,0.0361926854
105559.440529,0.654407327,0.394767087,0.0876776989,-0.125683874,-0.371372074,-0.0334183499
105559.450556,0.413826885,0.424885856,0.107599374,-0.0924303234,-0.355108678,-0.0838884488
105559.460582,0.194701903,0.470587102,0.219697813,-0.061646577,-0.327615559,-0.125188753
105559.470608,0.133445178,0.395574604,0.303796484,-0.0799592733,-0.300348252,-0.160668179
105559.480635,0.174933958,0.345545558,0.508977112,-0.138443351,-0.264271736,-0.183005974
105559.490661,0.348990548,0.221426171,0.603501315,-0.16675356,-0.215865314,-0.196433097
105559.500688,0.30809915,0.0727552204,0.648350511,-0.169280633,-0.162371725,-0.221278265
105559.510714,-0.0276186593,0.0434702353,0.647390726,-0.185996756,-0.00386757986,-0.293457389
105559.520741,0.0951332756,0.257434071,1.06191495,-0.29841888,0.214941204,-0.353157729
105559.530767,-0.0962999813,0.301069544,1.00141284,-0.35953179,0.331178069,-0.386230737
105559.540794,-0.330991365,0.0860123961,0.704735246,-0.37038815,0.467972666,-0.379312634
105559.550820,0.329843949,-0.101147348,0.726218764,-0.392394394,0.569340527,-0.323045641
105559.560847,0.387085593,0.146954648,0.62104574,-0.43100065,0.578670919,-0.2652798
105559.570873,0.147159815,0.0899397621,0.434732895,-0.40613097,0.593294322,-0.235460669
105559.580899,-0.0686427436,0.0494360119,0.0142535663,-0.297513425,0.579549253,-0.25235042
105559.590926,-0.218703541,0.379612079,-0.14940321,-0.194881067,0.540301681,-0.265277952
105559.600952,-0.0779062465,0.315925387,-0.180647659,-0.0611136779,0.509690762,-0.252326727
105559.610979,0.0574222614,0.183777189,-0.392466701,0.0837553591,0.475963473,-0.24164772
105559.621005,0.0239361714,0.374270681,-0.432054031,0.189397097,0.420289576,-0.249101102
105559.631032,0.0588730447,0.455561346,-0.414904159,0.229511499,0.348257452,-0.262435824
105559.641058,0.186318106,0.359827182,-0.405999552,0.211651802,0.259707332,-0.28496322
105559.651085,0.278155263,0.320837234,-0.316395269,0.136798337,0.159935206,-0.307553232
105559.661111,0.332066886,0.244103757,-0.387440398,0.0594239235,0.0630829558,-0.331545115
105559.671138,0.336189518,0.202262292,-0.387393051,-0.018442912,-0.029884534,-0.356934905
105559.681164,0.300688581,0.208219557,-0.472038835,-0.0499694124,-0.1188168,-0.386832088
105559.691191,0.177578335,0.240743195,-0.545526096,-0.0715881586,-0.187884018,-0.410643399
105559.701217,0.119876087,0.15658808,-0.495697359,-0.0972200185,-0.241784528,-0.414180875
105559.711243,0.235029238,-0.0280744402,-0.333206703,-0.155519813,-0.281827033,-0.389288306
105559.721270,0.35411096,-0.182360765,-0.189123811,-0.225671992,-0.304807961,-0.349464744
105559.731296,0.326671164,-0.245182054,-0.120016957,-0.300851434,-0.314403087,-0.318808824
105559.741323,0.210382288,-0.190072088,0.0278735108,-0.384917289,-0.310724169,-0.304752648
105559.751348,0.141592829,-0.179821821,0.0493576129,-0.439566165,-0.2926296,-0.292822748
105559.761375,0.0785913062,-0.229500245,0.123048288,-0.48342815,-0.27057755,-0.279138893
105559.771401,0.0292728562,-0.225526884,0.201782217,-0.504148662,-0.253206819,-0.261545271
105559.781428,0.00606499913,-0.271621112,0.292203077,-0.506229103,-0.234116763,-0.229949787
105559.791454,-0.00180266551,-0.317197599,0.357274977,-0.497950912,-0.212870583,-0.19424744
105559.801481,-0.077960607,-0.271679016,0.394244233,-0.470378935,-0.197433308,-0.163877562
105559.811507,-0.0794441236,-0.270791967,0.236886848,-0.398379058,-0.192895547,-0.138066202
105559.821534,-0.0272007261,-0.272028523,0.18692484,-0.314304382,-0.196018904,-0.11579445
105559.831560,-0.000333177477,-0.274494292,0.159912914,-0.230028659,-0.194657236,-0.102639765
105559.841586,-0.0835375304,-0.208368537,0.295578107,-0.211158574,-0.187156975,-0.101391539
105559.851613,-0.141873984,-0.210943757,0.395022231,-0.206544638,-0.168675959,-0.106704816
105559.861639,-0.0825011731,-0.329807855,0.295474062,-0.19005248,-0.135099366,-0.101797938
105559.871666,-0.175370595,-0.353793601,0.361354355,-0.214557022,-0.100767761,-0.101936422
105559.881692,-0.370128028,-0.304271555,0.433725764,-0.257954031,-0.0711193234,-0.110250019
105559.891719,-0.399486225,-0.36831338,0.351112947,-0.278146654,-0.0475170575,-0.117262647
105559.901745,-0.430583374,-0.361911368,0.249441794,-0.25950104,-0.0426056534,-0.122082442
105559.911772,-0.49896016,-0.32198191,0.0519978983,-0.204676703,-0.0672031417,-0.128523022
105559.921798,-0.503069933,-0.354984528,-0.0181073191,-0.141524091,-0.109719709,-0.124304056
105559.931825,-0.436587583,-0.433826411,0.049306175,-0.0960029513,-0.151154488,-0.10333778
105559.941851,-0.366727865,-0.507195818,0.05783961,-0.0415394418,-0.180316642,-0.0779085904
105559.951878,-0.367489497,-0.454732129,0.0452449169,0.0210267324,-0.195882812,-0.0540312156
105559.961904,-0.328651524,-0.39688313,0.0957347487,0.104726426,-0.190129593,-0.0348245017
105559.971931,-0.260219793,-0.356743354,0.0893967778,0.204312667,-0.167574748,-0.0316303037
105559.981957,-0.250334943,-0.222359616,0.129288059,0.284546793,-0.150825322,-0.0457226895
105559.991984,-0.226232183,-0.0862034982,0.316311098,0.276684612,-0.150968879,-0.0608172193
105560.002010,-0.033539866,-0.160589827,0.410159595,0.250704139,-0.152186736,-0.0568208769
105560.012037,0.175535431,-0.28619474,0.393613533,0.190616563,-0.154318064,-0.0366967022
105560.022063,0.257418764,-0.275046812,0.502723896,0.0895173773,-0.163121939,-0.0097622918
105560.032089,0.304695479,-0.245399204,0.547075664,-0.0246281046,-0.178247094,0.00970674772
105560.042116,0.333522345,-0.150872077,0.543746812,-0.120058216,-0.206387118,0.023834018
105560.052142,0.44190264,-0.0788143378,0.519943911,-0.195095718,-0.241912365,0.0339942425
105560.062169,0.628358693,-0.0108698056,0.526961097,-0.240445614,-0.279523641,0.0492429733
105560.072195,0.711742494,0.0852712588,0.540977347,-0.254948914,-0.309396327,0.0583802797
105560.082222,0.663104428,0.220818926,0.595801409,-0.24101527,-0.313548476,0.0507431328
105560.092248,0.599592618,0.340453204,0.648603024,-0.195862174,-0.289324343,0.035462711
105560.102275,0.564990091,0.382359003,0.634739334,-0.106231354,-0.236301884,0.0141289271
105560.112301,0.488576129,0.480776963,0.606401129,-0.002291905,-0.169318318,-0.0128784562
105560.122328,0.415884402,0.538821301,0.68845748,0.0710906982,-0.0878820568,-0.036663413
105560.132354,0.469724713,0.466722536,0.768174576,0.118093625,0.0144435167,-0.0499856099
105560.142381,0.506775218,0.451711319,0.766190708,0.140313178,0.117444202,-0.0669371635
105560.152407,0.376918419,0.509636452,0.750839995,0.145051748,0.212025046,-0.0940036699
105560.162434,0.26223464,0.523182418,0.582210106,0.164260328,0.290555805,-0.125658005
105560.172460,0.211944715,0.475410467,0.329490898,0.212038234,0.335957915,-0.148496732
105560.182487,0.17118951,0.427580283,0.0899362915,0.260800719,0.354326785,-0.162088975
105560.192513,0.127359136,0.340802346,-0.0771300014,0.306738138,0.353857279,-0.156590879
105560.202540,0.0218757317,0.268577104,-0.254141934,0.334889323,0.335382402,-0.14730151
105560.212566,-0.104062432,0.257256377,-0.377644395,0.327947527,0.299178571,-0.141324311
105560.222593,-0.154074709,0.162843122,-0.440031586,0.282147557,0.24964112,-0.127671346
105560.232619,-0.225920048,0.047264988,-0.456460158,0.197412685,0.197642639,-0.1082348
105560.242646,-0.239542331,-0.0555745329,-0.488082792,0.115345508,0.150347829,-0.0795035511
105560.252672,-0.246204127,-0.118905525,-0.497387796,0.0411314666,0.104886062,-0.0428739041
105560.262699,-0.274426013,-0.13324719,-0.538449874,-0.0161198378,0.065053165,-0.00497073215
105560.272725,-0.339032048,-0.0767826128,-0.457027729,-0.0887982994,0.0313276909,0.0277813561
105560.282751,-0.313323607,-0.0891477897,-0.394500253,-0.140742198,0.0104535688,0.0490576178
105560.292778,-0.347101373,-0.0487341107,-0.437411174,-0.166539699,-0.00533178542,0.054505378
105560.302804,-0.329072964,0.000550400424,-0.335224473,-0.198371932,-0.0194231048,0.0565155335
105560.312831,-0.247786428,-0.0378726345,-0.271052737,-0.214165166,-0.0321507193,0.0533749387
105560.322857,-0.205263629,-0.0153214512,-0.190604989,-0.215089276,-0.0405857489,0.0370953009
105560.332884,-0.267785844,0.0773750257,-0.18794483,-0.1871434,-0.0599067137,0.0110293468
105560.342910,-0.277428117,0.125222271,-0.201415137,-0.142718673,-0.0761754364,-0.0151998606
105560.352937,-0.242635621,0.0884524827,-0.0659475132,-0.140547931,-0.096781373,-0.0400881656
105560.362963,-0.250391057,0.0692513039,0.132004332,-0.168568388,-0.115275964,-0.0640081465
105560.372990,-0.207560216,0.0203626603,0.187642048,-0.18556495,-0.136647552,-0.085769631
105560.383016,-0.204444714,-0.00841963596,0.195668118,-0.177825272,-0.158535019,-0.0925926492
105560.393043,-0.234317874,-0.0565238147,0.212649648,-0.140438482,-0.175718799,-0.0820649117
105560.403069,-0.255149066,-0.111615989,0.207523976,-0.0803540945,-0.194682091,-0.0610962436
105560.413096,-0.215284088,-0.176496969,0.159174078,-0.000132232526,-0.209486082,-0.0328060165
105560.423122,-0.182567813,-0.240535397,0.202933141,0.0458136871,-0.216215089,-0.00264971331
105560.433149,-0.17274317,-0.267307632,0.339099853,0.0409353077,-0.212857381,0.0189096406
105560.443175,-0.136700965,-0.274722877,0.421816715,0.00378501089,-0.209050924,0.0383318067
105560.453202,-0.067851301,-0.294211458,0.54980012,-0.0622619167,-0.200027332,0.0642907023
105560.463228,0.0326402868,-0.362968877,0.502325253,-0.097937353,-0.184627607,0.0954392999
105560.473255,0.106337391,-0.370568027,0.44279579,-0.105213642,-0.163737506,0.123653896
105560.483281,0.109140758,-0.301475275,0.497926141,-0.11240311,-0.139333621,0.140444323
105560.493308,0.167628603,-0.255067232,0.469568646,-0.0890751481,-0.113879666,0.145951211
105560.503334,0.187813897,-0.174150004,0.419870257,-0.0518332422,-0.0923626572,0.141827837
105560.513361,0.199202722,-0.12209,0.394928123,-0.0112360166,-0.0751802102,0.136343062
105560.523387,0.239218506,-0.112937995,0.441453727,0.018275803,-0.0652641952,0.140541002
105560.533414,0.363214888,-0.136203355,0.378566771,0.0548364781,-0.0584566221,0.152318299
105560.543440,0.403918654,-0.102939529,0.351147434,0.0971469209,-0.050434649,0.158170864
105560.553467,0.412727984,0.0017994141,0.230711374,0.171420872,-0.0382155329,0.150471136
105560.563493,0.387090269,0.148786138,0.135407418,0.249642715,-0.013128289,0.125185221
105560.573520,0.395485172,0.245140115,0.149476276,0.313227296,0.0204171538,0.0841285884
105560.583546,0.444986578,0.295586874,0.16958266,0.335951507,0.0470373109,0.0378300697
105560.593573,0.427877622,0.376178743,0.156086049,0.336767226,0.0699756518,-0.0119960774
105560.603599,0.368188,0.391775395,0.068759648,0.333664924,0.0880156383,-0.0489453077
105560.613626,0.301744228,0.338560631,0.0264057764,0.31262967,0.101092555,-0.0734253526
105560.623652,0.175846981,0.302425634,0.00773088651,0.260383248,0.106366679,-0.0915516242
105560.633679,0.0533984127,0.242947171,-0.0151204122,0.198667675,0.101072587,-0.102655403
105560.643705,-0.0285036254,0.165999248,-0.0890010565,0.139167592,0.0847620517,-0.100426607
105560.653732,-0.0972924995,0.0636486982,-0.121065005,0.0872306377,0.0596100949,-0.0808286741
105560.663758,-0.158404848,0.00353164472,-0.122696405,0.0480896235,0.0293070525,-0.0443918332
105560.673785,-0.212814483,-0.0323845585,-0.144591426,0.0478470102,0.0038203341,-0.00438556168
105560.683811,-0.295748787,-0.0090070074,-0.0788636934,0.0364875644,-0.00946058333,0.0310342144
105560.693838,-0.352570744,0.00351969856,0.0805447783,0.0106844623,-0.0111460984,0.0716679245
105560.703864,-0.33906712,-0.0495842612,0.0589005173,0.0067171515,0.00373005308,0.106018707
105560.713891,-0.373834482,-0.0183970228,0.0396814375,-0.00489955721,0.0221103914,0.127542645
105560.723917,-0.358770768,0.0529290416,0.117187287,-0.0383605771,0.0373484641,0.142894164
105560.733944,-0.234854466,0.0343265229,0.105352472,-0.058395274,0.0530003943,0.151563555
105560.743970,-0.190179458,0.0882796469,0.0264741654,-0.058201395,0.0636738166,0.143432662
105560.753997,-0.216032861,0.193849122,0.0370949282,-0.0497176275,0.0646706372,0.125761777
105560.764023,-0.131167881,0.249407672,0.0654699588,-0.0539949313,0.0577871613,0.0983775705
105560.774050,-0.0664420187,0.257798374,0.0549210922,-0.0581238978,0.0461358316,0.0754416287
105560.784076,-0.0393903456,0.269021597,-0.00263444016,-0.0529461801,0.0289310142,0.0463884026
105560.794103,-0.0564215599,0.263647868,-0.00983399627,-0.0453718826,0.00329276221,0.0155383451
105560.804129,-0.0577525163,0.237223715,-0.0113309568,-0.0349386819,-0.0311150122,-0.00390885584
105560.814156,-0.00559855066,0.147799282,0.0110603232,-0.0250261314,-0.0667142868,-0.01177397
105560.824182,-0.0408235933,0.172816527,0.107720955,-0.0348505303,-0.0988850072,-0.018373549
105560.834209,-0.0904179375,0.207345039,0.162765965,-0.0294475108,-0.126070008,-0.02667116
105560.844235,-0.073261051,0.158951631,0.157272629,-0.00926927198,-0.14030008,-0.0317277052
105560.854262,-0.0156564188,0.0872534456,0.280697933,0.0100660762,-0.138226017,-0.0283255167
105560.864288,-0.0102718032,0.0566967967,0.287816825,0.0462190211,-0.125531524,-0.0287636071
105560.874315,-0.0443774864,0.0667472122,0.276110021,0.0790611282,-0.101675466,-0.0286216587
105560.884341,-0.0150911861,0.0256707036,0.278881239,0.104719348,-0.074948512,-0.0290906429
105560.894368,0.00353460387,-0.00634089346,0.313705884,0.113738947,-0.0495123975,-0.0292618833
105560.904394,0.038065819,-0.0543124588,0.286937704,0.120393656,-0.0234304611,-0.0255536959
105560.914421,0.105681558,-0.115918363,0.226898538,0.125814244,0.00160644844,-0.018591661
105560.924447,0.150234985,-0.125417391,0.251954653,0.0991261825,0.0201005042,-0.0093307849
105560.934474,0.166815533,-0.11751882,0.324738735,0.0474089198,0.0395503677,0.00321749691
105560.944500,0.219859725,-0.103058918,0.341297071,0.00490220729,0.0557498448,0.0161546003
105560.954527,0.251978619,-0.0734671681,0.322022461,-0.0254394524,0.0681101084,0.0253971014
105560.964553,0.287321735,0.000533047431,0.325413273,-0.0273481403,0.0815814435,0.0368596129
105560.974580,0.325424379,0.0742715798,0.246110019,0.0201008674,0.100691222,0.0388114452
105560.984606,0.294651639,0.216965977,0.0767775347,0.110753007,0.119786881,0.0250146706
105560.994633,0.257728561,0.327628793,-0.0385305139,0.201969728,0.137731001,-0.00646788813
105561.004659,0.270612592,0.380154698,-0.0252022458,0.259673536,0.155628517,-0.0424602441
105561.014686,0.252425194,0.393271223,-0.0360743529,0.285754114,0.168053225,-0.0858998597
105561.024713,0.181058578,0.407670079,-0.0323819282,0.269929349,0.181779951,-0.126816407
105561.034739,0.137509944,0.336081528,-0.0234521873,0.236422777,0.191615805,-0.155484259
105561.044766,0.099414314,0.231777634,-0.0532289014,0.192493677,0.196573809,-0.167685002
105561.054792,0.0227267956,0.136390876,-0.0993605379,0.152303904,0.187307075,-0.169469863
105561.064819,-0.0836772311,0.0566382349,-0.12236615,0.112687528,0.169644728,-0.160795942
105561.074845,-0.143617613,-0.0263465753,-0.113278589,0.0693901256,0.146579623,-0.138592631
105561.084872,-0.223770761,-0.0793072907,-0.0624935733,0.0210044775,0.116153002,-0.108997725
105561.094898,-0.254375743,-0.115537382,0.000588029021,-0.0452688187,0.0811313689,-0.067138426
105561.104925,-0.240159002,-0.162599614,0.0645242024,-0.105555855,0.0369082466,-0.021869747
105561.114951,-0.220921217,-0.200190783,0.0366308178,-0.131011695,-0.00670554349,0.0234109163
105561.124978,-0.252205998,-0.177104141,0.00268938521,-0.127718955,-0.0477701575,0.05889301
105561.135004,-0.275092368,-0.119126675,0.0358136562,-0.105041064,-0.0764598623,0.0820728987
105561.145031,-0.222355049,-0.0836324239,0.0582739098,-0.0739388093,-0.0867116973,0.099364005
105561.155057,-0.194607795,-0.0283791771,0.133587802,-0.0630840287,-0.0821116194,0.103713475
105561.165084,-0.163097974,0.0146276786,0.280655263,-0.0734037757,-0.0622164756,0.0934318081
105561.175110,-0.135021049,0.0463393428,0.284850961,-0.0752200559,-0.0346082821,0.073474884
105561.185137,-0.121950555,0.0723217426,0.24546646,-0.0736599788,-0.0103942873,0.0467769578
105561.195163,-0.107057522,0.0557525198,0.203121357,-0.0581952706,0.00192895718,0.0248626042
105561.205190,-0.0605927081,0.0643000747,0.105143798,-0.0278008785,0.00205599004,0.010173141
105561.215216,-0.0353185661,0.0145480557,0.112785252,-0.0100112287,-0.0105205216,0.00673792977
105561.225243,-0.0630997225,-0.0276159193,0.0500385809,0.00719465595,-0.0305267219,0.00406251801
105561.235269,-0.119632342,-0.0553238095,0.0138572604,0.00965728145,-0.0507523641,0.00420446415
105561.245296,-0.111519178,-0.106674843,-0.0227291337,0.028414458,-0.072663255,0.0119705088
105561.255323,-0.137383687,-0.142609806,-0.092191377,0.0528476276,-0.0920153856,0.0216721371
105561.265349,-0.170600312,-0.173761261,-0.0754869104,0.071830377,-0.102589197,0.0375674814
105561.275376,-0.140764561,-0.23162701,-0.0716325731,0.0978284255,-0.101520203,0.0613785386
105561.285402,-0.129611299,-0.30248679,-0.127948335,0.143216133,-0.0847295076,0.0825855583
105561.295429,-0.17164836,-0.300525956,-0.177433958,0.163557097,-0.0609384216,0.103284173
105561.305455,-0.0984995372,-0.303944021,-0.0777156924,0.113097392,-0.0342239887,0.121494606
105561.315482,-0.0143769004,-0.327375659,-0.0399924032,0.027089579,-0.0116632544,0.130227119
105561.325508,0.0238274503,-0.30089236,-0.0878559781,-0.0687325522,-0.00527859153,0.128762648
105561.335535,0.0992377883,-0.29276694,-0.0852273832,-0.154084459,-0.00946348347,0.129567191
105561.345561,0.168332952,-0.27999731,-0.0411819052,-0.226969585,-0.0320484191,0.131719559
105561.355588,0.25430677,-0.230745861,0.0428103832,-0.267454177,-0.0607330613,0.135305777
105561.365614,0.336012993,-0.146811879,0.158871881,-0.283408642,-0.0964907929,0.139833152
105561.375641,0.431775799,-0.0565200519,0.291257905,-0.272688597,-0.123619884,0.14337568
105561.385667,0.470983773,0.0708323261,0.378760832,-0.235273585,-0.145721197,0.133253276
105561.395694,0.443026676,0.242146997,0.493397265,-0.200511351,-0.162336394,0.107760429
105561.405721,0.435084192,0.342648157,0.56862874,-0.151330486,-0.168343142,0.0772925392
105561.415747,0.450488682,0.439579421,0.611524463,-0.07663735,-0.154578075,0.0494688936
105561.425774,0.447364997,0.5084498,0.60348904,0.0248674378,-0.120878957,0.0230961423
105561.435800,0.363136562,0.655459466,0.463704138,0.160203695,-0.0659904107,-0.0137367072
105561.445827,0.261216987,0.793809076,0.422360904,0.280702949,0.00142431818,-0.0575153455
105561.455853,0.229399123,0.805226249,0.479683213,0.340394765,0.0816714838,-0.106453329
105561.465880,0.216857621,0.751301329,0.510831215,0.364134997,0.169506267,-0.150382966
105561.475906,0.170038587,0.677801939,0.414613067,0.371552438,0.258413225,-0.18547304
105561.485933,0.0523696542,0.616222777,0.374511943,0.35127458,0.339704365,-0.208367705
105561.495959,-0.0321048648,0.483136276,0.25489246,0.338182747,0.403959781,-0.217649087
105561.505986,-0.12637714,0.357761445,0.0565875641,0.330745339,0.446098447,-0.212796539
105561.516012,-0.21333237,0.246259766,-0.0967266823,0.309958577,0.46203053,-0.191566363
105561.526039,-0.238887667,0.109324572,-0.267287832,0.29132551,0.449384242,-0.156642735
105561.536066,-0.281164966,0.0106068529,-0.435469977,0.2557289,0.414861441,-0.11816591
105561.546092,-0.2838865,-0.0463317349,-0.452675379,0.188871562,0.359063685,-0.0761239156
105561.556119,-0.25813948,-0.118883131,-0.476429179,0.0988638997,0.285466701,-0.022184521
105561.566145,-0.194213828,-0.183545755,-0.537025394,0.0145346401,0.20150654,0.0286104828
105561.576172,-0.151980952,-0.198230826,-0.596995587,-0.0704170018,0.107947566,0.0702308938
105561.586198,-0.108116676,-0.16086868,-0.560745877,-0.147136271,0.0137558188,0.102693498
105561.596225,-0.0958323638,-0.134496551,-0.532829112,-0.198120892,-0.0674519539,0.120431215
105561.606251,-0.0746902071,-0.114656462,-0.420093544,-0.241257176,-0.130119324,0.127983138
105561.616278,-0.040268882,-0.112329873,-0.185325003,-0.273240149,-0.171389535,0.129738167
105561.626305,-0.011322189,-0.0904474011,-0.050654667,-0.279845327,-0.192838907,0.126918405
105561.636331,0.0181634332,-0.0862796139,0.0996066217,-0.274397552,-0.199707732,0.117811464
105561.646358,0.0033270986,-0.0725056113,0.171814364,-0.22940585,-0.188413531,0.10555134
105561.656384,-0.0519663341,-0.0677099928,0.166881584,-0.157493576,-0.163449854,0.0864386335
105561.666411,-0.072270871,-0.0969391743,0.288683671,-0.0983660817,-0.131865293,0.0704953447
105561.676437,-0.0260065479,-0.173251302,0.347236398,-0.0364126973,-0.0973123834,0.065124549
105561.686464,-0.010346622,-0.263332226,0.272599382,0.0258466825,-0.0658649802,0.05848689
105561.696490,-0.0556511601,-0.268693479,0.292545607,0.067579478,-0.0366114788,0.0527118258
105561.706517,-0.0518511833,-0.295295527,0.257863001,0.110733613,-0.0155546656,0.0561270639
105561.716543,0.0209141932,-0.412122346,0.186605691,0.145258576,-0.000732842251,0.0665117949
105561.726570,0.0804787273,-0.474522834,0.104783732,0.170847028,0.00575994467,0.0822617263
105561.736597,0.0609808307,-0.4806415,0.0741407565,0.169326618,0.00304005807,0.0974081904
105561.746623,0.108736269,-0.473964397,0.027438042,0.156442255,-0.00547832903,0.114379451
105561.756651,0.165295776,-0.44749425,-0.00866378345,0.128880933,-0.0183752179,0.129282489
105561.766677,0.201474174,-0.403624421,0.0460609094,0.0794297457,-0.0347496644,0.145927787
105561.776704,0.250511469,-0.364494479,0.157645554,0.0257159211,-0.038589675,0.164150998
105561.786730,0.284232537,-0.307293021,0.293705298,-0.0246132966,-0.0270992015,0.182505235
105561.796757,0.322453839,-0.215008139,0.341801513,-0.0466070101,-0.0101540415,0.193300366
105561.806783,0.35022272,-0.0727185051,0.314830504,-0.0177474003,0.0133803133,0.192682251
105561.816810,0.350572849,0.0860209812,0.310045608,0.0437926576,0.0398601256,0.179473504
105561.826837,0.300153159,0.231609675,0.370020476,0.0854988247,0.0673950762,0.16056639
105561.836863,0.355656435,0.263541339,0.525258969,0.118781686,0.103294224,0.145694226
105561.846890,0.384345354,0.329891624,0.58883157,0.140278727,0.149636686,0.125466183
105561.856916,0.370693846,0.444380355,0.708581985,0.139851823,0.190676793,0.101050332
105561.866943,0.408766679,0.496224013,0.621373657,0.165046662,0.231213033,0.0723417178
105561.876969,0.411951739,0.557269141,0.495896096,0.20937258,0.269123673,0.0417811461
105561.886996,0.362667191,0.636939329,0.425692679,0.241284966,0.296549976,0.00285398727
105561.897023,0.311836583,0.654656041,0.448178652,0.23930411,0.312558502,-0.0298650749
105561.907049,0.368457465,0.570385009,0.442596468,0.209365919,0.319802284,-0.0468619019
105561.917076,0.371237451,0.544829821,0.475121604,0.146071374,0.318847537,-0.0577630177
105561.927102,0.306298823,0.547564397,0.508688942,0.0887721181,0.315997422,-0.0660760775
105561.937129,0.229880184,0.54113451,0.311823139,0.0913042501,0.308749378,-0.0741124302
105561.947155,0.0876291836,0.605401888,0.21427345,0.113918483,0.294209033,-0.0878226534
105561.957182,0.0637765989,0.592890636,0.214355867,0.142631099,0.278286815,-0.0884093493
105561.967208,0.112353291,0.502445774,0.231015326,0.15556021,0.260334969,-0.0764767826
105561.977235,0.136724346,0.44142936,0.340388139,0.151880518,0.252644569,-0.057944648
105561.987262,0.096812607,0.463158487,0.37592064,0.151414201,0.259963453,-0.0407387614
105561.997288,0.059640522,0.469236564,0.357455009,0.156542912,0.287389219,-0.0280647799
105562.007315,0.0593324789,0.480409554,0.388057068,0.169499993,0.335897118,-0.0218324512
105562.017341,0.0525467643,0.487205133,0.417784098,0.181862116,0.403135806,-0.021912612
105562.027368,0.0550169538,0.465431765,0.567330516,0.159102216,0.483510792,-0.0240316875
105562.037394,0.118327689,0.399832627,0.718966016,0.142526165,0.585861683,-0.0259081498
105562.047421,0.231162625,0.292194638,0.481480033,0.266284585,0.696689665,-0.0255840458
105562.057448,0.028104397,0.494242411,-0.154060681,0.434148699,0.775273919,-0.0620935857
105562.067474,-0.151567111,0.682696067,0.18400866,0.451592416,0.829308689,-0.107062124
105562.077501,0.0601338584,0.462745522,0.415658776,0.434668273,0.878591001,-0.139336973
105562.087527,0.245251941,0.22516386,0.337136444,0.452926904,0.921214342,-0.156613961
105562.097554,0.254345348,0.212032375,0.298998729,0.494976878,0.969802678,-0.168794468
105562.107580,0.131301737,0.288593728,0.410842316,0.548236072,1.020818,-0.186984926
105562.117607,-0.17263854,-0.231592815,-1.02799222,0.624604642,0.822270751,-0.114612453
105562.127634,-0.655636576,-0.948854603,-1.10270931,0.179385111,0.71421802,-0.0165442117
105562.137660,-0.506648084,-0.682518738,0.45302843,-0.229963511,0.657041311,0.0571092367
105562.147687,-0.443057363,-1.18416675,-0.603814035,-0.552202582,0.593571544,0.156865388
105562.157713,-0.424046081,-1.0639523,-0.551613307,-0.652837038,0.571684837,0.233029932
105562.167740,-0.548697128,-0.573698444,-0.533560933,-0.59457159,0.580710053,0.258998424
105562.177767,-0.535081567,-0.086963194,-0.351936538,-0.499146253,0.604492605,0.22188887
105562.187793,-0.650453913,0.243018391,0.52633975,-0.697303593,0.608519018,0.0982625335
105562.197820,-0.510552398,0.0939704607,1.3138848,-0.925581455,0.640124917,0.0163476914
105562.207846,-0.118301385,0.0939240186,0.909409677,-0.978175998,0.637991726,0.0064801476
105562.217873,0.0277338101,0.0894302965,0.0549736992,-0.791413009,0.594520688,0.0123050138
105562.227899,0.00875204625,0.108711354,-0.694588531,-0.500336468,0.533789694,-0.0130653242
105562.237926,-0.0339177594,0.180974206,-0.96824882,-0.2621108,0.473473877,-0.0628435314
105562.247953,-0.0951546107,-0.0164427834,-1.02669809,-0.0644275546,0.403452992,-0.0939916
105562.257979,-0.246383575,0.0604467786,-0.945506827,0.0248621106,0.311296433,-0.13319999
105562.268006,-0.255910405,0.266191707,-0.956482394,0.00778006483,0.187051699,-0.163505167
105562.278032,-0.0416714423,0.402030429,-1.18476917,-0.0423057415,0.0394878164,-0.183540389
105562.288059,0.255383751,0.165958387,-1.30315648,-0.0818640664,-0.107358359,-0.179319546
105562.298086,0.520824201,-0.228182605,-1.00478962,-0.0837328061,-0.219074771,-0.138918057
105562.308112,0.628666736,-0.287453252,-0.757800481,-0.087616764,-0.311170876,-0.0829658434
105562.318139,0.591120557,-0.248212161,-0.448149426,-0.0997756422,-0.375177354,-0.0214195568
105562.328165,0.449385397,-0.129599919,-0.38974809,-0.0708656982,-0.408278316,0.0220874399
105562.338192,0.203558287,-0.0222710877,-0.356956997,-0.0421704017,-0.405188501,0.0541092902
105562.348219,0.0354734644,-0.0326480683,-0.0644043754,-0.0653702617,-0.357570112,0.0690365732
105562.358245,-0.0855810189,0.0595223755,0.193362179,-0.0922037438,-0.287838966,0.0556280911
105562.368272,-0.196606276,0.199935968,0.167585933,-0.108761944,-0.218691051,0.0288148504
105562.378298,-0.221667359,0.196848414,0.165513803,-0.117451042,-0.15797098,0.00191852218
105562.388325,-0.200125974,0.0581020969,0.206221076,-0.148574337,-0.106843889,-0.00945104472
105562.398351,-0.152021576,-0.0259230344,0.318855522,-0.18412514,-0.0589040592,0.00143409334
105562.408378,-0.0823407218,-0.0517801273,0.13805238,-0.154559523,-0.0210661292,0.0166375469
105562.418405,-0.1035916,0.0545136074,0.107079734,-0.130629689,0.0201987512,0.0165762939
105562.428431,-0.0872892841,0.224404639,0.181196525,-0.0947670341,0.0598215275,0.00633857073
105562.438458,-0.119808575,0.229603632,0.167810389,-0.0577192679,0.0951054841,-0.00906595215
105562.448484,-0.149448803,0.192543264,0.191953481,-0.0233445149,0.125257269,-0.0185795631
105562.458511,-0.12907237,0.145058605,0.244908242,0.00240052911,0.155335009,-0.0238417033
105562.468538,-0.0900046806,0.0649283627,0.302177359,0.0198586155,0.188325986,-0.030752873
105562.478564,-0.0452536847,0.0625170638,0.325120427,0.0355843157,0.213804707,-0.0419304222
105562.488591,-0.0478179822,0.0981972298,0.265606162,0.046630308,0.234576836,-0.0541964173
105562.498617,-0.0466331564,0.0743434395,0.195142633,0.0412959941,0.247389838,-0.0620580688
105562.508644,-0.0219084649,0.00508808039,0.0518774868,0.0434219986,0.253061026,-0.0624154583
105562.518671,-0.0217892225,-0.0760116284,-0.0177805714,0.0246203486,0.253534526,-0.0610921383
105562.528697,-0.0284060103,-0.14539708,-0.166541392,0.0253567118,0.238668248,-0.0592106134
105562.538724,-0.0137266198,-0.193163551,-0.235233236,-0.00014039276,0.208600894,-0.0592937022
105562.548750,0.032363808,-0.191017114,-0.277248085,-0.0189127475,0.164654478,-0.055123724
105562.558777,0.0962874141,-0.152433007,-0.300627207,-0.0231695455,0.113803804,-0.0461065248
105562.568804,0.124026193,-0.088158249,-0.345832961,-0.00272499071,0.0618721619,-0.0377529934
105562.578830,0.095096743,-0.00180957017,-0.416429176,0.0294300169,0.00628719712,-0.0358187333
105562.588857,0.0820928845,0.0718403706,-0.364407313,0.0594731346,-0.0416425131,-0.0388025418
105562.598884,0.0923541663,0.074357468,-0.254219091,0.0957706869,-0.0775227472,-0.0308844317
105562.608910,0.0926563641,0.0557594062,-0.10899229,0.128225312,-0.100756697,-0.0232701879
105562.618937,0.0975146178,-0.00730213971,0.117497668,0.136392161,-0.107263602,-0.0136931948
105562.628963,0.106260234,-0.00106795803,0.320662279,0.124320842,-0.0964157432,-0.00585497823
105562.638990,0.112295423,-0.00273059401,0.456185433,0.110061213,-0.0703449994,-0.00237742253
105562.649017,0.10326456,-0.00137691438,0.493304326,0.103241123,-0.0394166447,-0.000824000686
105562.659043,0.069707158,0.00582598447,0.470135632,0.0921591744,-0.00240509445,-0.00168553367
105562.669070,0.0536366054,-0.00453324125,0.455653518,0.0618899539,0.0270135142,-0.00367358327
105562.679096,0.0397907431,0.00103474988,0.393335301,0.028338654,0.0444678701,-0.00122587197
105562.689123,0.0432297777,-0.0472074308,0.273789469,-0.000707912375,0.0507566594,0.00473135291
105562.699150,0.0359308528,-0.0885246346,0.201735455,-0.0126465978,0.0498732887,0.0155238137
105562.709176,0.0616924861,-0.0183393926,0.188216048,-0.0281951968,0.0392504707,0.0213912893
105562.719203,0.0774389213,0.0640745954,0.0880459477,-0.0133539326,0.0245610103,0.0251410212
105562.729229,0.027182606,0.120897283,-0.0619487989,0.0141932722,0.00767843239,0.0226118155
105562.739256,-0.0127744336,0.176001276,-0.124655723,0.0462279022,-0.0041225669,0.0150300637
105562.749283,-0.0248383809,0.194559846,-0.144136668,0.0631845146,-0.00467836857,0.00567890564
105562.759308,-0.0258308991,0.140695697,-0.0929413185,0.0659363642,-0.0164833628,-0.00981429964
105562.769335,0.0285112242,0.0843298133,0.124250065,-0.0492070056,-0.145094588,0.00113315601
105562.779362,0.0793938547,0.0590895736,-0.225375274,0.0312534831,-0.193751618,0.0342125446
105562.789388,0.0389531233,0.191865438,-0.614601386,0.158260703,-0.158609077,0.0445131212
105562.799415,0.0483493126,0.118310427,-0.460873298,0.209875703,-0.0734672844,0.0170170479
