t,ax,ay,az,gx,gy,gz
94425.437328,-0.0384776757,0.1902677,-0.0342177098,0.0115959317,0.00185453643,-0.0131107128
94425.447355,-0.0849743462,-0.0797526528,-0.0234402952,-0.0072555213,-0.00401214107,0.000368078591
94425.457382,-0.0826687727,-0.240678224,-0.0497198148,-0.00320671701,-0.00640738841,-0.00532309676
94425.467409,-0.139083757,0.130656897,-0.0454820311,0.000885229804,-0.0014704202,-0.0025912259
94425.477437,-0.232633197,0.0564133471,-0.00222916483,0.015775862,-0.00145511065,-0.0127267676
94425.487464,-0.246779138,0.0562733998,-0.0100231797,0.00321825904,0.000409634802,-0.00402648619
94425.497491,-0.345317254,-0.0622672102,-0.0570315991,-0.00157090339,0.0031345811,-0.00565500895
94425.507518,-0.345440369,-0.0618376871,-0.0570462122,0.0117720662,-0.000711289741,-0.0141177351
94425.517545,-0.342969668,-0.0818865961,-0.108067374,-0.00223589472,-0.00131156614,-0.00528349785
94425.527572,-0.328654654,-0.316878689,-0.0326044293,-0.00725835019,-0.00610871838,-0.010384251
94425.537600,-0.383839877,-0.0136836778,-0.073850632,-0.00542636185,-0.00185884574,-0.0142165391
94425.547627,-0.40543533,0.0973724673,-0.0286448781,-0.00960486119,-0.000648705446,-0.0246699766
94425.557654,-0.40246479,0.212141751,-0.0257737065,-0.00259781831,-0.00595452117,-0.0309126951
94425.567681,-0.517702769,0.325119713,-0.0597110475,0.00228402212,-0.00015602067,-0.0210110635
94425.577708,-0.599423679,0.232696829,-0.0748267835,0.00115351037,-0.000109415309,-0.0254364364
94425.587735,-0.599420756,0.23301996,-0.0748279526,0.00916270151,-0.00270333413,-0.0248305664
94425.597763,-0.628625881,0.114344599,-0.106822927,-0.000739997123,-0.00537821317,-0.0255152635
94425.607790,-0.63534854,0.135562716,-0.10033941,0.00377885469,-0.0050913905,-0.0282178425
94425.617817,-0.681288454,0.250214639,-0.121241913,0.00567742188,-0.00407353036,-0.0351915933
94425.627844,-0.74221054,0.237836274,-0.0876804199,0.00995472523,-0.00459923867,-0.0424031668
94425.637871,-0.783306959,0.180639802,-0.063717945,0.00612110489,-0.0010449839,-0.0464572996
94425.647898,-0.845650164,0.114382767,-0.0679037063,0.0109201212,-0.0017674993,-0.0529415623
94425.657926,-0.878674993,0.0491302683,-0.128938897,0.0138565226,-0.00335154768,-0.0554159075
94425.667953,-0.910904288,-0.0596325691,-0.146409088,0.0106601965,-0.00399842944,-0.0543826014
94425.677980,-0.865793299,-0.190669819,-0.0884426364,-0.0072996292,-0.00651298595,-0.0536683366
94425.688007,-0.880464872,-0.158427883,-0.0585946106,-0.014061128,-0.00736146878,-0.0550132334
94425.698034,-0.915447776,0.156820134,-0.103097769,-0.00514726264,-0.00861528508,-0.061655426
94425.708062,-0.921725761,0.441858854,-0.11856188,0.000985198726,-0.00994766496,-0.0700158864
94425.718089,-0.973086019,0.451615072,-0.0485729829,0.00295753575,-0.00879105452,-0.075842084
94425.728116,-1.07663509,0.449193581,-0.0535659688,0.0057322833,-0.00853938509,-0.0831127778
94425.738143,-1.15089962,0.436102555,-0.0380942589,0.00511016867,-0.0042964373,-0.0919195876
94425.748170,-1.20065303,0.405337817,-0.0174051066,0.0120540958,-0.00523200577,-0.0980539113
94425.758197,-1.23155436,0.313744771,-0.0718515671,0.0130783467,0.000920695445,-0.097145246
94425.768225,-1.0831699,0.0529640241,0.0615439269,-0.00108647432,0.0133227697,-0.0971471086
94425.778252,-0.950649,0.0544732916,0.079211101,0.0034424973,0.0123581729,-0.100670205
94425.788279,-0.875046573,0.221510797,-0.177087719,0.00807266946,0.00982870262,-0.105483869
94425.798306,-0.758334138,0.265397139,-0.263924876,0.0181660492,-0.00435635812,-0.109628813
94425.808333,-0.710590244,0.0790668674,-0.312196447,0.0106673872,-0.0053089712,-0.104323791
94425.818360,-0.690307992,-0.096064896,-0.128203569,0.00449737518,-0.0128779411,-0.107769394
94425.828388,-0.818996988,0.0561851918,-0.0689429862,0.0217514623,-0.0174979921,-0.109638931
94425.838414,-0.769314454,0.0083936135,0.101137102,0.00924739039,0.00299849369,-0.113271752
94425.848441,-0.752550951,-0.00920371481,0.392448783,0.00055350027,0.0285539218,-0.120946178
94425.858468,-0.823534047,0.14935146,0.127572689,0.0261020035,0.0299014804,-0.116884062
94425.868495,-0.748461417,0.0331302693,-0.359742042,0.0115475625,0.0154213403,-0.108820008
94425.878522,-0.589385977,-0.0343181316,-0.416952706,-0.0352194115,-0.00871888261,-0.109489264
94425.888550,-0.509849498,0.566399243,-0.451717146,0.0330856115,-0.0360634196,-0.129925297
94425.898577,-0.470836681,0.925809551,-0.432749995,0.0695474789,-0.0438020359,-0.138483377
94425.908604,-0.529630304,-0.123669262,0.348117474,-0.00515445291,0.00476523496,-0.122051919
94425.918631,-0.453345594,-0.681432315,0.998867447,-0.00597976676,0.0790959243,-0.12026068
94425.928658,-0.453424504,-0.145584969,0.246696496,-0.000978083743,0.0413831678,-0.125088201
94425.938685,-0.597119055,-0.262850162,-0.790688988,-0.0190721333,-0.0522666256,-0.111310595
94425.948713,-0.56416678,-0.373137935,-0.718306474,0.0259549961,-0.034704944,-0.11435912
94425.958740,-0.301850818,0.0227167105,0.218140264,0.0327164948,0.0501060841,-0.122044468
94425.968767,-0.329143314,-0.570326175,0.563691485,-0.0174723726,0.0130910753,-0.0808709353
94425.978794,-0.519983647,-1.12523341,-0.346971408,-0.02652499,-0.0340154487,-0.0601249054
94425.988821,-0.521679929,0.0698018484,-0.356568672,-0.0113271272,0.0181979519,-0.0829521954
94425.998848,-0.102576785,0.840836727,0.277254716,-0.017777837,0.0322948639,-0.0930112168
94426.008876,-0.164024064,0.68481271,-0.259718656,0.00560791355,-0.0490042548,-0.0870476008
94426.018903,-0.437080761,0.777422897,-0.770719967,0.0209181596,-0.0606214944,-0.0943595782
94426.028930,-0.409068207,0.704891695,0.153405049,0.0189564757,0.0157062989,-0.08917121
94426.038957,-0.3897076,0.329741308,0.733957451,-0.00478400725,0.0691793804,-0.0999157295
94426.048984,-0.323319211,0.335479048,0.105408788,0.0190185279,0.0157558341,-0.0988640502
94426.059011,-0.232494373,0.0197890253,-0.868871714,0.00860476943,-0.0719362031,-0.0750769615
94426.069039,-0.350472372,-0.226206631,-0.543836042,0.0119771304,-0.0634606908,-0.0789952666
94426.079066,-0.654126525,0.205247151,0.426217782,0.0549911753,0.0144751203,-0.0921571419
94426.089093,-0.665054892,-0.139231491,0.81258792,0.0395965062,0.0920058657,-0.0836728454
94426.099120,-0.215081393,-0.956485593,0.545189029,-7.07447041e-05,0.0649944861,-0.0641225815
94426.109147,-0.0330606922,-1.18820424,-0.498814412,-0.0392335944,-0.00815562337,-0.0389136277
94426.119174,0.0387145773,-0.639787249,-0.884728039,-0.029077097,-0.0735351647,-0.056729646
94426.129201,-0.523958761,0.564931837,-0.696322605,0.000424603247,-0.0983089487,-0.0819700152
94426.139229,-0.997612484,0.369770463,0.123344257,0.0529061862,-0.0252078436,-0.0508648284
94426.149256,-0.72013271,-0.662040801,1.21280012,0.0139822241,0.121610897,-0.0201620475
94426.159283,-0.275216786,-0.849672109,1.3426084,-0.0917601838,0.163265394,-0.00674850272
94426.169310,-0.170157087,0.15903012,-0.538122925,0.00302997355,-0.0206674206,-0.0224606186
94426.179337,-0.501033812,1.04804192,-2.47108713,0.0820102737,-0.164250953,-0.017715668
94426.189364,-0.301876391,0.115460936,-0.743408766,-0.0197246086,-0.0436228047,-0.0230539717
94426.199392,-0.00395983149,-0.171337049,1.73054857,-0.0212316897,0.087431619,-0.040546944
94426.209419,-0.273783538,0.259234269,0.763727735,0.0140876852,0.0730151255,-0.0257293821
94426.219446,-0.0809509359,-0.0683544303,-0.731700793,-0.0196939811,0.0083620996,-0.0117965253
94426.229473,0.158158484,-0.0440989067,-1.01063347,-0.0629767358,-0.0359688792,-0.0269179508
94426.239500,-0.140999966,0.78952272,-1.09069017,0.0345599361,-0.140863342,-0.0453851089
94426.249527,-0.559211422,0.927616747,-0.960920467,0.106213082,-0.146416558,-0.0319047213
94426.259554,-0.702414974,-0.380638227,0.961771934,0.00868413116,-0.0256991982,-0.0101392387
94426.269582,-0.865941914,-0.887076541,2.35083326,-0.0758592516,0.153215962,-0.0201388762
94426.279609,-0.29101064,0.264795556,1.75733954,0.0183351606,0.174218716,-0.0686632708
94426.289636,-0.222474791,0.939476477,-0.828742532,0.083278206,-0.00217363138,-0.062303105
94426.299663,-0.502088144,-0.581410281,-2.06532899,-0.00804611312,-0.100645875,-0.0242899448
94426.309690,-0.678717872,-1.24163313,-0.65936504,-0.0423191331,-0.0590960364,-0.00870113319
94426.319717,-0.518505391,0.0326837129,0.393282311,-0.00465830618,0.0420252551,-0.041342964
94426.329745,-0.206864111,0.92957168,0.468177101,0.0334571198,0.0383833815,-0.0539018974
94426.339772,-0.505194878,0.308208983,-0.587275371,0.0131925967,-0.0586827117,-0.0254787781
94426.349799,-0.544018237,-0.587317605,-0.829385506,0.00226697799,-0.0766289587,-0.000188870935
94426.359826,-0.473092862,-0.24716912,0.160558428,-0.00840910168,-0.0286462511,-0.0116471207
94426.369853,-0.661341133,0.555543831,0.791805244,-0.0592866644,0.0254835618,-0.0334301792
94426.379880,-0.607629855,1.0281304,0.738636548,0.00526569721,0.0590420534,-0.0795033962
94426.389907,-0.532265182,1.21686404,-0.191693168,0.0945862577,0.0139424876,-0.0820256785
94426.399935,-0.248283259,-0.455668005,-0.437559441,-0.0283884026,0.0375839007,-0.03821375
94426.409962,0.135057521,-1.25514333,0.0954006038,-0.0309176065,-0.0413015912,-0.0449097358
94426.419989,-0.811011323,0.0571898525,-1.12792188,0.0332403414,-0.104166044,-0.0319526583
94426.430016,-0.843567512,-0.158090505,-0.278397053,0.00993981196,-0.0183579269,-0.0356043853
94426.440043,-0.213575665,-0.119336274,1.33517562,0.0306046091,0.0951204319,-0.0443605907
94426.450070,-0.411838402,-0.476963745,0.637818213,-0.0462837808,-0.00218082188,-0.0192613654
94426.460098,-1.14724775,-0.929164674,-0.858874051,-0.110200445,-0.137326388,-0.014471403
94426.470125,-1.2888823,0.27975201,-0.0939219446,-0.0193365842,-0.012038513,-0.00927637575
94426.480152,-0.425890162,1.15431742,1.47851267,0.185736668,0.232358592,-0.0840705648
94426.490179,0.292725506,0.353977668,1.1372115,-0.00872948223,0.201898681,-0.0422051415
94426.500206,-0.318526643,-2.08305882,-1.11378639,-0.0854628786,-0.070060132,0.0699067473
94426.510233,-0.13294445,-0.583172066,-2.71482048,0.0744245246,-0.219841642,0.0864495024
94426.520260,-0.119173845,1.24669234,-0.73392899,-0.0555963248,0.0189693459,0.00786734687
94426.530288,-0.0820465491,1.24255641,2.0966884,0.0605265543,0.0997169186,-0.0508020908
94426.540315,-0.582532604,1.01418079,-0.635230131,0.0812832311,-0.0474661346,-0.0336979419
94426.550342,-0.450255957,-1.20941231,-1.01487476,-0.0590602971,-0.0871544312,0.0437973872
94426.560369,-0.459923584,-1.61345539,0.45285386,-0.098259899,-0.0336906704,0.0315343275
94426.570396,-0.76419112,0.983361503,0.799819623,-0.0192958407,0.0375829768,-0.0386436969
94426.580423,-1.16802173,1.79043404,0.354861687,0.125762281,0.0427937192,-0.0504417658
94426.590450,-0.381557173,0.176856667,0.255514009,0.060891141,0.0962774475,-0.0377739087
94426.600478,0.648556786,-1.85946677,0.794582892,-0.0325701006,0.103492485,0.0514808729
94426.610505,-0.221453559,-2.06548867,-0.689669577,-0.0907327413,-0.0245815925,0.0613319039
94426.620532,-1.06272435,0.344532342,-2.02668098,-0.00376668193,-0.130629999,0.0172677733
94426.630559,-1.30568745,1.28955095,-1.12026464,0.0605582454,-0.0951548348,-0.0168100368
94426.640586,0.347723097,0.0435811965,1.40892533,-0.0462054863,0.0883159284,-0.0102219094
94426.650613,0.204097155,-0.648287293,2.09941987,-0.0673544436,0.0874426757,-0.013884287
94426.660640,-1.24215408,0.525065581,-0.485984741,0.0550702706,0.0325932783,-0.0176641118
94426.670668,-0.740140967,0.542807611,-1.18226079,0.0281228077,-0.0122311841,0.00709822576
94426.680695,-0.0972493059,-0.897520851,-0.261018048,-0.0337104641,-0.0458224322,0.0439798072
94426.690722,-0.326547964,-0.441518374,-0.0873156782,0.0219197728,-0.0474144685,0.0346385076
94426.700749,-0.812114243,0.310117009,0.310248054,0.0361261413,0.0935746078,0.0273696746
94426.710776,-0.626540964,-0.192976214,0.540880518,-0.0659490928,0.0258664005,0.0387887791
94426.720803,-1.1036335,-0.448208044,-0.70195272,-0.0613436915,-0.0706178005,0.0443177655
94426.730830,-0.314072148,0.907059477,-0.515316634,0.0500731141,-0.00762684403,-0.0203485783
94426.740858,-0.419635924,1.06810388,0.761942021,0.0491553888,0.11337574,-0.0231792513
94426.750885,-0.142058973,-0.953489991,0.568438387,0.0257762958,0.0347206128,0.0149907697
94426.760912,-0.520645399,-1.75412745,-0.961671578,-0.0762800306,-0.115213497,0.065871796
94426.770939,-1.2865939,-1.02157225,-0.531556991,-0.0892498895,-0.0160261876,0.0689059332
94426.780966,-0.143609125,0.61413678,1.1128007,0.0370795511,0.101839462,-0.0131812129
94426.790993,0.651418752,1.06890716,0.841393158,0.0568926715,0.157044919,-0.021878298
94426.801020,-0.381487396,-0.928550488,-0.77490339,0.0187681884,-0.020875005,0.0559832066
94426.811047,-0.847597571,-1.7791957,-2.04186511,-0.0526604533,-0.122152625,0.139982773
94426.821075,0.146544107,-1.02135488,-0.316168858,-0.0466297261,-0.00169225612,0.114281139
94426.831102,0.63225637,0.758895965,1.18697244,-0.086734268,0.0383339916,0.0377187192
94426.841129,-0.351620811,1.55534255,0.0403894952,0.104431164,-0.0573533866,0.0179894887
94426.851156,-0.0555968605,0.207253175,-0.617172496,0.0585720584,-0.0281542222,0.042456752
94426.861183,-0.515385359,-1.73849383,1.11356584,-0.128401029,0.0822353978,0.108394748
94426.871210,-0.799191341,-1.08927136,0.929959915,-0.0376508787,0.125474485,0.0831636995
94426.881237,0.830500184,1.15486921,-0.461708378,-0.0317871302,-0.0118871032,0.041385895
94426.891265,0.544622364,0.988550816,-1.14190598,0.0765872792,-0.0546819697,0.0568700418
94426.901292,0.373950521,0.223633378,-0.695813487,0.0130844701,0.0192441848,0.0601420015
94426.911319,-0.357728115,-0.443541075,0.211804631,-0.044936224,0.027642198,0.076912722
94426.921346,0.387975978,-0.390339208,-0.541524842,-0.00647058959,-0.101553073,0.0849568009
94426.931373,0.355008067,0.143136321,-0.630259941,0.022440954,-0.0924693029,0.0957487285
94426.941400,0.506219934,0.0698991896,1.24894754,0.013481547,0.0960481484,0.0741672724
94426.951427,0.19881695,0.632526277,1.21768322,0.0260966745,0.0941924547,0.0512840658
94426.961455,-0.30950674,0.234538621,-0.699259243,-0.0252061944,-0.0734830926,0.0741784557
94426.971482,0.0525902502,-0.278399978,-1.2963957,0.0586785868,-0.0973703171,0.082052356
94426.981509,0.398676893,0.0460059166,0.35653985,0.0421480805,0.0213978831,0.086030586
94426.991536,-0.0716200668,-0.251034417,1.31058479,-0.111693415,0.107830772,0.080219841
94427.001563,0.298859917,0.459441784,0.587002802,0.00932275488,0.0227997714,0.0207439981
94427.011590,0.021420109,1.64570496,-1.63512146,0.117748563,-0.146813763,0.0163361992
94427.021617,-0.626214509,-0.373871692,-0.74630215,-0.0172651794,-0.0666070785,0.0484392777
94427.031644,0.563479041,-1.25242282,2.08794396,0.0688713014,0.104959088,0.046760416
94427.041672,-0.444257959,-0.338392821,1.12055672,0.0408782855,0.181033881,0.0966643229
94427.051699,0.386841786,-1.08636066,-0.063169079,-0.117748912,0.0454504882,0.120178974
94427.061726,0.770822691,-0.109705591,-1.40254721,-0.124854493,-0.0800605695,0.0731728509
94427.071753,0.088225408,1.98358754,-1.79378174,0.164863613,-0.133407948,0.00244807999
94427.081780,0.00283479709,1.79606868,-0.690285663,0.0685029894,-0.102026319,-0.00912388752
94427.091807,0.170071551,-1.14393818,1.81678659,-0.0680711001,0.0236554445,0.0479750842
94427.101834,-0.35714615,-1.31244883,1.85056611,0.0181545958,0.0748035778,0.0454205781
94427.111861,-0.847254092,0.600628918,0.153302758,0.0361232095,0.139406802,0.0300389606
94427.121889,0.421342168,-0.0713767646,0.136047671,-0.0868511826,0.0961179231,0.037520314
94427.131916,0.172420379,-0.124995524,-1.44225145,0.0157276567,-0.0990172158,0.0167774841
94427.141943,-0.338172862,0.790183595,-2.50712583,0.126305041,-0.197078792,0.0181215819
94427.151970,-0.558153291,-0.603956898,-0.327554759,0.0241653499,-0.134949921,0.0574823007
94427.161997,-0.360559612,-1.93459055,2.34894701,-0.188674751,0.0847321098,0.0923364222
94427.172024,-0.14165273,-0.153535581,2.99325964,-0.0715973928,0.20913689,0.0129952639
94427.182051,-0.420134302,2.83824535,-0.370397291,0.186365974,0.0317852777,-0.0781817898
94427.192079,-1.237514,1.23112009,-2.17714393,0.0385914266,0.00747887146,-0.00976464303
94427.202106,0.272688753,-2.12642333,0.0102345954,-0.0855598181,-0.00628727434,0.0645063877
94427.212133,-0.158984316,-0.94557235,-0.145245305,-0.0259492147,0.00647991996,0.0374497384
94427.222160,0.325212648,1.14396196,-0.487076628,0.0554223404,-0.0506930891,0.00960053166
94427.232187,-0.343511739,0.346981672,-0.473068561,-0.0429087572,-0.0182051863,0.0377602637
94427.242214,-1.11613219,-0.221924021,0.141024291,-0.00925359239,0.00343832358,-0.00902055728
94427.252241,-0.282109468,0.898050753,0.140177319,0.0507322446,0.00534008684,-0.0260203142
94427.262268,0.0140534527,-0.524138059,0.273575151,0.0361620903,-0.00674347386,0.0208294842
94427.272295,-0.447392458,-1.65944367,0.188857471,-0.140564743,-0.0463111232,0.0587307945
94427.282323,-1.13876385,-0.658229645,0.467659799,-0.0063499484,0.0140355733,0.0384569451
94427.292350,-0.873407501,1.17169124,0.196336428,0.123140131,0.0687614028,-0.00734329747
94427.302377,-0.296113078,-0.398498184,0.323724791,-0.0229457032,0.0921040048,0.053844428
94427.312404,-0.197217162,-2.45196534,0.504218136,-0.155119184,0.0793924724,0.105967543
94427.322431,-0.024536171,-0.205937859,-0.809456817,0.0546422981,0.00751029708,0.03753656
94427.332458,0.577590641,1.03119161,-1.528054,0.0487868086,-0.0489114317,0.0849743768
94427.342485,0.709215472,-1.80675444,-0.144883486,-0.196741465,-0.0202981643,0.120030901
94427.352512,0.419341934,-0.606263457,0.422499053,0.0305974175,-0.061386479,0.0488922804
94427.362540,-0.546537892,1.51381052,-1.07460705,0.0399499059,-0.0717499088,0.049352473
94427.372567,-0.700839249,-1.11187336,0.810100779,-0.180184859,-0.0223208348,0.109593442
94427.382594,-0.00570959776,-0.616986585,1.95441753,-0.0797317505,0.0420589541,0.0789614975
94427.392621,0.215518055,1.94348277,1.23622951,0.0559491113,0.093058752,-0.0374535263
94427.402648,-0.155601542,1.38605975,0.737765611,0.147616175,0.118667977,0.0194403793
94427.412675,-0.190917185,-1.9304742,0.116566726,0.0190685921,0.277183862,0.144210009
94427.422702,0.648231938,-2.118475,0.251313635,-0.33254351,0.253222318,0.0754972532
94427.432729,1.42335758,1.19773008,-2.27019339,0.0145689154,-0.091057023,0.0391232729
94427.442757,1.22586619,2.16858594,-4.81410981,0.144012657,-0.31676924,0.0147044802
94427.452784,-0.590913844,0.178409285,-1.87476959,-0.0334385589,-0.293044476,0.0908639639
94427.462811,-0.754578658,-1.17402374,1.71248684,-0.0428674772,-0.114639586,0.101923799
94427.472838,-1.37280737,0.640811948,2.55699705,-0.0207909394,0.111350941,0.0524731636
94427.482865,-0.149132857,1.18710508,2.59148911,0.0319339268,0.206285106,0.0267348945
94427.492892,0.769182888,0.483312014,0.924194776,0.0350615427,0.132107543,0.0161158055
94427.502919,-0.585209495,0.0404482003,-1.6846819,0.0205337357,-0.0243494398,0.0216975234
94427.512946,-1.88207849,-0.396773954,-2.38145245,0.0661270514,-0.0609210338,0.0782324433
94427.522973,-0.290716918,-0.77438189,-1.03092047,-0.111968915,-0.09705667,0.0905865788
94427.533001,0.701525283,-0.170984345,0.883880301,0.0287935294,-0.0345546733,0.0893154502
94427.543028,-0.00166003011,0.852414425,0.765131172,0.0456441462,0.0545267333,0.0548232518
94427.553055,-0.934676282,0.785768262,0.382132556,0.0188325074,0.0341317114,0.0616281613
94427.563082,-0.5770937,-0.371181759,-0.245054171,-0.0398816719,-0.0126544348,0.0758494422
94427.573109,0.475332482,-0.126355661,-0.275738647,-0.0179691829,-0.0986716057,0.0441911131
94427.583136,-1.01799805,1.12435286,-0.643351478,0.0753367961,0.0132772979,0.0310739822
94427.593163,-1.30405035,0.392779729,0.250083216,0.125301701,-0.00770628072,0.0645869359
94427.603190,-0.372304045,-1.06821089,0.394657107,-0.106985609,0.0172816274,0.0914720803
94427.613218,0.666087621,-1.15334789,1.49300472,-0.0524733655,0.051817501,0.0775168523
94427.623245,0.0146309603,1.11734064,0.00265802269,0.102219012,0.0826558416,0.017685207
94427.633272,-0.31670973,1.1256543,-0.902094769,0.0110060087,0.0912495945,0.0123101476
94427.643299,0.233155126,-0.912338993,-1.26564809,-0.0517649643,-0.17181213,0.0385244399
94427.653326,-0.991188735,-1.15096545,-2.10915527,-0.0499140687,-0.260483412,0.0946241975
94427.663353,-0.568304829,-0.209204131,0.581411266,0.0934018165,-0.0132070407,0.0785632044
94427.673380,0.305459315,0.743858408,3.04241969,0.0159954418,0.280748399,-0.00469600002
94427.683407,-0.320726272,0.0692902639,1.70019201,-0.0559013851,0.104951823,0.0355651364
94427.693434,0.0667801766,-1.2395645,-2.04497418,-0.0882172465,-0.15837541,0.0765080437
94427.703462,-0.613185516,-0.0120558026,-1.84570541,0.0927605301,-0.157720549,0.0584134593
94427.713489,-0.952657417,0.688073977,0.35217464,0.00402479929,0.0600972679,0.0495166391
94427.723516,-0.0277689424,-0.496501572,2.18625119,-0.0571336291,0.176687794,0.0548373669
94427.733543,0.680856589,0.0465428456,0.508841704,0.0654567376,0.0156278034,0.016455891
94427.743570,-0.281968598,-0.11859827,-2.19351756,-0.108149405,-0.132289482,0.0739159941
94427.753597,-1.14542609,-1.02024378,-0.567541327,-0.0539165318,-0.0422299038,0.0754928499
94427.763624,0.0665169226,1.69211804,0.630150455,0.108917397,0.0843466838,-0.0223202683
94427.773651,0.899809137,0.902204877,0.981749724,-0.0278058342,0.0382963625,-0.00034066627
94427.783678,-0.0928570623,-1.43337954,-0.130412477,-0.0295283675,-0.0554250683,0.0771136492
94427.793706,-0.357931894,-0.621070055,-0.738708041,-0.0381732575,0.025696151,0.0223087206
94427.803733,-0.416522103,1.06868263,0.147908205,0.0524397351,-0.00987036612,0.017808244
94427.813760,-0.533069411,-0.2578015,-0.585598962,-0.0399125658,-0.0500388238,0.0522687495
94427.823787,0.340481967,-0.643248642,0.443668098,-0.0221439536,-0.0112743843,0.043538107
94427.833814,-0.459216094,0.641853932,0.825747261,-0.000173141817,0.0822513048,0.00210331695
94427.843841,-0.0849622904,0.0788699566,0.637940378,-0.0546172105,0.107143076,0.0295818135
94427.853868,-0.426215303,-0.465403911,-0.670085756,0.0338580616,-0.0627673994,0.0194287769
94427.863895,-0.62813269,0.369522699,-2.00936627,0.113454622,-0.0964582543,0.0602726139
94427.873922,0.600788488,-1.60151215,0.45738332,-0.0332738377,0.119947815,0.128201602
94427.883949,-0.186878212,-1.40745877,1.34889201,-0.0930793762,-0.0153162646,0.0657289013
94427.893977,-0.77584108,0.640927099,-1.44371684,-0.125498044,-0.212703897,0.0376346804
94427.904004,-1.20930476,0.760920894,-0.344649687,0.247164217,-0.104395537,0.068500182
94427.914031,-0.275675124,0.0017502254,2.14070875,-0.0749030366,0.333469661,0.0427146576
94427.924058,0.708807622,-0.878579858,3.67811588,-0.0359710894,0.412373277,0.0340620488
94427.934085,0.95863162,-0.513723632,-2.16740521,0.0230770547,-0.0469479579,0.0168359227
94427.944112,-0.506936241,-0.882787904,-5.36585931,-0.0791411876,-0.439124284,0.0873090312
94427.954139,-1.68352722,-0.797267529,-1.59313467,-0.0377205193,-0.231902359,0.156845762
94427.964166,-0.801065903,0.697188281,2.45042702,0.035801635,0.103912124,0.10851924
94427.974193,0.798855557,0.516373302,3.78517691,-0.0281387299,0.253657939,0.0228946157
94427.984221,-0.22159852,0.287999102,0.97794624,-0.0395343967,0.0600362812,0.0536011293
94427.994248,-1.492708,-0.567373718,-2.09790147,0.14510442,0.0908852761,0.125178649
94428.004275,0.038085851,-0.422737613,-1.18404358,-0.0384393066,0.109858962,0.075564219
94428.014302,1.23730703,-0.192107249,-0.908034096,-0.0627385184,-0.126077397,0.0899455607
94428.024329,0.274150423,-0.464535933,-2.66540208,-0.0246172316,-0.316695569,0.121430515
94428.034356,-0.797038401,0.292583051,-0.441898931,0.0403114341,-0.133864744,0.0956266135
94428.044383,-0.416631117,0.74576943,2.48270958,0.081707348,0.0709315409,0.0482255392
94428.054410,-0.912232979,-0.358492337,1.96530483,-0.0355862595,0.151499884,0.146164624
94428.064437,-0.790674273,-1.10416271,0.630296585,-0.188988063,0.0466307272,0.113567798
94428.074465,-0.357205406,1.52414135,-1.00401551,0.0339965455,-0.0673562939,0.0700466841
94428.084492,0.135799718,2.20200686,-0.866742885,0.0312071506,0.017425703,0.00227296015
94428.094519,0.495526471,1.49321094,0.662231938,0.107826297,-6.96669272e-05,-0.0431650967
94428.104546,-0.637754286,0.288595808,-0.55568547,0.0130795462,-0.0198945048,0.0221995305
94428.114573,-0.200297373,-1.57233997,0.205546155,-0.0487097867,0.0368508008,0.0582621939
94428.124600,0.497447064,-0.355110841,0.554228075,-0.0276407182,0.007646842,0.0149645213
94428.134627,-0.876666356,0.530281453,-1.12616305,0.0317219392,-0.121595299,0.0300119132
94428.144654,-1.08873762,0.129835955,-0.913636153,0.0419791051,-0.102506561,0.05705951
94428.154681,-0.0532462058,-0.620505553,1.88078005,-0.120103273,0.00765190188,0.0563503079
94428.164708,-0.0267981246,-0.0841766706,2.81866705,-0.0938700691,0.310880216,-0.0189167462
94428.174736,-0.269759909,1.90737159,0.364706205,0.237835702,0.304545881,-0.0377176009
94428.184763,-0.122875842,0.54556776,-2.93962643,-0.0156783323,-0.0791836585,-0.0663058326
94428.194790,0.961148425,-2.47394015,-3.28963405,-0.179971132,-0.394408731,0.107423617
94428.204817,-0.0204535048,-1.25380462,-0.948396501,0.0361110948,-0.178014902,0.146942525
94428.214844,0.671475816,1.52112522,2.06038667,0.0959755004,0.0635583122,-0.0231764741
94428.224871,-0.130250827,1.76546399,2.07726591,0.00280187542,0.0434623641,-0.0678054556
94428.234898,-2.13491665,-1.18537567,0.263663998,-0.198839369,-0.0472076181,0.0527268111
94428.244925,-0.726737149,-1.15341533,0.220606362,0.0678202927,0.0467897189,0.0491720237
94428.254952,1.13941058,1.28668007,1.39258327,-0.0856520861,0.303710165,-0.0448348984
94428.264979,0.844994281,1.30136779,0.746518241,0.129239973,0.0729685892,-0.0374648661
94428.275007,0.0575398354,-0.228052587,-3.61551903,-0.0652621269,-0.240733934,0.041518899
94428.285034,0.48782693,-1.8400586,-1.27060893,-0.147112522,-0.168082638,0.103653645
94428.295061,0.538979098,1.02296403,1.75250438,0.0501209207,0.0235310011,-0.0216803082
94428.305088,-0.430153373,2.74112557,1.33396917,0.101139103,0.222914146,-0.0904828027
94428.315115,-0.0300202285,0.123648955,0.94563387,0.00709515747,0.0736727287,-0.0393937953
94428.325142,0.53732797,-2.07750469,-1.09255538,-0.036098919,-0.0397784653,0.060213758
94428.335169,1.27499964,-1.53330663,-0.7254505,-0.173018414,-0.021023685,0.0409058392
94428.345196,-0.0308940887,1.22330898,-0.079885236,0.0892877698,-0.0502715836,-0.0212075986
94428.355223,0.393434389,2.22869321,-0.584553252,0.0856120706,0.0403185022,-0.0870918051
94428.365250,1.05398139,-0.425988175,0.721503627,-0.0573794424,-0.00195731553,-0.0139893672
94428.375278,-0.206546204,-1.50989725,-0.183808552,0.0931815774,-0.102513483,0.0221422728
94428.385305,-0.0483381216,-0.711565003,-0.339278515,-0.0801513299,0.125232058,0.0143397435
94428.395332,0.390497021,-0.57349611,1.54588349,0.105726127,0.036701398,0.0253710881
94428.405359,0.318441327,-0.6980662,-1.4213583,-0.115423302,-0.04056756,0.0511100054
94428.415386,0.503116853,-1.30028522,-0.103436207,-0.127006981,-0.0375568549,0.0681409225
94428.425413,0.626472234,1.28901436,-0.0787208684,0.0761376143,-0.0439535025,-0.0353119649
94428.435440,-0.107960085,2.51966806,-0.502912495,0.133580667,-0.0353171359,-0.0583632268
94428.445467,-0.599459188,-0.871998872,0.444873382,-0.0484701015,-0.0106583954,0.0439618178
94428.455494,0.340060307,-2.15581104,1.42345187,-0.0482639737,0.0842380245,0.0722808078
94428.465521,0.714322732,0.39575553,0.666939678,0.00630180196,0.171905028,0.0157006182
94428.475549,0.511914419,1.29456863,-0.926527199,-0.0203484513,-0.00842000816,-0.0157854013
94428.485576,-0.411155827,0.267628186,-2.86242629,0.0828568831,-0.228440372,0.0182973988
94428.495603,-0.253281871,-0.114405092,-1.9189384,0.0330027759,-0.220789639,0.0424578622
94428.505630,0.229020438,-0.625684709,1.94862083,-0.101306561,0.000938222936,0.0423816986
94428.515657,-0.0220964497,0.690911831,2.90099403,0.0483881243,0.113233874,-0.0139526824
94428.525684,-0.821649549,1.49918461,0.695323476,0.100623634,0.16550854,-0.0321588494
94428.535711,-0.0531118388,-0.363097894,-0.300056512,0.0510808461,0.0510157701,0.0201387092
94428.545738,0.318932472,-1.42810233,-1.26118527,-0.100355814,-0.12640029,0.0157436937
94428.555765,-0.346065004,-0.471048676,-1.41323227,-0.00491930747,-0.126316665,0.052194646
94428.565792,-0.263182795,0.391603269,0.7722676,-0.0505632229,0.0777025093,-0.0270258725
94428.575820,0.43218841,1.33411197,1.57509263,0.208606821,0.091905946,-0.044673042
94428.585847,0.312038474,-0.328577054,-0.538744272,-0.0404341586,0.0452423041,-0.00441297295
94428.595874,-1.07534915,-1.76087006,-0.906405618,0.0530593068,-0.127927346,0.0566426575
94428.605901,-0.654640758,-1.39428175,-1.50390974,-0.182200882,-0.116511179,0.0742144644
94428.615928,-0.205282103,-0.316511829,1.73190583,-0.0511142306,0.00346343227,0.0448395297
94428.625955,0.361721593,1.67790977,1.33904165,0.108037074,0.11158804,-0.089106822
94428.635982,-0.182548293,1.48991804,0.350754252,0.108241868,0.0468226244,-0.0497453004
94428.646009,-1.6356768,-1.57544992,-0.641784375,-0.186153549,0.0459174161,0.0605593681
94428.656036,-0.388170453,-1.18971421,-0.201089941,0.0195681907,0.0159019922,0.0242857843
94428.666063,1.59239415,1.57320744,-0.822475289,0.0933236376,-0.0547476764,-0.106924967
94428.676091,0.250113641,0.23993184,-0.717335583,0.0300751616,-0.103831863,-0.0490733847
94428.686118,-1.39146648,-2.50208868,0.0998271881,-0.129680949,-0.03447037,0.0737425521
94428.696145,-1.27162312,-0.69288719,0.687059506,-0.121222745,-0.020454416,0.00317144336
94428.706172,0.125527549,1.77605524,0.997968452,0.0345604576,0.080692703,-0.0598187089
94428.716199,0.0449645046,1.32815628,0.854317522,0.22130343,0.0918319096,-0.0447593309
94428.726226,-0.403220358,-1.16007639,-0.409870055,-0.18388747,0.0460508373,0.0176611714
94428.736253,-0.654425581,-2.04582828,-0.271454687,-0.0545877918,-0.0732097755,0.0453615099
94428.746280,-0.0594238715,0.50172891,-1.24313056,-0.0161264214,-0.00971388902,0.00761412864
94428.756307,0.45224416,1.00153034,0.53478337,-0.020066037,0.0783216898,-0.047814773
94428.766334,-1.05912267,0.889942265,-0.474972349,0.0988928423,-0.0643148179,-0.0205985993
94428.776362,-1.18624077,-0.383324434,-1.16034881,-0.120117004,-0.00252548411,0.00676644442
94428.786389,1.09055032,-0.667266573,1.56219633,0.0187801615,0.023251785,-0.0137257805
94428.796416,0.207092976,0.419696633,0.56839747,0.0553680033,0.0319619198,-0.0107987007
94428.806443,-0.938998748,-0.47362934,-0.219259804,-0.0409212477,0.0826338847,0.0395531527
94428.816470,-0.316797043,-1.05313906,0.131757281,-0.200957003,0.0288726521,0.00144065533
94428.826497,-0.100800057,1.55571562,-1.26004078,0.151281473,-0.117878711,-0.0406798996
94428.836524,0.491817168,1.50857437,-1.60948667,0.228136313,-0.0812168325,0.0227403514
94428.846551,-0.572601284,-2.13380657,1.30242252,-0.405579376,-0.0897288303,0.0666574746
94428.856578,-2.0274317,-0.993428034,2.09292408,-0.192029017,0.0586113726,0.0282632135
94428.866605,-0.450900685,2.66396079,0.537340653,0.43223114,0.202010887,-0.109805705
94428.876633,0.741274452,1.58791518,0.702735798,0.0506347649,0.325675549,-0.111437956
94428.886660,0.4899098,-2.97265218,0.148815383,-0.204046804,0.24258201,0.0635474309
94428.896687,1.11393375,-2.05848303,-3.43392094,-0.0368066646,-0.196179105,0.0652638435
94428.906714,0.557242777,1.84921824,-5.18291915,0.0255621679,-0.458397953,0.0296512529
94428.916741,-0.245063932,0.820180381,-1.12529854,0.0860476166,-0.312349943,0.0203429743
94428.926768,-1.28479941,-0.331616093,2.50948887,-0.0168851569,-0.0412097628,0.0269068651
94428.936795,-1.64448657,0.0632936082,2.98401718,0.0208489064,0.176774236,0.0149788338
94428.946822,0.18380935,-0.307934865,2.94280137,-0.0838551327,0.203161644,0.0225222394
94428.956849,-0.296564987,0.363569453,0.0277503784,0.0431661986,0.0949973409,0.0197927639
94428.966876,-0.714698556,1.1723272,-2.05877474,0.0355793841,-0.0470625925,0.0108434785
94428.976904,0.110367316,0.612065673,-1.34107714,0.0752170727,-0.129170505,-0.0130493386
94428.986931,-0.110312128,-0.040079942,-0.867520299,0.104716641,-0.0963608976,0.03530621
94428.996958,-0.767745452,-1.82169541,1.24289189,-0.0951192409,0.106539751,0.0853874892
94429.006985,-0.587336716,-0.208422242,1.16015223,-0.105340983,0.112446377,-0.0156634959
94429.017012,-0.720732429,2.051873,-1.26715967,0.0129656837,-0.0736374761,-0.0392854676
94429.027039,0.19291094,1.15529394,-1.5587075,0.132705134,-0.2137565,-0.0255875007
94429.037066,-0.178130623,-0.846261277,0.182504887,0.192414534,-0.0400736611,0.0727193638
94429.047093,-1.16655159,-1.88702055,1.93565613,-0.196245331,0.201900901,0.076433143
94429.057120,-0.751333538,-1.41890239,1.9999699,-0.193373653,0.11375718,0.0322875179
94429.067147,-0.543054287,1.46287177,-2.12205216,0.126648825,-0.171091584,-0.0158688255
94429.077175,-0.942051852,1.30618761,-2.41956211,0.178115752,-0.117756201,0.0292837381
94429.087202,0.333861307,-1.80128595,2.09083617,-0.299905407,0.123423921,0.0557816572
94429.097229,0.60882508,-0.585273167,2.68414109,0.0233000785,0.170989322,-0.00614935404
94429.107256,-1.03723978,2.4883447,-2.41777464,0.248520148,-0.102081103,-0.0681056619
94429.117283,-1.52793305,-0.251568506,-2.65905417,-0.163353163,-0.168308048,0.035320057
94429.127310,0.422356898,-3.32236461,2.18264527,-0.141252118,0.0261857902,0.124093337
94429.137337,0.148761052,0.815658008,1.77628448,0.0716865182,0.113796333,0.0204793274
94429.147364,0.458451198,2.98225576,0.0686002752,0.11653575,0.119157003,-0.0906924695
94429.157391,-0.177817392,-0.357741117,-0.616436583,-0.166127118,0.00286661795,0.0141026549
94429.167419,-0.982590198,-1.61160991,-1.70517816,0.0905741945,-0.128251715,0.00785434654
94429.177446,-0.433748694,0.238598874,-1.27614202,-0.00760803481,-0.0893232281,0.00348782714
94429.187473,0.964205402,-0.977655441,1.84625935,-0.108198288,0.0377923754,0.0180579819
94429.197500,0.309115573,-0.292059524,1.78370791,0.0583086655,0.135806294,-0.00310988782
94429.207527,-1.15299148,0.409052344,-0.534179156,-0.130426112,0.0895426591,0.00500529621
94429.217554,0.584156795,-0.676749345,-0.344275593,0.106035706,0.0130803735,0.0310342334
94429.227581,0.816792342,-0.326471753,-1.64046633,-0.0102528205,-0.143526001,0.0465894922
94429.237608,-0.172564367,-1.48656709,-0.502342587,-0.226845849,-0.1685504,0.0958976507
94429.247635,-0.456326071,0.217520649,1.34540066,0.126892772,0.0836786424,0.050564526
94429.257662,-0.471826569,2.28868693,1.21186196,0.13665193,0.204213591,-0.00377035199
94429.267690,0.757503702,0.044158969,0.450950656,0.0545333669,0.13423823,0.0408226833
94429.277717,0.940565145,-2.43330945,-0.895854413,-0.232911471,-0.0364855844,0.100595205
94429.287744,-0.211739535,-1.21380945,-2.21850119,0.0254167587,-0.230008973,0.0860583395
94429.297771,-1.46686454,2.12466453,-2.39102283,0.0798978478,-0.0882531758,0.00701678207
94429.307798,0.969637071,0.700982486,2.10239918,0.0327247426,-0.0068762907,0.0226290323
94429.317825,1.26544183,-1.14255944,2.26080871,-0.00541438923,0.0796348993,0.0943389073
94429.327852,-0.950616997,-0.491169271,0.224788616,-0.10106768,0.112348633,0.0843736216
94429.337879,-1.57414856,1.48324966,-1.07115779,0.0233067375,-0.0505044627,0.00769588806
94429.347906,0.243992162,1.68748834,-1.64524246,0.150900376,-0.0533995832,0.00538959017
94429.357934,1.42434352,-0.690436144,0.448278222,0.119697993,0.0249916279,0.0444712139
94429.367961,0.0687050072,-0.659765184,-0.255206732,-0.034612219,-0.15990418,0.0565249458
94429.377988,-1.1638142,-1.23100396,0.0677199852,-0.360006827,-0.020217128,0.0766435325
94429.388015,-0.756827679,1.2322225,1.20508794,0.204232571,-0.103849446,0.00216343708
94429.398042,-0.652607207,3.24886175,-0.661843413,0.28012256,0.22164877,-0.0889377088
94429.408069,0.804832951,-0.908503506,2.56821403,-0.012388942,0.199202048,-0.00674776605
94429.418096,0.563519153,-2.82697383,-0.973058649,-0.208308923,-0.159224806,0.0548969567
94429.428123,-1.09694307,-1.1839471,-3.2535106,-0.0806321755,-0.302979587,0.121622725
94429.438150,-0.716624555,1.44961964,-0.101239574,0.0496595174,-0.0689218174,0.0274030141
94429.448178,-0.573253757,2.41401353,2.52019088,0.312866133,0.0241452754,-0.0379208639
94429.458205,-1.08884663,-0.172695405,1.50577944,-0.138799879,0.23805997,0.0809799567
94429.468232,-0.0991106428,-2.48817063,3.11865478,-0.12525824,0.434802296,0.111720024
94429.478259,2.17283563,1.43214974,-1.21010273,0.136384544,0.115655484,-0.0480715014
94429.488286,0.364165333,2.49865917,-5.61836575,0.00461674559,-0.401965646,-0.110948326
94429.498313,-1.0575129,-1.52127731,-3.39478895,-0.0332446165,-0.406950293,0.0697777778
94429.508340,0.329256809,-1.86359087,1.92080635,0.0511190005,-0.0404830928,0.0967034012
94429.518367,0.687405718,0.4566367,3.51160605,0.00160497644,0.0882660989,-0.0304478925
94429.528394,-2.1912121,0.222135742,1.48843376,-0.124379317,0.110483782,0.0367250204
94429.538422,-0.231007277,-1.08625026,0.308180016,0.117271122,0.101463923,-0.00887601974
94429.548449,0.967581089,0.857572904,-0.373428622,-0.106008033,0.00384415833,-0.0364152357
94429.558476,-1.0072606,0.0730899393,-0.817417421,-0.118048187,-0.0882199909,0.026589828
94429.568503,-0.335260043,0.739236009,-0.159284936,0.115450849,0.0304805619,0.0122505709
94429.578530,1.26445603,1.44546851,1.29246812,-0.182846087,0.159558388,-0.0836179048
94429.588557,0.776076593,0.616776408,1.03031414,0.19043189,0.0747795869,-0.0532615945
94429.598584,0.0435600446,0.0372662321,-2.35786056,0.158655849,0.0206705426,-0.0325464621
94429.608611,-0.33924809,-1.71283624,-1.38008111,-0.274945128,-0.109736202,0.0646493271
94429.618639,0.809919753,-1.48308977,-0.219439253,-0.162157598,-0.224473698,0.0500357657
94429.628666,0.315990134,2.28073421,-0.0871525966,0.35560326,0.0297548511,0.014404802
94429.638693,0.419465195,1.6144931,1.88208762,-0.0627329975,0.202577757,-0.0667467803
94429.648720,-0.135493404,-0.281303134,1.37309122,-0.0853978351,0.127078207,-0.035544911
94429.658747,0.351403101,-0.693923913,-2.15133028,0.169045103,-0.141866444,-0.0125019137
94429.668774,-0.236991977,-0.60507823,-2.33258525,-0.115039612,-0.0965761895,0.0486330822
94429.678801,1.03517673,-1.17137345,1.42351968,-0.148291844,-0.0905712973,0.0141182452
94429.688828,0.413061904,1.9220954,0.763434305,0.135717776,-0.0191831309,-0.0613741145
94429.698855,-0.608374901,2.16306207,0.533918278,0.267769557,0.126225727,-0.047183992
94429.708883,-0.141015748,-0.769622786,0.487290382,-0.134453791,0.106079446,0.0195401743
94429.718910,0.463023255,-1.931505,0.321790608,-0.198614407,0.0559771341,0.0143938832
94429.728937,0.893372162,1.73103419,-2.01301895,0.198803794,-0.220898403,-0.0930377707
94429.738964,-0.981267279,2.27196244,-2.89017004,0.154399586,-0.183243705,-0.0513350606
94429.748991,-0.0051422462,-1.75701324,2.0733011,-0.190870467,0.0411971231,0.039784728
94429.759018,0.660617884,-0.644452976,3.10665163,-0.0215165887,0.142768489,-0.0389212683
94429.769045,0.337025178,2.45837012,-0.0753060915,0.208569345,0.0127569596,-0.113471137
94429.779072,-1.28479035,0.214236751,-2.02207846,0.103216019,-0.112687511,-0.0250523273
94429.789100,-0.386727634,-2.62474329,0.0108594493,-0.0653809786,-0.0165181047,0.0803915396
94429.799127,-0.117763467,-1.61862972,1.60597,-0.254218805,0.0694857483,0.0195140749
94429.809154,-0.375081474,2.1691617,0.339408682,0.168258411,0.0489245524,-0.075959453
94429.819181,1.40488566,2.37825322,-1.17057269,0.298611623,0.0723912586,-0.106448384
94429.829208,0.156610889,-1.2225536,-0.420520043,-0.116466272,-0.166794686,-0.0965358332
94429.839235,-1.39891431,-2.9494566,-0.843765914,-0.226281452,-0.205912797,0.0759358018
94429.849262,-1.04001889,-1.36848373,1.20247103,0.0155538142,0.097675847,0.0652522728
94429.859290,0.166893944,2.62780899,1.96344196,0.216233921,0.245677563,-0.15257086
94429.869317,0.406448404,1.14540544,0.566768993,-0.0742264047,0.0905782525,-0.10072978
94429.879344,0.675893268,-2.56071447,-1.23349822,-0.0964675277,-0.108729256,0.0468359798
94429.889371,0.239689789,-0.958043051,-1.91700889,0.0246045672,-0.105596317,-0.00971571507
94429.899398,-0.10517798,1.36762802,-0.0296502557,-0.0709634974,-0.0245209037,-0.0477808058
94429.909425,-1.1063131,1.21761939,0.233252493,0.125650761,-0.0577576886,-0.0563090533
94429.919452,0.0853012642,0.834928015,0.315307676,-0.0617111467,0.0436871779,-0.0528559923
94429.929479,1.07842975,-0.662945057,2.28827831,-0.000604381946,0.0470994879,-0.0347433031
94429.939507,-0.657017205,-0.2608085,0.218154877,-9.01255269e-05,0.119496988,-0.032193856
94429.949534,-0.525573357,0.416202909,-0.462658226,0.0309119977,0.080314966,-0.0681161747
94429.959561,0.517380649,0.176234681,-1.34988588,-0.0478014566,-0.110161772,-0.0341214553
94429.969588,0.796884111,-1.09318963,-0.57103443,-0.0781082317,-0.0633519198,0.0124284703
94429.979615,-0.0281790576,0.604051549,0.65903928,0.0943066821,0.00863332123,-0.0684882194
94429.989642,-0.553501593,2.13923272,0.0271670255,0.0427795768,0.0477439706,-0.0766854301
94429.999669,-0.817329201,-0.463347746,0.441663188,-0.153433609,0.0722751488,-0.026577517
94430.009697,0.426956062,0.141298922,0.266867178,0.161033776,0.0435468276,-0.090727748
94430.019724,1.35751864,1.66872811,-1.11216258,0.118390982,-0.0472254175,-0.112374985
94430.029751,-0.633714144,-1.17221458,-0.622890289,0.00566709584,-0.0072788004,-0.0443993896
94430.039778,0.0743453512,-2.71955625,0.34584193,-0.206191632,-0.0481210406,0.00254041923
94430.049805,-0.386730703,0.259067917,-0.114982853,-0.260035413,0.0205925108,-0.115991288
94430.059832,-0.146317434,2.72839966,0.417457552,0.327898932,-0.0637021269,-0.2118499
94430.069859,0.422858272,1.33203707,-1.08779328,0.197038126,0.0210902561,-0.16159472
94430.079886,-0.576647637,-2.80928211,1.54514407,-0.106200586,0.138292776,0.0201601594
94430.089914,1.42441687,-3.67478309,0.711279755,-0.242379191,0.0513940994,0.0789363891
94430.099941,0.422887352,0.952603742,-2.18016416,0.0662651927,-0.145619092,0.059882535
94430.109968,-1.04224848,2.77888364,-2.79092289,0.232916501,-0.292168854,-0.0393766701
94430.119995,-1.50532842,1.46384631,-0.00189598735,0.0159716651,0.000293898472,-0.00294702465
94430.130022,-1.04790877,-1.99020138,3.38917911,-0.116389307,0.139390798,0.060602656
94430.140049,1.10974083,-0.0965831386,2.12192864,0.081920591,0.0993174185,-0.0583916396
94430.150076,0.140884839,1.41977366,-0.617441961,0.158037719,-0.0266346558,-0.0738502309
94430.160104,-1.10026658,-1.42814953,-0.691502053,0.0191791754,0.0711214636,0.0352363124
94430.170131,-0.876763679,-2.49111369,-0.169282014,-0.216205376,0.00924185392,0.0373087883
94430.180158,0.230229156,-0.0307904827,-0.0789564307,-0.0678542584,-0.033597758,0.000708164067
94430.190185,-0.0575400305,1.93800229,-0.790357564,0.181979817,-0.0512949954,-0.0521598473
94430.200212,0.837486024,1.15995192,-0.0306416048,0.091626209,0.0733081867,-0.0307445672
94430.210239,0.788907287,-1.41475024,1.33176552,-0.0968331799,0.0615487342,0.0308855068
94430.220266,-0.866886794,-0.807330512,-1.44048853,0.0445353993,-0.199214948,-0.0175014656
94430.230294,-1.44499684,0.201011578,-2.04307799,-0.105191509,-0.123354277,0.0192746579
94430.240321,0.249970068,-0.178942245,2.2951745,0.016226529,0.0505578686,-0.0323736236
94430.250348,0.535906047,1.38878537,2.00131255,0.107626748,0.0896245782,-0.103340478
94430.260375,-0.429668366,-0.221043805,0.826687757,3.15809295e-05,0.221624421,0.000358491556
94430.270402,0.438806586,-1.96987653,0.131872432,-0.244196001,0.0820268412,0.028167751
94430.280429,-0.129794754,0.459537499,-1.97341175,0.0741758466,-0.166519327,-0.0204365362
94430.290457,-0.351413379,2.13343075,-2.80303828,0.0900466934,-0.129987402,-0.0414736435
94430.300484,0.729000881,-0.139094712,1.56614828,-0.106538537,0.0614027922,-0.0428670064
94430.310511,-0.355495972,0.133048423,1.88265168,0.143803936,0.0379083847,-0.067192854
94430.320538,-0.524038329,-0.000729448886,-0.592768707,-0.0648315727,0.0467564707,-0.0271101516
94430.330565,0.361107041,-1.60263604,1.01690988,0.0103534607,-0.0112389204,0.0122236725
94430.340592,-0.363620023,-0.690069064,-0.365565049,-0.173302922,0.151588338,0.00389250589
94430.350619,0.120988079,0.867140066,0.328540082,0.0360697441,0.0135844043,-0.0601980627
94430.360647,-0.261110008,1.56939869,-2.35442591,0.106784393,-0.121352909,-0.0665920466
94430.370674,-0.189251663,-1.23688447,-1.11564166,0.0262930122,-0.129574878,0.0435994401
94430.380701,-0.0835615568,-2.21151042,1.3527446,-0.197152066,0.00531209268,0.0577453509
94430.390728,-0.0192718938,0.233143385,2.50144059,-0.198542225,0.11919179,-0.0302311104
94430.400755,-0.63313101,2.6149875,0.447383319,0.488506717,0.281663539,-0.0458944902
94430.410782,0.592341709,-2.21493338,-1.67564636,-0.142463508,0.135577681,-0.0638375372
94430.420810,0.59940266,-2.23073696,-1.67477542,-0.194520864,-0.243128611,0.0944580868
94430.430837,-0.243737871,-0.416119181,-3.17391391,0.0324936517,-0.282093583,0.0463691264
94430.440864,-0.0654717003,1.9969294,0.174818424,0.390437406,-0.0470259468,-0.00888693856
94430.450891,0.479688412,-0.648327918,2.46831222,-0.318961579,0.1439496,0.000573940927
94430.460918,-0.695851232,-2.25535833,2.54657678,-0.0851959616,0.0359235314,0.0753070324
94430.470945,0.162528077,1.53239714,-1.45120457,0.102403228,0.0308384915,-0.0700624153
94430.480972,0.470566802,2.44358844,-0.777992588,0.19929063,-0.0398703012,-0.0352330595
94430.491000,-0.345129623,-1.31037334,-0.71065742,0.00529151533,-0.0484500843,0.0385793656
94430.501027,-0.0150230042,-2.60666724,0.47534217,-0.114297199,-0.0483454223,0.11783637
94430.511054,0.168221832,-0.149645387,0.642821136,-0.0281753644,0.025578335,0.00622728502
94430.521081,0.147569943,1.86666066,0.44133644,0.163535488,0.171843411,-0.0326780357
94430.531108,0.245545164,-0.343682671,-0.0606702479,0.000663740458,-0.02789421,0.00107699761
94430.541135,0.525890118,-2.11565658,-1.46469475,-0.193697754,-0.165009988,0.0703383595
94430.551163,0.0682775025,-0.707025606,-0.167938198,0.0383290954,-0.162943898,0.0588617347
94430.561190,-1.31511272,1.95770564,0.293863321,0.0748197258,0.0793885683,-0.0403085254
94430.571217,0.403518707,0.72460886,2.26621787,0.0409142234,0.182962375,-0.0168953441
94430.581244,0.595805293,-1.17301829,0.867803611,-0.0164835538,0.0863790979,0.0247868545
94430.591271,-0.0692526071,-1.17930863,-1.62097135,-0.0136350376,-0.211771099,0.034047997
94430.601298,-0.718101277,-0.585462515,-1.34713278,-0.174392226,-0.11825314,0.0684349969
94430.611326,-0.167642619,0.961414168,2.1546607,0.151219425,0.158408033,0.00746032817
94430.621353,1.03933086,2.01183573,1.43830224,-0.0293799128,0.217766957,-0.101087721
94430.631380,0.325661926,-0.31940112,0.744178985,-0.0943900674,0.337613972,-0.0712086499
94430.641407,1.55588213,-0.658026962,-2.92546931,0.173772943,-0.0826541315,-0.0353808791
94430.651434,0.0907962814,-0.585226295,-4.86236501,-0.238483059,-0.459086625,-0.0341981702
94430.661461,-0.829325636,-2.17328284,-0.935898254,-0.0153799403,-0.444836585,0.143136127
94430.671489,0.170863213,0.118423137,2.04516105,0.143817973,-0.0309448614,0.0620106555
94430.681516,-0.138842203,1.44153278,4.61515766,0.0432820402,0.28059596,-0.0524168551
94430.691543,-1.15642986,-0.491067929,3.10768389,-0.0623224146,0.27249703,-0.00770424271
94430.701570,-0.990352357,-2.17060354,-0.45557499,-0.198942053,-0.0112768839,0.0556393102
94430.711597,0.644191065,-0.403072397,-0.78974557,-0.0940851375,0.0966879298,0.018501528
94430.721624,0.926701674,2.08238986,-0.0349197206,0.129697886,0.215910198,-0.0648303792
94430.731652,0.796145422,1.85689169,-1.42774186,0.0418636397,0.0402757917,-0.0208743733
94430.741679,0.351138093,-1.08545472,-2.65366254,-0.157007906,-0.224903403,0.0462934769
94430.751706,0.117220616,-1.06540979,-1.48174233,-6.67646389e-05,-0.194385452,0.0515300505
94430.761733,0.66421547,1.49699002,0.978445421,0.178072882,-0.0219319257,-0.0458433718
94430.771760,0.106336161,0.34013787,2.05356355,0.00943885634,0.12959102,0.00885848829
94430.781787,-0.674827295,-2.07497108,1.75860562,-0.253537136,0.107277723,0.0538680389
94430.791815,0.346882336,0.0783557326,-0.267914822,0.0746711239,0.106754677,0.0232978821
94430.801842,1.38298129,2.4060313,-1.51020036,0.121478577,-0.0317747015,-0.0582113579
94430.811869,0.203473032,0.260492178,-1.93151673,-0.016353327,-0.184276355,0.0715418443
94430.821896,-0.0717130058,-1.88482085,-0.45982914,-0.10345387,-0.175029321,0.0945068136
94430.831923,-0.749016274,0.821646289,1.04525803,-0.0863036468,-0.0289893019,0.0230989441
94430.841951,-0.373646181,2.26479269,2.01813392,0.246909198,0.210033672,-0.0685761139
94430.851979,0.202675963,1.32393033,1.03052223,0.178170887,0.272073867,-0.0594571844
94430.862006,0.229774252,-1.95206439,-1.13267229,-0.128298762,-0.0269005857,0.0115605317
94430.872033,0.166215387,-3.05409829,-2.39335507,-0.194090295,-0.253756372,0.136899812
94430.882059,0.178301693,0.250990921,-1.66983621,0.0855203092,-0.151179923,0.0771086499
94430.892087,0.446091701,2.81163733,0.808194653,0.0855834231,-0.0709394197,-0.0918777079
94430.902115,-0.614049951,1.21317067,1.61218931,-0.00767461692,-0.0368043463,-0.0404749714
94430.912142,-1.08385533,-1.10883114,1.29297957,0.0791569546,0.150052624,0.0198352396
94430.922169,0.658122487,-0.606262471,1.55070872,0.0247941099,0.200664939,-0.0257082783
94430.932196,0.54371979,-0.385191762,-0.34404003,-0.100580852,0.0209345818,0.00059842726
94430.942223,-0.437269635,-0.925600844,-2.23327791,-0.0515864148,-0.178085564,0.0262622464
94430.952251,0.568652571,1.00231638,-1.44842341,0.131120023,-0.0845588203,-0.030738724
94430.962278,0.894633634,1.07685607,0.991422976,0.0860934228,-0.0191598403,-0.0138777174
94430.972304,-0.582119493,-1.07879768,1.14627159,-0.194341961,-0.0414931084,0.0116891622
94430.982332,-0.801072259,-0.78440929,0.817141345,0.108853062,0.169321122,0.0479174726
94430.992359,0.560417315,1.2462389,0.583817158,-0.0337291203,0.149968999,-0.0896574348
94431.002386,0.424899714,1.28925182,-1.41399917,0.0100516498,-0.219466029,-0.0470918618
94431.012414,-0.389111826,-1.02121708,-2.00225557,-0.0540359907,-0.19816607,0.0506916888
94431.022441,-0.171738291,-0.243707892,1.74963788,0.0851501271,-0.0085024032,0.00868671423
94431.032468,-0.219501621,1.3917736,2.04864713,-0.074847798,0.177991049,-0.0801147908
94431.042495,-1.40756961,0.00370867969,1.63945434,-0.0520545982,0.189864488,-0.0201992631
94431.052522,-0.352501759,0.744352548,-1.22345555,0.127665904,0.114049079,-0.0920521483
94431.062549,1.42936076,0.677811453,-1.49413303,0.00674107422,-0.0672378893,-0.0552142352
94431.072577,1.47853922,-2.18796778,-0.80818139,-0.104072529,-0.103505349,0.0277738556
94431.082604,-1.22329931,-1.17937709,-0.838268486,-0.162922519,-0.131577996,0.0370616302
94431.092631,-1.27013084,1.66494596,-0.195490806,0.170953986,-0.0352754275,-0.0766827777
94431.102657,0.412400517,1.87719623,1.09986114,0.0452107013,0.124702783,-0.0781256795
94431.112686,0.348931742,-1.51575226,2.42044105,-0.231374282,0.0760050212,0.00974398887
94431.122713,0.253630051,-0.999802318,0.0560646187,0.0198334407,0.0192730353,-0.0143376455
94431.132740,-0.545275909,2.28423024,-1.57298912,0.134835926,0.0749858339,-0.078109169
94431.142767,0.252690725,0.889120573,-0.452299914,-0.130829576,0.0327680726,-0.0609514877
94431.152794,1.16921133,-0.635189765,-0.629878833,0.204027784,-0.167647315,-0.0559146494
94431.162822,0.0776250305,-0.0396990575,-1.64130044,-0.165488484,-0.0203670523,-0.0400557906
94431.172849,-0.990131115,-0.680489335,1.4684396,0.0344025277,-0.0277282949,-0.0240121089
94431.182876,0.233304326,1.1562359,0.290591167,0.00278521453,0.106409798,-0.101198243
94431.192902,1.25521532,0.507022669,1.35167492,0.122099628,0.0831297804,-0.0702091694
94431.202930,0.616222497,-1.23851251,-0.652028121,0.0644179553,-0.0860648434,-0.0237279512
94431.212957,-0.321174308,-1.81338234,-1.1540313,-0.191359761,-0.110616526,0.0273594674
94431.222985,-1.52922353,-0.32483816,0.23414798,-0.0980700284,0.0188866109,0.0337113723
94431.233012,1.03879412,1.62273734,0.984681101,0.237951127,0.150789516,-0.0713748351
94431.243039,1.26723865,1.81341013,0.348429608,0.0800104931,0.146182524,-0.111929716
94431.253066,0.551481802,-1.39714269,-1.69114204,-0.00655848596,-0.208671702,-0.0176868361
94431.263094,-0.557617577,-2.02660087,-2.73454342,-0.104406486,-0.197533039,0.0697173163
94431.273121,-0.993950454,-0.365235053,0.279312233,0.0845756874,-0.111004544,0.0285762664
94431.283147,-0.490660522,1.27978373,1.0555649,-0.108492839,-0.0390177014,-0.0492615417
94431.293175,-1.70190254,-0.248395447,2.26734541,0.0659961447,0.159118565,0.0237604718
94431.303202,1.21161803,0.138358859,1.87768325,0.0492025137,0.181732254,-0.0267636866
94431.313230,1.7411047,-0.147393645,0.453823581,0.0673319817,0.0379029122,-0.0204200387
94431.323257,-0.43545389,-0.716206545,-2.12385365,-0.0883169949,-0.0906750391,-0.000406383185
94431.333284,-2.17893904,-0.227781296,-1.53564928,0.0584407531,-0.0540594998,0.0338953979
94431.343311,0.175836471,0.283825123,-0.0376891853,-0.0237382717,0.0411724766,-0.0164921429
94431.353338,1.71728952,0.102214427,1.19082327,0.143390802,-0.0255530252,-0.0554334164
94431.363366,0.786230031,-0.610837853,-0.537537234,-0.0394024543,-0.132352708,-0.0468005143
94431.373393,-1.88791071,-1.83989625,-0.036107469,-0.258873302,-0.0446329731,0.0417370744
94431.383420,-2.05171464,-0.165025163,0.775893974,0.167558712,0.106994899,0.00592980942
94431.393447,0.714775079,2.22400929,0.543285826,0.0439853825,0.0828970169,-0.0862453893
94431.403475,1.7928324,-0.648337416,1.25196426,-0.0987922728,0.0846347307,-0.0335741915
94431.413502,0.806563063,-1.51351515,-0.318221698,-0.0520207762,-0.103699496,0.0226704389
94431.423529,-1.37227282,0.898676483,-2.25183589,0.0720039651,-0.102243541,-0.0447054036
94431.433555,-1.57082541,1.37826851,-0.247802008,-0.0218940332,0.115980135,-0.0643366292
94431.443583,1.17162994,-0.43767222,1.63155102,0.0693844825,-0.00414147686,-0.0507446543
94431.453611,0.970588892,-0.828003736,-0.29477068,-0.104361746,-0.0572286601,0.0175233487
94431.463638,-0.376393945,-0.825938693,0.533168921,-0.074626486,0.0390416813,-0.00739691371
94431.473665,-1.13698537,1.59240211,0.0740994571,0.153133434,0.0894473289,-0.0811393127
94431.483692,0.766130442,0.997319594,-0.795484406,0.0902042732,0.0466340874,-0.0519766338
94431.493719,0.506376001,-2.33036404,-0.11232737,-0.297781575,-0.095729297,0.0284289107
94431.503747,-1.17170239,-1.68191226,-0.65428496,0.026684935,-0.129241465,0.0955943599
94431.513774,-0.0832134009,2.20313996,-0.548937164,0.0560726494,0.0444935915,-0.0288397052
94431.523800,0.868214413,2.03691391,2.09380846,0.0310389389,0.153011801,-0.0659431383
94431.533828,0.424908482,3.39755175e-05,0.510327559,-0.0317754477,-0.0223410986,-0.0331684068
94431.543856,-0.835799362,-0.515720323,-1.66619289,0.0487441615,-0.0639141108,0.011938617
94431.553883,-0.0569621576,0.0398501202,-0.365654481,-0.0483560219,0.00359222999,-0.0359817721
94431.563910,-0.0896600929,0.541715212,0.681370939,-0.047465726,0.0158686043,-0.0275374182
94431.573937,0.282830938,0.265482917,0.476483741,0.236735639,0.2170603,-0.0467201673
94431.583964,1.03003031,0.195919698,-0.606887834,-0.039555873,-0.0810954924,-0.0570950486
94431.593992,-0.582759471,-1.36117414,-2.31572823,-0.270057517,-0.112300282,0.0429077171
94431.604019,1.08459609,-1.35573516,0.472046636,0.125837085,-0.175580991,0.0019685406
94431.614045,-1.27766065,2.12280984,-1.42617768,0.190693569,-0.152423216,-0.00656209665
94431.624073,-0.339445439,-0.27868391,1.83255641,-0.0893343419,0.13386208,0.0460294768
94431.634100,0.208101349,-1.2763188,3.63734197,-0.101722035,0.225644456,0.0584073163
94431.644128,-1.3068166,1.97253336,-1.42318142,0.287170035,-0.0103555433,-0.0288375743
94431.654155,0.452303635,0.680069315,-2.08762148,-0.114089224,-0.0971016268,0.0442108013
94431.664182,1.24101466,-2.39705959,1.5740516,-0.151324484,0.104954535,0.0560131319
94431.674210,0.848237136,0.960305622,0.0720056997,0.211851326,0.000826537219,-0.0375461109
94431.684237,-0.997503544,1.96360975,-3.14754145,0.00199210488,-0.133276416,-0.0381959245
94431.694264,-0.32054865,-2.28469154,-0.350188616,-0.0115929462,-0.148652701,0.118563859
94431.704291,0.414835124,-1.9266466,0.936279181,-0.0763426453,-0.0445547904,0.0780731573
94431.714318,0.132403792,1.06210639,1.59504879,0.0194784206,-0.0763241704,0.0103154205
94431.724345,-0.883984863,1.18278028,1.04796319,0.154969659,0.0720794146,0.0238647856
94431.734373,0.00571159464,-0.364742301,1.81460749,-0.0204761859,0.446002157,-0.00606062321
94431.744400,0.696655923,-0.368283919,0.518497421,-0.0523869835,-0.0289057921,-0.0528941766
94431.754427,-0.472057966,-0.986436495,-4.31043139,-0.0509177178,-0.321936844,0.0765506312
94431.764455,0.27663318,-1.53089211,-1.21955796,0.0484698572,-0.236772714,0.10563661
94431.774482,0.560996722,0.373474834,2.54601915,-0.033659368,0.107177476,0.0226091038
94431.784509,0.00161409619,0.841964343,3.11509446,0.0325670585,0.31141636,-0.0326709278
94431.794536,0.0636021311,0.716972009,-0.0291750394,0.0312855438,0.114561888,-0.0232113801
94431.804564,0.740232176,-1.02340809,-2.25234209,-0.00502851994,-0.156413419,0.0422600381
94431.814591,1.18592741,-1.42915637,-1.47114086,-0.0267255597,0.152955877,0.0563287198
94431.824618,1.76500156,0.0330295718,0.742885438,-0.0332415171,0.086133713,-0.0239338964
94431.834644,0.46738335,0.620104676,-2.57139226,-0.0448483705,-0.377189455,-0.0405099444
94431.844672,-0.112283501,-1.50605242,-2.55739354,-0.0694328055,-0.395015595,0.110093145
94431.854699,0.287470581,-0.927552125,2.58954148,-0.0790814414,-0.157878695,0.0962420389
94431.864726,-0.490528347,1.36644816,4.29034294,-0.0081454843,0.193632739,0.0290076159
94431.874753,0.0538491642,1.99055738,3.70358876,0.122563799,0.398942234,-0.101404713
94431.884780,-0.408569464,0.292387656,0.799418057,0.023087804,0.362129899,0.000560260729
94431.894808,0.926486131,-2.15003363,-1.803213,-0.132037345,0.049957065,0.0658588394
94431.904835,2.11697288,-0.423361115,-3.06897177,-0.0981395498,-0.235311164,0.0248123374
94431.914862,0.113508026,1.87205682,-2.88188444,0.0167215176,-0.148016481,-0.00545981491
94431.924890,0.128429846,1.8003997,0.386197906,0.194056344,-0.150267912,-0.0348459311
94431.934917,-0.305537982,0.0144263087,1.03032408,-0.0568254061,0.132051395,-0.000159324727
94431.944944,0.908184824,-1.41504177,3.07834616,-0.148347068,0.260980638,0.0166494831
94431.954971,0.357695479,0.673756552,-0.308107716,0.037485116,-0.132474808,-0.041811166
94431.964999,-0.297946139,1.1894127,-3.00449141,0.0325082027,-0.0790896024,0.00971487758
94431.975026,1.18612937,0.172996284,1.07806432,0.0126066653,0.0611314234,-0.0448125467
94431.985053,-0.06842602,0.567167122,0.608590949,0.00875999576,0.0282754731,-0.0192086507
94431.995080,-0.604320365,-0.524770548,-1.13781666,0.0302122914,-0.15484616,-0.0161308345
94432.005108,-0.454252407,-0.550248944,-0.48679372,-0.0673552781,0.0135231578,0.046595665
94432.015135,1.16548478,-0.516882352,2.14412586,0.119520333,0.278057339,0.014725881
94432.025162,1.05359911,1.20428674,-0.0955720499,0.0432402089,-0.0494395624,-0.0599448957
94432.035189,-0.981759228,-0.211710597,-3.44790212,-0.10536817,-0.347639559,0.0238653183
94432.045217,-0.598103171,-1.8393335,-0.559136487,0.0505639024,-0.130855067,0.123125328
94432.055244,0.345697071,0.370483799,2.83395697,0.0179835882,0.198427485,0.00902112422
94432.065271,0.737493618,1.57372342,2.00866058,-0.0325743958,0.151851462,-0.0884835884
94432.075298,-0.458469294,0.448225722,-0.861308585,-0.0194652501,-0.149794398,-0.0193700377
94432.085326,-0.359832248,-1.17510438,-1.38329014,0.0161007334,-0.0629468466,0.0929650202
94432.095353,1.69944495,-0.170812094,1.82230389,0.167610359,0.266411336,0.00203591853
94432.105380,1.56557146,0.962693394,0.866474408,-0.035147275,0.169524999,-0.0755427644
94432.115407,0.00391258239,-0.814663412,-2.63700951,-0.0666479423,-0.300085096,0.00767383061
94432.125435,0.468618591,-1.46972584,-3.03439672,-0.00438030686,-0.2732186,0.137363119
94432.135462,2.36547724,-0.511005459,2.23987464,-0.0506894842,0.0273391046,0.0520338364
94432.145489,1.03194301,2.0945805,3.03249217,0.0610695377,0.146533938,-0.139331596
94432.155516,-0.0151844784,1.60693903,-0.206911779,0.142449078,-0.00372879991,-0.0583070494
94432.165544,1.03853971,-2.05705928,-0.376368767,-0.105568971,-0.00298817495,0.0321227148
94432.175571,2.48360912,-1.93221973,1.52220334,-0.130106288,0.0174625051,0.019567775
94432.185598,0.956785189,1.32201982,0.0711417763,0.000587021189,0.0243355912,-0.0836867109
94432.195626,0.832234461,1.95748017,-0.259238764,0.284659755,0.119716438,-0.0960983649
94432.205653,2.08923717,-1.09316164,-0.379726845,-0.0446710057,0.00289501444,-0.0424295493
94432.215680,0.873113437,-3.10443994,-0.627905487,-0.308224606,-0.13076639,0.0705864861
94432.225707,0.950648586,-0.977048269,-0.662909581,0.113068824,-0.135584308,0.00520294986
94432.235735,1.33243403,2.30845312,-0.0525401329,0.104765621,-0.000629412982,-0.0725054309
94432.245762,0.0546460867,-0.596295606,2.13790596,-0.101923908,0.102807494,0.0363547414
94432.255789,0.736672657,-1.93159473,1.302903,0.0434572555,0.113599958,0.0142129561
94432.265816,1.35879275,-0.0130789625,-0.547730711,-0.00458190792,-0.0304136741,0.0310955331
94432.275844,-0.349989411,-1.25362108,-0.827125745,-0.267595696,-0.0189682058,0.0783930108
94432.285871,0.796797456,0.688861036,0.0321676103,0.123463143,0.0102256314,0.0191544503
94432.295898,1.84514346,2.78689393,-0.394080949,0.11600097,0.0327754152,-0.0968427226
94432.305925,0.297096999,-0.340287512,0.164100631,-0.123554635,-0.0620512272,-0.00318334403
94432.315953,-0.88218775,-1.72553819,-0.314630396,0.00967239479,-0.0746956523,0.0487677365
94432.325980,0.62436664,0.461686494,0.48826478,0.0749539331,0.0779559408,-0.0331444383
94432.336007,1.30989749,0.311190264,1.9628136,-0.119982268,0.123588676,-0.0338821352
94432.346035,-0.291867769,-0.469145618,-0.118096016,0.0617523723,0.0319559594,-0.00672508275
94432.356062,-0.0498062944,-0.136943836,-1.90254607,0.0384318687,-0.00130585597,0.000221773402
94432.366089,1.36778343,-0.986043257,-0.399253383,-0.125325906,-0.0665634181,0.0390442706
94432.376116,0.159268345,-0.73769715,-0.300843863,-0.0692035064,-0.0984039064,0.0429561868
94432.386144,0.138072193,1.34705212,-0.0365423533,0.119789583,-0.043142518,-0.0214419771
94432.396171,0.330128477,1.27779124,1.03587528,-0.0366554215,0.0501032715,-0.0178714764
94432.406198,-0.858256986,-1.12089859,1.47747455,-0.00713641213,0.0713845958,0.036401084
94432.416226,-0.429432804,-0.141714348,-0.280049496,0.00679618104,0.136228295,0.000122171247
94432.426253,1.32842494,0.624408364,0.118919427,-0.0878504321,0.0457735044,-0.0129169315
94432.436280,0.997195671,0.425470687,-1.22275237,0.0506981246,-0.0695387031,0.0125516768
94432.446307,0.684320831,0.598201106,-1.7875408,0.0112750855,-0.089937983,0.000108588838
94432.456335,0.245978148,0.463013359,-0.0128107646,-0.0369880527,-0.0553448553,-0.0212433055
94432.466362,0.119702131,0.477289539,0.382908801,0.0759725914,-0.0713214259,-0.024119252
94432.476389,-0.271193303,0.0249318863,0.433254256,0.0144716779,0.0461202507,0.00692681398
94432.486417,0.859982226,-0.882786223,1.99962971,-0.0751162573,0.101285765,-0.00780126604
94432.496444,0.406491878,0.260115728,0.210694039,0.110726555,-0.00859136779,0.0126890031
94432.506471,-0.16226268,-0.0352738592,-1.36401261,-0.0517896518,-0.0105501226,0.0373448118
94432.516498,-0.0408650092,-0.219648459,-0.179463801,-0.000233248153,-0.0745597313,0.0112631464
94432.526526,0.797804295,0.744155126,0.0276352276,0.102744003,-0.0171768646,0.0117989745
94432.536553,1.03556069,-0.0339623816,1.17499909,0.0997221068,0.0426166934,0.0285923354
94432.546580,-0.499639216,-0.778511756,0.697696051,-0.0505584694,0.0179768597,0.0804435521
94432.556608,0.16304684,-0.558688892,0.288576321,-0.0132997811,0.195505561,0.0723874852
94432.566635,1.66502391,1.41424876,0.128467007,0.0499817178,0.169116305,-0.0220628526
94432.576662,1.07930507,1.93948303,-2.83561135,0.0640277609,-0.191925241,-0.0447596401
94432.586690,1.10859261,-0.577264157,-3.51822185,0.00561558625,-0.408248482,0.0307228643
94432.596717,0.147048914,-0.69608131,0.0428573466,-0.0109308997,-0.261696575,0.031493584
94432.606744,-0.50013343,0.652897158,3.20851392,0.0346775957,0.0996059422,-0.0455647126
94432.616771,0.130889515,1.25396569,3.9349396,0.0832414076,0.33378941,-0.122384654
94432.626799,0.454646472,0.0379511684,1.44756574,0.00102642698,0.208418699,-0.0807184369
94432.636826,0.775974156,-1.53279181,-1.64950654,-0.0120680688,-0.0905658583,-0.038339296
94432.646853,0.517520423,-1.27052707,-2.32347256,-0.0400464415,-0.110110802,0.0104591384
94432.656881,0.0164453893,-0.282000743,0.0843946411,0.0363093175,0.061354695,-0.0177432053
94432.666908,1.96715831,0.623167571,1.24087178,0.0673106432,0.0709873457,-0.0758397967
94432.676935,1.41270481,-0.40068678,0.147581457,0.0052845551,-0.0261969919,-0.0201309953
94432.686963,0.385465895,-1.92117928,-0.635074648,-0.110318209,-0.070573246,0.0493673891
94432.696990,0.408046195,-0.310064461,0.0809073835,0.0160421271,0.056759676,-0.0201645509
94432.707017,0.985515097,1.82993851,0.271784176,0.0901419193,0.056890173,-0.0788877845
94432.717044,1.60129568,-0.13172939,-0.460625259,0.0192815967,-0.0780016015,-0.00716912339
94432.727072,0.929987125,-2.05923794,-0.701962657,-0.0689206972,-0.104643864,0.0576037451
94432.737099,0.427268416,-0.730487438,0.296868933,-0.0695497423,-0.0499278884,0.0126274846
94432.747126,0.447651937,1.25128581,0.996786549,0.0304804545,0.013936312,-0.0393949688
94432.757154,0.658755889,0.977075117,1.0345414,0.0621811271,0.0496354532,-0.0316438392
94432.767181,0.53162647,-0.499493666,0.820560798,-0.013694728,0.0963843186,0.014195287
94432.777208,1.19771678,-0.799323585,0.649242109,-0.0830980345,0.142631428,-0.00526949076
94432.787236,1.7356666,0.545288358,-0.578230479,0.00575353794,-0.0194573309,-0.0411963329
94432.797263,1.36177805,0.70969968,-2.33000926,0.0388731405,-0.161203025,-0.00305400754
94432.807290,1.05537606,-0.396530939,-0.879466757,-0.0274393029,-0.0931765567,-0.00191177765
94432.817318,1.06251007,0.0375451038,1.40786034,-0.0161626797,-0.015931839,-0.0164350603
94432.827345,0.610767154,0.308416233,1.28273758,0.0532329053,0.0456673448,-0.00364070164
94432.837372,0.864925382,-0.171296626,1.02394285,0.0420944996,0.0937435274,-0.00430489389
94432.847400,1.38203436,-0.654218875,0.650332242,-0.0477333881,0.0603581388,-0.00200738536
94432.857427,1.10202061,-0.636324176,-0.55753665,0.0129752325,-0.00627415107,-0.0154086776
94432.867454,1.01516797,-0.35879848,-1.1650811,0.0148748651,-0.0441552195,-0.00811055081
94432.877481,1.04825103,-0.949323154,-0.554698212,-0.0319861166,-0.0652173589,0.016719431
94432.887509,0.940092632,-0.994783394,0.253560537,-0.0445248142,-0.0198533441,0.0358763471
94432.897536,0.784859546,-0.262153174,0.774311673,-0.000633787583,0.0131325695,0.0158842638
94432.907563,0.930204932,0.319485105,0.568281735,-0.0170859985,0.0344724786,0.0235163517
94432.917591,0.937351151,-0.129673498,0.47484065,-0.0160249948,0.00214916103,0.032739146
94432.927618,0.994212271,0.161081901,-0.0820041278,0.0358999864,0.0124449414,0.0142253808
94432.937645,1.30579196,0.143181585,0.152586718,-0.0493640445,0.0222621505,0.0194808639
94432.947673,1.00639751,-0.241728189,0.204972739,-0.0580257095,0.00909947891,0.0132189723
94432.957700,1.25757781,0.78288014,-0.339207203,0.0126766915,0.00857510239,-0.0241129544
94432.967727,1.39966763,1.05361848,-0.339989294,0.0164943327,-0.0378363374,-0.0147924215
94432.977755,1.08246039,-0.115730514,-0.229773015,-0.0383769043,-0.0510687846,0.00900238881
94432.987782,0.876674199,0.159836011,0.36864939,-0.0129549021,-0.00671330646,-0.00339915289
94432.997809,0.911284616,0.934705244,0.750210082,0.0334341683,0.0324173179,-0.0066982765
94433.007837,0.852165488,0.493896426,0.544682248,0.0239218891,0.0273751561,-0.00100656936
94433.017864,0.62076109,-0.101464481,0.0957232599,0.0070696723,0.00823741321,0.00596292352
94433.027891,0.407021235,-0.156564026,-0.136306211,0.00568296418,0.00675483149,-0.00122201873
94433.037919,0.443890173,0.0327044817,-0.111264125,0.0132639192,0.00457743097,-0.0124464441
94433.047946,0.390109775,-0.0597834534,-0.190835089,0.0140101368,-0.0183864738,-0.0155032199
94433.057973,0.193066789,-0.327165361,-0.208153888,0.0150056256,-0.0181968565,-0.0168835368
94433.068001,0.120239453,-0.495082206,0.123507339,0.0106883755,0.00172891406,-0.0223089285
94433.078028,0.0115277336,-0.612618672,0.279904354,0.00317027171,0.0176615399,-0.0224279721
94433.088055,-0.0428585942,-0.748968047,0.0939013052,-0.00432146683,0.00974103443,-0.0146760415
94433.098083,-0.0616239388,-0.845403126,-0.1003587,-0.0213582415,-0.00532393522,-0.00147608446
94433.108110,-0.0852019444,-0.783148549,-0.154108995,-0.0275466285,-0.0143565786,0.00938055793
94433.118137,-0.203935511,-0.478329517,-0.0913734292,-0.0322401851,-0.0149161098,0.0185061455
94433.128165,-0.280721959,-0.193161106,0.0535879995,-0.0316036857,-0.00297023348,0.0281297438
94433.138192,-0.257147899,0.188874328,0.178357119,-0.0174764182,0.0103133471,0.0230087511
94433.148219,-0.206992779,0.540794737,0.163965606,0.0044222235,0.020365717,0.0159130268
94433.158247,-0.0715590574,0.449668614,0.0920623993,-0.0151951529,0.0188786072,0.0183277152
94433.168274,0.0382167108,0.28840845,-0.00219000186,-0.0150388257,0.00907178138,0.012715368
94433.178301,0.0983910474,0.569752097,-0.186932237,-0.0208940517,0.00845312894,0.00100651419
94433.188329,0.121660572,0.777456726,-0.16402307,6.23627122e-05,-0.0115237747,-0.0130304747
94433.198356,0.130176836,0.841777515,-0.204301305,0.026806359,-0.00835487891,-0.0253135074
94433.208383,0.200621734,0.481658949,0.156278559,0.020326088,0.0148559009,-0.0217752304
94433.218411,0.0989118564,-0.083845781,0.320650206,0.00498601499,0.0240515304,-0.0170989853
94433.228438,0.0858629166,-0.324385521,0.041772474,0.0105296511,0.0183015001,-0.00914012978
94433.238465,0.161714642,-0.417679599,-0.277924175,0.00248131186,-0.00619478889,0.00330162642
94433.248493,0.189802234,-0.594525856,-0.374248122,-0.00215152318,-0.0260081756,0.012687405
94433.258520,0.0850472164,-0.531934558,-0.241553469,-0.0167954482,-0.0229101199,0.0182683266
94433.268547,-0.0405802009,-0.336854432,0.0172663938,-0.0230429575,-0.0214179511,0.0194441102
94433.278575,-0.0487985787,-0.000812300298,0.145675332,0.00426989079,-0.00850774433,0.0127406683
94433.288602,0.0806420402,0.168676703,0.322658623,0.013074302,0.0115455921,0.00990386901
94433.298630,0.143539737,-0.127409608,0.408492155,-0.0137823459,0.0267799404,0.0183101374
94433.308657,0.229085758,-0.207585133,0.214284757,-0.0131447857,0.0237383415,0.00891290733
94433.318684,0.421743369,0.245078829,-0.119713388,0.014344097,0.00195874491,0.00139720028
94433.328712,0.475330071,0.164851519,-0.318022961,0.00954135212,-0.0184645037,0.00514453405
94433.338739,0.455351551,-0.173163406,-0.0772490422,-0.0112526092,-0.0085418326,0.0106327761
94433.348766,0.4052212,-0.0440915203,0.202593735,-0.00862327048,0.00408900723,0.0068811815
94433.358794,0.386125455,0.224136871,0.1727574,0.00452395652,0.00585974341,0.00280787645
94433.368821,0.513754202,0.245678987,0.112366352,0.00837808366,0.00986939863,0.00164274348
94433.378848,0.614747675,0.0708603262,0.127359923,0.00653357788,0.00831357956,0.00412214676
94433.388876,0.579085556,-0.136432544,0.0241701818,-0.00138213583,0.00543843124,0.00609235314
94433.398903,0.648918824,-0.21647109,-0.0430352225,-0.0139983279,0.000200259633,0.00755096635
94433.408930,0.727880644,-0.0564991527,-0.000805269504,-0.000780527757,-0.00760466691,0.000767629014
94433.418958,0.760131567,0.176750412,-0.021980744,0.00570480183,-0.00726937495,0.000236328111
94433.428985,0.768412342,-0.00787216481,0.140580054,-0.00395927687,-0.00269832501,0.0023655257
94433.439013,0.748577688,-0.0825386074,0.26219451,-0.00199199973,0.00768374287,0.00332080142
94433.449040,0.730693948,-0.00483234959,0.198773885,0.0022336378,0.014363749,-0.00108859467
94433.459067,0.783027508,-0.0292411526,0.0627661622,0.00350636274,0.0082129129,-0.000698974004
94433.469095,0.837053917,-0.173157926,-0.0912115166,-0.001447117,-0.00808802985,0.00333811192
94433.479122,0.848803099,-0.260448124,-0.107562347,-0.00668715283,-0.0117815686,0.00572590193
94433.489149,0.889254644,-0.190466898,0.0545851938,-0.00323010345,-0.00613273719,0.00309283461
94433.499177,0.902540973,-0.0589387279,0.172079354,0.00415164728,-0.00126802867,0.0033530792
94433.509204,0.935958674,-0.106966905,0.197207366,-0.00607382569,0.00417121135,0.00656272134
94433.519231,0.976053003,-0.140703198,0.191623428,-0.00888692231,0.00280527615,0.00674514787
94433.529259,0.97671607,0.00619722684,0.0720559686,-0.00557155364,-0.0035815166,0.00692038366
94433.539286,0.989105084,0.0844427335,0.0500913895,-0.00406447069,-0.00479831539,0.00614939851
94433.549314,1.01028538,0.195519867,0.0977018665,0.00302672836,-0.00328990041,0.00199619902
94433.559341,0.982376068,0.213336624,0.126438132,0.00394631766,0.000872886466,-0.00176232087
94433.569368,0.971156536,0.128948815,0.192843325,0.00514980017,0.00266918874,-0.00506197719
94433.579396,0.946071487,0.0769290882,0.138477529,0.0120567082,0.00275174676,-0.0089051841
94433.589423,0.905622718,-0.0741556091,0.0682711893,0.00869739691,7.02097491e-05,-0.00747480115
94433.599450,0.875255856,-0.290780718,0.0814375449,0.00657166199,-0.000562024692,-0.0028326452
94433.609478,0.763115186,-0.383124162,0.0627936347,-0.0133929915,-0.0140219069,-0.000697854555
94433.619505,0.191711282,-0.250182312,-0.0706936292,0.00474127133,-0.00790702358,0.00276958093
94433.629533,0.308063068,-0.147975344,0.0808670515,-0.00973833555,0.00741281089,0.00383990526
94433.639560,0.263944963,-0.133770129,0.202181063,-0.00667703168,-0.00306832573,0.00288223231
94433.649587,0.174077572,0.0445818021,-0.0611232523,-0.00182182265,-0.00603189126,0.00185425242
94433.659615,0.165562257,0.148082536,0.0521231876,-0.00642403138,0.00861229848,-0.00153062551
94433.669642,0.138541637,0.201174294,0.0848195886,0.00532370464,0.000325873221,-0.00578129722
94433.679669,0.0764785638,0.185032959,-0.147068428,0.00292552805,-0.00809637356,-0.00464838801
94433.689697,0.103630775,0.000768055096,-0.0047063686,0.000103110112,-0.00373038758,-0.00267365447
94433.699724,0.00962014638,0.0293470838,0.0644361412,0.00987637865,0.000400708017,-0.00569181482
94433.709752,0.00774025092,-0.0244727463,0.0341842108,-0.00992502288,0.00269848349,8.24512704e-05
94433.719779,-0.00378958949,-0.126368648,0.0632004619,-0.00416380649,-0.00116043693,-0.000416891298
94433.729806,-0.00699854159,0.155242765,-0.0490201421,0.0109075548,-0.00123686964,-0.00727612956
94433.739834,-0.0312766583,0.102983969,-0.0379551427,0.00153562434,0.000468884962,-0.00257351959
94433.749861,-0.0783140115,-0.138894331,0.0211487882,-0.00665679171,-0.000906105077,-0.000210496245
94433.759888,-0.0814157039,-0.0179105063,-0.0291236015,0.00317746315,2.29910394e-06,-0.00386275595
94433.769916,-0.0814792706,0.0519597607,-0.0413874553,0.00655728097,-0.00302331817,-0.00290454982
94433.779943,-0.0768398473,-0.0954227531,-0.0162167736,0.000856252052,-0.00403398757,0.00105557067
94433.789971,-0.0587477258,-0.151242648,0.0378187679,-0.0064618482,0.0017954056,-0.000345252103
94433.799998,-0.0970000804,-0.0271683329,0.0348008814,-0.000430321045,0.00297571843,-0.00250507577
94433.810025,-0.103558635,0.0717726279,-0.0353925988,0.00095851744,-0.000691188074,-0.00146804156
94433.820053,-0.087111139,0.0348818942,-0.0507900744,-0.00123486195,-0.00160411971,-0.0011969317
94433.830080,-0.103715579,0.0309565283,-0.0304212401,-0.00273795023,-0.00183395033,-0.00227311498
94433.840108,-0.131785709,0.0693901623,-0.00288032221,-0.00134005693,-0.000735662802,-0.00144034403
94433.850135,-0.124727899,0.110926032,0.000697536274,0.00285495429,0.00100710984,-0.000805712885
94433.860162,-0.114208478,0.13400776,-0.0320707609,0.00548455941,-0.000627272104,-0.000786537884
94433.870190,-0.096745448,0.0333355005,-0.0194906808,-6.8131122e-05,0.000184459338,0.000184184292
94433.880217,-0.0733535396,0.00927217274,0.013867399,-0.000580789624,0.00104652458,-0.00176205451
94433.890245,-0.0541255459,0.0742393103,-0.0239839005,0.00560546697,-0.00339482927,-0.00290987605
94433.900272,-0.0604137593,0.0149534789,-0.0299553761,0.00397508017,-0.00134126555,-0.00531630928
94433.910299,-0.0575045208,-0.0472242425,0.0114837187,0.000891139512,0.00336613793,-0.00659143051
94433.920327,-0.0577111493,-0.047148241,0.0114609224,0.000619763406,0.00127928479,-0.00353225751
94433.930354,-0.0766387718,-0.078861161,-0.0163962219,-0.00227509269,0.00242231375,-0.00279163255
94433.940382,-0.0318319541,-0.0620868075,-0.0173010618,-0.00636118061,0.000356765889,0.00205425581
94433.950409,-0.00494548152,0.0265800349,-0.026866178,0.00328931615,-0.00225073511,-0.00424518587
94433.960436,0.00496793666,0.115272035,-0.0385197909,0.00703478588,-0.000191579031,-0.00614961202
94433.970464,0.00312895773,0.0177218933,0.0150609927,-0.00128892418,-0.00230746057,-0.00533548335
94433.980491,0.0621715869,-0.0147998041,0.0676942662,0.00394125779,0.00678190783,-0.00765296689
94433.990519,0.0689443689,0.0235415531,0.0345606429,0.000206174459,0.00465457522,-0.00625960028
94434.000546,0.130155574,-0.047931208,-0.0256088714,0.00215374406,-0.0018872136,-0.00350402819
94434.010573,0.193275536,-0.0591819986,-0.046079997,-0.000882259498,-0.00500471044,0.0011762114
94434.020601,0.16302061,-0.0572406005,-0.0080416505,-0.00453398579,-0.000993723207,0.00459837343
94434.030628,0.159440925,0.0231419365,0.038181756,-0.0017176931,0.00328970522,0.00471315568
94434.040656,0.186429469,0.112479472,0.0404187213,-0.00786480137,-0.00392027075,0.00272537244
94434.050683,0.0603228172,0.237648222,-0.035211397,0.00682998852,-0.0092284837,-0.00512136577
94434.060710,-0.0461333781,0.303711051,0.00177071846,0.0159896657,0.00503434155,-0.0115779327
94434.070738,-0.0988721578,0.126199479,0.131542761,0.00998503512,0.0134525942,-0.0135912826
94434.080765,-0.0695464024,-0.164620601,0.0584196574,0.00478308306,0.000320014212,-0.00814538507
94434.090793,-0.157582998,-0.268258304,-0.181241332,0.000925494255,-0.00973901145,-0.00356448127
94434.100820,-0.109888496,-0.248491126,-0.0994620431,-0.000594371741,-0.00543374561,0.00392699044
94434.110847,-0.164980999,-0.228393802,0.01999728,-0.0081521563,-0.000940992537,0.00773824041
94434.120875,-0.221012537,-0.0976976666,0.039328588,-0.00214273359,-0.00191597586,0.00925570948
94434.130902,-0.270543753,0.0247763647,0.0104327483,-0.00241943605,0.00242870518,0.00807086879
94434.140930,-0.273586774,0.0920976322,0.0380952468,-0.00418085062,0.00184786979,0.00450862514
94434.150957,-0.286454,0.154980278,-0.0218036339,-0.0151645263,0.00802027814,-0.00214528257
94434.160985,-0.151786952,0.315135896,-0.033195381,0.0262556177,-0.00274954519,-0.0114016315
94434.171012,-0.0301042535,0.259466141,-0.137648858,0.00727287198,-0.00187522934,-0.00813659711
94434.181039,-0.0190405693,-0.252005582,0.0839813842,-0.0100579142,-0.00119745491,0.00529399084
94434.191067,-0.061581561,-0.213050358,0.00764867059,-0.00539631739,0.00436935069,0.00321619294
94434.201094,0.0938181134,0.0741718071,-0.00391200335,-0.00727198196,-0.00029490962,0.00478559348
94434.211122,0.0651076403,0.104309811,-0.0324407632,0.00449359727,-0.00776933778,0.00193361461
94434.221149,0.00476912615,0.161373121,-0.0599308277,0.0019380281,0.00391155303,0.000433455573
94434.231176,0.0749697667,0.0734692027,0.175969348,-0.0049606242,0.00775529359,-0.00255860539
94434.241204,0.0804888224,0.101979504,0.0346915758,0.0153230753,-0.00428112868,-0.00941997452
94434.251231,0.0732039992,0.0926325428,-0.112374132,0.0209945429,-0.00108853161,-0.00978669023
94434.261259,0.105426207,-0.306882945,0.0665597092,-0.000482252669,0.00420157153,-0.00304516463
94434.271286,0.0499213963,-0.537028082,0.0575528114,-0.00993700714,0.000438524894,0.0051403268
94434.281314,0.0646601158,-0.330477847,-0.0755965989,-0.00587195826,-0.00377006844,0.00489558222
94434.291341,0.109834744,-0.112028481,-0.0584876431,-0.00738117161,-0.00471469194,0.0077065489
94434.301368,0.0604474665,-0.0324509449,0.0292368175,-0.0129114922,-0.00265766626,0.00523460272
94434.311396,0.00195969476,0.180076853,0.0445074519,-0.00717743968,0.0007101673,0.000802570374
94434.321423,-0.00973578454,0.351107118,0.0238387579,0.00415164728,0.000859837007,-0.00295009056
94434.331451,0.000392226244,0.33390884,-0.00115832073,0.00468294819,-0.00127255606,-0.00433520006
94434.341478,-0.00733749123,0.178859002,0.0142578596,0.00415644127,-0.000252565409,-0.00161344989
94434.351506,0.00487587446,0.0805303732,0.0401211996,0.00389518526,0.00149393567,-0.00169227889
94434.361533,0.0186141116,0.0369049884,-0.0218334445,0.00426669589,-0.0016896072,-0.000194251186
94434.371560,0.0344325891,-0.022960716,-0.0412769806,0.00453168045,-0.000795051263,-0.00203795789
94434.381588,0.0314797307,-0.0927139782,-0.00670894059,0.00409971581,-0.000936731504,-0.00293570908
94434.391615,0.0140473152,-0.155837757,-0.0150652655,0.00310262835,-0.00293143901,-0.000828349611
94434.401643,0.013649475,-0.209831688,0.0189235133,0.000367561951,-0.0019095842,0.00165664579
94434.411670,0.00673304664,-0.192164076,0.041666091,-0.00413531081,0.000525343948,0.00264760794
94434.421698,-0.0107535833,-0.135948213,0.0144378923,-0.00871648004,-0.0013577772,0.00461355353
94434.431725,0.00741949453,-0.0299558676,-0.000814037332,-0.00788876989,0.000704574707,0.00365934277
94434.441752,0.0138333071,0.110861589,0.00412400359,-0.000864682647,-0.000486390938,0.000674737969
94434.451780,0.0148554167,0.180410633,-0.018308193,0.000757981455,-0.00121583083,-0.000157232976
94434.461807,0.0363390804,0.188252177,0.00728918962,0.000722561395,-0.000458694104,-0.00237857608
94434.471835,0.0255840237,0.159548152,0.0183635413,0.00112842706,5.98234069e-05,-0.000574283882
94434.481862,0.0349642118,0.115149294,0.000400014633,0.0046248914,-1.98050807e-05,-0.00251839182
94434.491890,0.0140089559,0.046271116,0.00982426106,0.00454579557,0.000214020448,-0.0023333017
94434.501917,-0.00318234431,-0.032437679,-0.019804569,0.00331385534,-0.000453391153,-0.00187701138
94434.511944,0.0114315067,-0.0985104991,-0.0100687724,0.00422918408,-0.00189336242,-0.00126981048
94434.521972,-0.00792274377,-0.137053069,0.0104415162,0.000412874054,-0.000702130416,-0.00127114227
94434.531999,0.000590671425,-0.16722629,0.027648087,-0.00228517449,-0.00112850258,0.00108841888
94434.542027,-0.00281153823,-0.129648693,0.0249440888,-0.0044497919,0.00184198733,0.000618370601
94434.552054,0.00829372008,-0.0609141059,0.0132612498,-0.00594435741,0.000179908489,0.00198883366
94434.562082,0.0184625743,0.0121768584,-0.00918263723,-0.00190061393,-0.00268751701,0.000736348683
94434.572109,0.0352596876,0.0914053756,-0.0139494132,-0.00174109072,-0.00257779487,0.000348059812
94434.582137,0.0264615372,0.125328779,0.0143361855,-0.00106491397,0.000639570138,-0.00039283151
94434.592164,0.0142676069,0.162261247,0.0321348771,0.00197907894,-0.000115169718,-0.000594698472
94434.602192,0.0196069951,0.133279209,0.00895098536,0.00148133429,-0.000202521373,-0.00184798206
94434.612219,0.00890702968,0.0890710326,0.00819286047,0.00521428727,-2.70191053e-05,0.000222625562
94434.622246,0.0100391024,0.0355985409,0.0168619046,0.00345340518,0.0015857912,-0.0019052407
94434.632274,0.00542605569,-0.0559237823,0.0021828064,0.00208773588,-0.0010970772,-0.00108551944
94434.642301,0.00585049165,-0.104778629,-0.0256369284,0.00240838069,-0.00252985784,-0.00119311141
94434.652329,0.0031065267,-0.139668494,-0.00331403745,0.000350023401,-0.00282360443,0.000198390686
94434.662356,0.00272242276,-0.116737773,0.0222815916,-0.00256294214,0.000448887778,0.00016829686
94434.672384,0.00242336675,-0.08213568,0.0328918329,-0.00321594921,0.00123372134,0.000744338499
94434.682411,0.0155336813,-0.036093183,0.00984296576,-0.0043390041,-0.000608387211,0.00201679662
94434.692439,0.0186095816,0.0443641362,-2.25946936e-05,-0.00180500645,0.000558876334,0.00225168781
94434.702466,0.0101190358,0.0965158139,0.00387265918,-0.00133202916,0.000171652722,0.000491604561
94434.712493,0.0296991309,0.107660327,0.0107542354,-0.00105798982,-0.00154768412,0.000305183583
94434.722521,0.0150304079,0.110013922,0.0153918321,0.00136948151,-0.00031144467,-0.00139497837
94434.732548,0.0201151638,0.100546156,-0.000920420316,0.00250931441,0.00114344021,-0.00124983641
94434.742576,0.0277376215,0.0448770039,-0.00183695064,0.00436101046,0.000436104619,-0.00118405616
94434.752603,0.00745244695,-0.00174471318,-0.021434216,0.00493412263,-0.00252825992,-0.00149484689
94434.762631,0.0185370278,-0.0705065759,-0.021567487,0.00132074564,-0.00182784853,2.71493359e-05
94434.772658,0.0144789115,-0.0740743377,0.0163042707,0.00266750606,-0.000979365472,-0.00113425555
94434.782686,-0.0122303778,-0.120025763,0.0158635412,-0.00199728661,-0.000721305184,0.00161172997
94434.792713,0.00426957913,-0.110296543,0.0457969072,-0.00125719425,0.00045394777,0.0012660519
94434.802741,0.0166334592,-0.021457344,0.0146500738,-0.00164415156,0.00314640355,0.00292546756
94434.812768,0.0157779384,0.00566080014,0.000258560335,-0.003293181,0.000915739878,0.000786416584
94434.822796,0.0162797504,0.0366558497,-0.0207000565,-0.0023392366,-0.00227126495,0.000928629541
94434.832823,0.0230276172,0.071358485,-0.0322034473,-0.000929359158,-0.00284011608,0.000221293771
94434.842850,0.0101908589,0.0859089975,-0.00779264417,-0.000786880017,-0.000796139979,0.000449260117
94434.852878,0.00925993477,0.0880055771,0.0332045521,-5.13149287e-05,0.00120708971,0.0013515394
94434.862905,0.0169482242,0.0736941249,0.0201907568,0.00366912091,-0.00634829786,-0.000871667287
94434.872933,0.0389540121,0.0345567768,-0.00248869255,0.00295858977,-0.00769079748,0.000117696242
94434.882960,-0.010994114,-0.0302379588,0.0945957172,0.00364382107,0.0113129877,-0.00152121263
94434.892988,-0.0217792005,-0.00902805228,0.103123307,0.00403211017,0.0124336454,-0.00222402124
94434.903015,-0.0149950933,-0.100209759,-0.100909319,-0.00461677199,0.000168190588,0.00265462406
94434.913043,0.0623613373,-0.136255023,-0.204242268,-0.00174934643,-0.0121886105,0.000112902725
94434.923070,0.0471686635,-0.0143724592,-0.159644417,-0.000434810107,-0.015207569,0.00124634418
94434.933098,0.0222126476,-0.0603075412,0.0561031972,-0.00514301255,-0.00605029046,0.00248711126
94434.943125,0.00454459668,0.0186121658,0.23043159,-0.00306761118,0.00379701385,0.00294757157
94434.953153,-0.0091011399,0.0757616519,0.193669839,-0.000606584,0.0126283225,0.00081943942
94434.963180,0.0107440358,0.109397873,0.0645612289,-1.85580437e-05,0.00858298045,-0.00057605712
94434.973208,0.0277500426,0.0910433008,-0.100528211,-0.000233741463,-0.000375626882,0.000853261331
94434.983235,0.0331953024,0.0856729511,-0.146427208,0.00184379036,-0.00629077379,-0.00229752401
