t,ax,ay,az,gx,gy,gz
105628.007018,0.000941445569,0.00756106464,-0.169252989,0.062157914,0.109119684,0.00440227659
105628.017045,0.0650521718,-0.0748578735,-0.211098911,0.0996307135,0.105332136,0.0100138234
105628.027072,0.0180694348,-0.0255828609,-0.124853876,0.123956829,0.0998380333,0.0106974561
105628.037100,0.0352991673,-0.0779725897,0.00786883368,0.111614674,0.0869464725,0.0166956931
105628.047127,0.0375643723,-0.0537777035,0.0366524451,0.0996256545,0.0792656466,0.0187103748
105628.057154,0.0458668482,-0.0701629024,-0.0195201085,0.0863924101,0.0641993508,0.0241014138
105628.067182,0.0626449645,-0.0937184678,-0.127846628,0.0971640944,0.0535637513,0.0301430598
105628.077209,0.0348566477,-0.0177367962,-0.0390729502,0.0433666483,0.0329042785,0.0255299322
105628.087236,-0.06035236,0.185635275,0.331615635,-0.0153728323,0.0277361497,0.00861699507
105628.097263,-0.0866391862,0.208575932,0.380498616,-0.0803971067,0.0297074206,-0.00702960882
105628.107291,-0.0326265506,0.120380676,0.407167427,-0.126912683,0.0338198766,-0.0177485645
105628.117318,-0.0282674786,0.032541594,0.164341252,-0.111178987,0.0416804627,-0.0156579837
105628.127345,0.0595741787,-0.0756430965,-0.232242822,-0.0474567302,0.0378484391,-0.0164888911
105628.137373,0.0875011733,-0.140719206,-0.390120431,0.0100805964,0.0232218243,-0.0047992114
105628.147400,0.0291765563,-0.00394050865,-0.376514515,0.0623533912,0.00509342086,-0.00483090337
105628.157427,0.0299656973,0.00312009565,-0.376451971,0.0780468583,-0.0219219513,-0.0077739628
105628.167454,0.00470810463,0.089728704,-0.16942367,0.0662306845,-0.0421033837,-0.0159424096
105628.177482,0.00509293922,0.0829047946,0.0404910003,0.046189867,-0.0497562438,-0.0232847445
105628.187509,0.0129943965,0.0327432175,0.132286656,0.027761057,-0.0521512255,-0.0261018388
105628.197536,0.0462002814,-0.00746668262,0.235451847,0.00816365238,-0.0431175157,-0.0244892947
105628.207564,0.088582758,-0.147130224,0.276375393,-0.0138103552,-0.0389302298,-0.0113354074
105628.217591,0.130887822,-0.242086463,0.0780167211,-0.0134614818,-0.0393752418,0.00642761029
105628.227618,0.119751,-0.16460783,0.0599824673,-0.0115527939,-0.0362494923,0.0169489607
105628.237645,0.0463829445,-0.0632939938,0.196222829,-0.0388595164,-0.034532018,0.0210355818
105628.247673,0.00437883614,0.0542015184,0.255374691,-0.0643038899,-0.0296435207,0.0116607221
105628.257700,-0.048073674,0.206188014,0.309423092,-0.105210312,-0.0232753716,-0.00862404425
105628.267727,-0.0737870842,0.220101699,0.342779418,-0.141209319,-0.018955458,-0.0284480825
105628.277755,-0.0694278296,0.203823367,0.21021453,-0.13120915,-0.000168452738,-0.048469726
105628.287782,-0.0409491559,0.205756728,0.251257319,-0.091432184,0.0356473364,-0.0670418069
105628.297809,-0.0377316917,0.098899131,0.448399601,-0.0623256937,0.0870671123,-0.073408097
105628.307836,0.00661558221,0.0481912177,0.632651422,-0.0687473789,0.129909396,-0.0844114795
105628.317864,-0.0835190814,0.209694342,0.761566556,-0.10824845,0.174983129,-0.101740137
105628.327891,-0.0095841497,0.0390231745,0.746753018,-0.152959988,0.202778801,-0.10280513
105628.337918,0.0516911339,-0.0799193216,0.291370133,-0.169487029,0.208175704,-0.0983129144
105628.347945,0.071531743,-0.170309951,-0.103816933,-0.161291689,0.189797223,-0.0844357163
105628.357973,0.121601815,-0.221999258,-0.468286789,-0.179019555,0.136296719,-0.0688210651
105628.368000,0.0989569621,-0.204319627,-0.692255119,-0.166177794,0.0767098144,-0.0532892533
105628.378027,0.118910494,-0.192181975,-0.76480773,-0.16292581,0.00996221229,-0.0414925106
105628.388055,0.0701880003,-0.00818378138,-0.680920655,-0.146001682,-0.0336640924,-0.0452768654
105628.398082,-0.0573167187,0.139440437,-0.123465052,-0.167498454,-0.0509442799,-0.0608901791
105628.408109,-0.089226207,0.26781328,0.310059636,-0.160217911,-0.021183189,-0.0881367102
105628.418136,-0.123545168,0.257002767,0.618572628,-0.154039636,0.0402082652,-0.106722377
105628.428164,-0.0588782689,0.106680725,1.04597503,-0.111639716,0.135167807,-0.120078392
105628.438191,-0.0122886229,0.0120321274,0.839455267,-0.0239087958,0.217464268,-0.116656505
105628.448218,0.064268474,-0.0767878004,0.412580684,-0.0114491973,0.254335195,-0.117893539
105628.458245,-0.0236052224,0.0984666944,-0.00212882872,0.0353585221,0.266602516,-0.125500873
105628.468273,0.0113661743,0.0670216452,-0.0150134447,-0.0101775378,0.241451368,-0.136647001
105628.478300,-0.143420629,0.405297505,-0.0159539405,-0.0493374541,0.217218205,-0.176248193
105628.488327,-0.231698449,0.547958876,-0.00607610504,-0.150197491,0.165514261,-0.217973545
105628.498355,-0.180363947,0.474234007,0.0384942736,-0.294427276,0.100225724,-0.262635618
105628.508382,-0.197970258,0.493754006,0.0871814398,-0.366189331,0.0700979158,-0.298748612
105628.518409,-0.0290220233,0.191268312,0.0118862526,-0.38837719,0.0596767031,-0.310440958
105628.528436,0.0540369481,-0.104625509,0.0315928236,-0.377001226,0.0700369328,-0.305833429
105628.538464,0.0131052182,0.00408259314,0.0517307718,-0.306757957,0.0895437896,-0.309272617
105628.548491,-0.0179007271,0.0381218235,0.0324263518,-0.287221551,0.103069715,-0.315731317
105628.558518,-0.0401277017,0.109158038,0.186267837,-0.275317758,0.122075096,-0.329935551
105628.568545,-0.0106931339,0.0162212131,0.376408716,-0.258696705,0.157630429,-0.323772192
105628.578573,0.151986414,-0.329911023,0.250843477,-0.208506227,0.18522504,-0.294922978
105628.588600,0.243962559,-0.517018379,-0.197677704,-0.0874597058,0.206828341,-0.251336098
105628.598627,0.38007597,-0.728344524,-1.07057171,0.324227184,0.261170924,-0.184705108
105628.608654,0.584814224,-1.18660618,-1.87436881,0.563387871,0.237533525,-0.0782199502
105628.618682,0.460175343,-0.897037176,-0.805327372,0.682081759,0.211910442,-0.022210747
105628.628709,0.201811553,-0.285649747,-0.615469986,0.687205136,0.172016025,0.00777831022
105628.638736,0.0752825469,-0.037737683,0.218984696,0.527815461,0.128720492,0.00698841643
105628.648763,0.00643914794,0.110114681,0.811792184,0.279220015,0.086570099,0.00485682255
105628.658791,0.0860526459,-0.121136499,0.89672263,0.0680324212,0.0551269576,0.0208112877
105628.668818,0.184480113,-0.34014907,0.422221788,0.00531657413,0.046066884,0.0470586047
105628.678845,0.239758221,-0.391021727,0.00906768807,0.0564508624,0.0608836487,0.0795683488
105628.688872,0.184921153,-0.408204259,-0.344393283,0.156939119,0.0658749416,0.110985927
105628.698900,0.184079771,-0.270374107,-0.513847348,0.215729207,0.0463672876,0.128161713
105628.708927,-0.0102583957,0.0681777382,-0.344615986,0.232925758,0.0273477901,0.119581811
105628.718954,-0.0523669325,0.148598251,0.0925122795,0.189162299,0.0155920638,0.106874533
105628.728981,-0.0672431881,0.175836459,0.365619611,0.151826918,0.0246473439,0.0896305665
105628.739009,-0.0659008701,0.160744908,0.234495569,0.14759995,0.0352943987,0.0762436539
105628.749036,-0.0267817929,0.104710265,0.0925637174,0.147293687,0.0338224694,0.0636160076
105628.759063,-0.0761596357,0.240558449,0.0715121615,0.128858492,0.0340853222,0.0450567044
105628.769090,-0.0406556437,0.154331022,0.346471843,0.0553312711,0.0281142481,0.0315776505
105628.779118,-0.0423780973,0.154103789,0.355232657,0.00423506415,0.0297094807,0.0145999976
105628.789145,-0.0498488122,0.155851382,0.495381717,-0.0760350078,0.0294807144,0.00662010163
105628.799172,0.0396722404,-0.0463792181,0.203393744,-0.111840673,0.0157143027,0.00682649622
105628.809199,0.0552835643,-0.0730365946,-0.177067462,-0.0892288387,0.0060784542,0.0150463432
105628.819227,0.0866370947,-0.214524922,-0.392360903,-0.00482341181,-0.00332410214,0.0313355662
105628.829254,0.0578356417,-0.181278705,-0.520676902,0.0344142728,0.0345700197,0.0429751799
105628.839281,-0.232466456,-0.25840878,-0.139209149,-0.0317564942,0.238528743,0.0334314741
105628.849308,-0.92103611,-0.351016501,-0.597085603,-0.041052524,0.393597126,-0.0184785947
105628.859336,-0.637795069,-0.155653631,-0.543427078,-0.103830956,0.470700443,-0.116164133
105628.869363,-0.198752311,-0.0522863415,-0.659511956,-0.145098493,0.459897876,-0.16817674
105628.879390,0.0343524245,0.22609325,-0.806617996,-0.113292895,0.337048918,-0.0438912772
105628.889417,0.0235199279,1.14965833,-0.892348068,0.0266847126,0.14256227,0.146343917
105628.899445,-0.59779777,1.38682582,-0.617802813,0.102267087,-0.00410254439,0.190937221
105628.909472,-1.27881728,0.776637211,-0.325018136,0.0295249727,-0.037411496,0.123936348
105628.919499,-1.17928139,0.46362983,-0.114572136,-0.0991219506,0.0407200567,0.0641475767
105628.929526,-1.01096685,0.755903342,-0.32052024,-0.148686305,0.15796572,0.0541066602
105628.939554,-0.956790291,0.547991975,-0.649102206,-0.113977328,0.244217783,0.0734609216
105628.949581,-0.982870489,0.358615651,-0.814580938,-0.0515166149,0.270534873,0.0460066535
105628.959608,-0.857998347,0.221793196,-0.506857635,-0.0153993573,0.266618669,0.00289593684
105628.969635,-0.865398394,0.0757943506,-0.268916894,0.0290810242,0.231886283,-0.0386397876
105628.979663,-0.91746322,0.0266085689,-0.107014268,0.0268484969,0.199160829,-0.097164616
105628.989690,-0.756691936,-0.248818091,0.309759192,-0.0318438448,0.195630014,-0.137443587
105628.999717,-0.342258171,-0.157272318,0.522214779,-0.114756308,0.180877164,-0.154955745
105629.009744,-0.243668654,-0.111052364,0.765243783,-0.201221958,0.14813599,-0.162810996
105629.019771,-0.19527057,-0.171475159,0.766594613,-0.279212892,0.0883349776,-0.16490078
105629.029799,-0.0806303742,-0.154325579,0.811657744,-0.328838229,0.0443326347,-0.165306121
105629.039826,-0.0148634783,-0.157068704,0.927521673,-0.343710661,0.0264449771,-0.143933982
105629.049853,0.186435083,-0.253275673,0.931741921,-0.298570335,0.0159294866,-0.105704837
105629.059880,0.277692467,-0.346496868,0.756557788,-0.189823627,-0.00704427203,-0.0542509742
105629.069908,0.288880399,-0.233664269,0.620422055,-0.108111449,-0.0590579361,-0.0344825946
105629.079935,0.0959639908,0.0211739767,1.13274614,-0.16714254,-0.116331346,-0.061789047
105629.089962,-0.160540398,0.00185852388,1.78284554,-0.2899867,-0.175690278,-0.106255315
105629.099989,-0.190875203,0.0492936077,2.12771462,-0.402762532,-0.240654901,-0.142307326
105629.110017,-0.026041948,0.190263008,1.94703949,-0.431012005,-0.34048751,-0.156019136
105629.120044,0.11710401,0.412336135,1.8844296,-0.402911127,-0.359864116,-0.151344493
105629.130071,0.169322986,0.296963862,1.75582894,-0.278067201,-0.265035093,-0.098450385
105629.140098,0.220230258,0.00881553994,1.51369075,-0.140289366,-0.072047241,-0.0485584661
105629.150125,0.160090463,-0.151238171,1.5106676,-0.0105406856,0.161188409,0.00622994825
105629.160153,0.0311882066,-0.414017658,1.03646136,0.102409303,0.345788598,0.0949558243
105629.170180,-0.0564301634,-0.566827316,0.709868517,0.141595587,0.437332898,0.178701326
105629.180207,-0.163275102,-0.793093255,-0.0547866522,0.0907023102,0.365210235,0.203716397
105629.190234,-0.237961674,-0.689312417,-0.692991032,-0.0533238351,0.215276688,0.142630398
105629.200262,-0.15113851,-0.485042913,-0.60652797,-0.231691986,0.137046859,0.100456588
105629.210289,-0.264662817,-0.333103389,-0.230859843,-0.445927829,0.0930144191,0.0471938923
105629.220316,-0.882834244,-0.315273645,0.613553338,-0.724344552,0.0179082155,-0.0443301648
105629.230343,-0.015599501,-0.44362055,0.919115663,-0.828356922,-0.0575945303,-0.0997058004
105629.240370,0.296455693,-0.821698295,0.508558594,-0.768064559,-0.158399165,-0.0890611485
105629.250398,0.156316789,-1.22655869,-0.325767493,-0.509047687,-0.272342265,-0.0620692186
105629.260425,0.449139021,-1.04281971,-1.21103817,-0.195921198,-0.339930624,-0.00761928875
105629.270452,0.656037778,-0.6123756,-1.40130297,0.0548087582,-0.292695194,0.0947483629
105629.280479,0.596059913,-0.277444557,-1.45379946,0.201166242,-0.161431178,0.234845817
105629.290507,0.570566503,0.139992335,-1.56322196,0.241644681,-0.00304447021,0.354079515
105629.300534,0.247257198,0.415480278,-1.29967858,0.16369237,0.167022333,0.430798531
105629.310561,0.0323711876,0.256215307,-1.00230073,0.0669413209,0.303443283,0.415012389
105629.320588,-0.0756269034,0.212534278,-0.798060595,-0.0370348766,0.39474231,0.345402151
105629.330615,-0.0705587333,0.271748683,-0.22382746,-0.0763250291,0.427932739,0.30167383
105629.340643,-0.502194831,0.339145446,-0.0589478635,-0.0576677173,0.416570634,0.294468373
105629.350670,-0.743632547,0.344468321,0.0412777668,-0.0728288293,0.370322436,0.281837016
105629.360697,-0.716814683,0.462987952,-0.241263748,-0.114420481,0.279197603,0.255037099
105629.370724,-0.507147485,0.368349328,-0.781045748,-0.0667166039,0.203242391,0.26289928
105629.380752,-0.39733913,0.35899654,-0.965728946,-0.0152038811,0.197312593,0.287793428
105629.390779,-0.355809617,0.403667164,-0.692882311,-0.0228026789,0.207452312,0.300346792
105629.400806,-0.667689272,0.282395969,-0.583783054,-0.0960009918,0.136253774,0.257703722
105629.410833,-0.584238652,-0.203768715,-0.716191291,0.00426249485,0.0218030885,0.207163587
105629.420860,-0.46839277,-0.830919567,-1.04708796,0.099015899,-0.070235759,0.202297732
105629.430888,-0.507286528,-0.649652826,-0.733004478,0.131247878,-0.117495947,0.154728338
105629.440915,-0.354847494,-0.567883474,-0.61452949,0.0292213727,-0.159256712,0.127708182
105629.450942,-0.259267315,-0.485277014,-0.734559306,-0.0587601475,-0.120052315,0.115223549
105629.460969,-0.150236921,-0.509868946,-1.22133102,-0.0175663717,-0.031871058,0.139906526
105629.470996,-0.340051053,0.0454136976,-1.21494395,-0.0842676386,0.0662299395,0.183965057
105629.481024,-0.598069134,0.6600107,-0.411496981,-0.147129431,0.175575346,0.231285974
105629.491051,-0.624474107,0.869988644,-0.540927078,-0.0785602182,0.230320886,0.254903942
105629.501078,-0.896294102,0.572841316,-0.722179717,0.0538363382,0.247535825,0.268087208
105629.511105,-0.833574611,0.391500779,-0.776810887,0.163211823,0.201517195,0.257526457
105629.521132,-1.07881837,0.53363809,-0.700054979,0.148413435,0.116316825,0.155657068
105629.531160,-1.50759973,0.389052144,0.206249133,0.0381356739,0.102514461,0.0635300651
105629.541187,-1.14578105,0.0275526814,0.741739573,-0.0585309491,0.104591995,0.0304932855
105629.551214,-1.22843807,0.249678087,0.728443454,-0.149285093,0.114076577,0.00428937934
105629.561241,-1.12103941,0.414512529,0.382604064,-0.0889759436,0.137634888,0.0166038368
105629.571268,-0.780830425,0.344004941,-0.239418997,0.0717719272,0.17437613,0.0628562868
105629.581296,-0.631379502,0.281513779,-0.164831081,0.156744346,0.21405457,0.102572806
105629.591323,-0.793161498,0.273324116,0.128649761,0.229039043,0.235428035,0.12175449
105629.601350,-0.909958251,-0.0123500707,0.187329913,0.283776879,0.237840056,0.127589479
105629.611377,-0.774861506,-0.0935056014,0.316350261,0.291947991,0.242194861,0.0731065273
105629.621404,-0.802072535,0.0205850343,0.61247548,0.247103795,0.270307183,0.00652164128
105629.631432,-0.94560846,0.0624040684,0.743835084,0.238195255,0.29464981,-0.0360433981
105629.641459,-0.991789854,0.0573117137,0.749872026,0.242930621,0.288798839,-0.0635418668
105629.651486,-1.05187995,0.22420265,0.775523185,0.225189716,0.298051208,-0.0888035446
105629.661513,-1.27046417,0.45455374,1.09445937,0.0974085778,0.333600402,-0.102939606
105629.671540,-1.27650199,0.415980848,1.19018184,-0.0300476421,0.340790659,-0.145943806
105629.681568,-1.16981264,0.196980881,0.712816261,-0.0950980186,0.3071118,-0.234141573
105629.691595,-0.926365781,-0.114262339,0.466126981,-0.0301645547,0.27468729,-0.285065711
105629.701622,-0.517104888,-0.0706781949,0.410194081,0.0809563696,0.28223893,-0.296436876
105629.711649,-0.19406967,-0.0143769735,0.54716568,0.119601764,0.287195355,-0.307803005
105629.721676,-0.036969329,-0.156410459,0.524399722,0.106304869,0.26198107,-0.312793493
105629.731704,0.142629552,-0.226030596,0.501295909,0.0792117342,0.23588796,-0.319381893
105629.741731,0.432258321,-0.370386168,0.597426964,0.0213519,0.183758438,-0.303758979
105629.751758,0.498562758,-0.422815005,0.355745867,0.0252971053,0.139373407,-0.303780019
105629.761785,0.507122789,-0.457077413,0.364523632,0.0417953879,0.155511364,-0.304284155
105629.771812,0.30997247,-0.433395143,0.47277884,0.0230190381,0.247194678,-0.322991788
105629.781839,0.0118131874,-0.355667322,0.535629556,0.0226368755,0.34508875,-0.333778411
105629.791867,-0.26805487,-0.554786238,-0.144791917,0.05092071,0.34980467,-0.293234169
105629.801894,-0.367225,-0.675263506,-0.671276629,0.00868164469,0.266862929,-0.256773353
105629.811921,-0.304837664,-0.563565684,-0.645329702,-0.032517191,0.167932078,-0.243281797
105629.821948,-0.0343712023,-0.413887821,-0.567407089,-0.048171252,0.0699045882,-0.255923271
105629.831975,0.217518569,-0.206298964,-0.17504677,-0.0251050815,-0.00229131477,-0.261620581
105629.842003,0.373569109,-0.315622093,-0.269360546,0.101243801,-0.0630513355,-0.254101694
105629.852030,0.218619224,-0.161529848,-0.513472669,0.2023523,-0.0635248423,-0.206627384
105629.862057,0.16411928,0.382816245,0.0248784207,0.160174489,-0.00141513464,-0.164396569
105629.872084,0.157045542,0.347573228,-0.0999801311,0.0860193074,0.0599334463,-0.1428231
105629.882111,-0.101437198,0.218278959,-0.493076363,0.00658680126,0.0835255906,-0.141653448
105629.892139,-0.187094497,0.232983046,-0.612428718,-0.0475693792,0.0542936698,-0.16126816
105629.902166,-0.205802559,0.164099187,-0.828539905,-0.0456798635,-0.0200034659,-0.156222805
105629.912193,-0.307869287,-0.078951737,-0.696893885,-0.00236221892,-0.0955818444,-0.129249766
105629.922220,-0.267330648,-0.0235855313,-0.220676887,0.0394864269,-0.142169058,-0.107710928
105629.932247,0.0140467917,0.123658894,0.183899354,0.0560946986,-0.164688215,-0.103124693
105629.942274,0.213967306,0.169392252,0.264394448,0.0490442477,-0.176915854,-0.114157639
105629.952302,0.341882689,-0.058710986,-0.0598351678,0.0872315764,-0.178300694,-0.0996231735
105629.962329,0.477660621,0.0204299168,-0.0809030902,0.111612551,-0.164507926,-0.0855518281
105629.972356,0.532477595,0.222436152,0.049013914,0.111361943,-0.150024593,-0.0605247691
105629.982383,0.506586929,0.143538045,-0.0870230344,0.113037609,-0.164585695,-0.0208074525
105629.992410,0.507583831,0.0614223639,-0.271896202,0.12214189,-0.186072335,-0.000861707143
105630.002438,0.351778644,0.0132891052,-0.16538287,0.121085413,-0.198591322,-0.012852856
105630.012465,-0.0440440897,-0.186823717,-0.0464291582,0.11956954,-0.196836039,-0.0451689847
105630.022492,-0.274567175,-0.258844267,0.245845815,0.0357947536,-0.190936863,-0.0893191323
105630.032519,-0.185442127,-0.177362135,0.598475012,-0.0844685435,-0.183646992,-0.145552844
105630.042546,-0.14850502,-0.248905714,0.547812746,-0.100746579,-0.223822385,-0.153220356
105630.052573,0.0412874845,-0.301266089,0.151951726,-0.00729625719,-0.328432947,-0.131920651
105630.062601,0.354036433,-0.103145609,0.330448344,0.100668021,-0.41786322,-0.0696799234
105630.072628,0.532394374,0.274123669,0.639916445,0.191206172,-0.433478922,0.0368806124
105630.082655,0.439899338,0.568325373,0.71355159,0.181282714,-0.441096634,0.139597133
105630.092682,0.165057657,0.627772418,0.570626635,0.0934652388,-0.488435119,0.188876003
105630.102709,-0.0471715741,0.564518601,0.511499908,-0.0129104666,-0.537463129,0.182866842
105630.112736,-0.170698731,0.184761086,0.485022236,-0.0709708408,-0.559904814,0.177109897
105630.122764,-0.349403293,-0.17359869,0.20363632,-0.0458564311,-0.538380563,0.202253059
105630.132791,-0.462025245,-0.323862829,-0.0971545523,0.0374903902,-0.460936397,0.250593692
105630.142818,-0.393065325,-0.317609102,-0.371490549,0.0967334658,-0.34006989,0.292028755
105630.152845,-0.374252232,-0.194083114,-0.359875514,0.0961307958,-0.211331353,0.324667931
105630.162872,-0.379372461,-0.0821082282,-0.21551439,0.00660491083,-0.100409359,0.330951929
105630.172899,-0.300136683,-0.019750264,0.294499664,-0.120405771,-0.00329106511,0.34246558
105630.182927,-0.203951451,-0.147288995,0.27047406,-0.126426116,0.0446146764,0.370010108
105630.192954,-0.222162851,-0.309336948,0.156043964,-0.0826304257,0.0586021319,0.39634344
105630.202981,-0.361765749,-0.410280298,0.358514163,-0.0314439386,0.0505034588,0.413008451
105630.213008,-0.585372515,-0.377958722,0.354011591,0.0449813269,0.020946363,0.412023604
105630.223035,-0.689821901,-0.376291812,0.499080572,0.0788207799,-0.00226947665,0.393329293
105630.233062,-0.728447034,-0.436273183,0.448802337,0.0673129931,-0.0329379067,0.339480966
105630.243090,-0.682213033,-0.458466456,0.223496036,0.0333619565,-0.0724735931,0.27230674
105630.253117,-0.618162367,-0.49965048,-0.146039287,-0.0160860196,-0.12934275,0.195269451
105630.263144,-0.535259006,-0.356905266,-0.42126551,-0.0638823062,-0.188809261,0.106647976
105630.273171,-0.404569227,-0.124867174,-0.507553801,-0.119910955,-0.236630857,0.034443818
105630.283198,-0.262622543,0.116281862,-0.574157732,-0.114270382,-0.251162648,0.00517248362
105630.293225,-0.201838295,0.326440059,-0.652715136,-0.0596915558,-0.248990059,0.0159652103
105630.303253,-0.159729593,0.596886062,-0.594955605,-0.045733396,-0.225392848,0.024665758
105630.313280,-0.235509934,0.718324942,-0.316226927,-0.0893959254,-0.162625074,0.0175473951
105630.323307,-0.448028284,0.591225698,0.0131599258,-0.159710035,-0.091043286,0.00429257518
105630.333334,-0.516007887,0.357364335,-0.0811824917,-0.160661846,-0.0388312154,0.000516478904
105630.343361,-0.392897311,0.164863522,-0.0313841493,-0.176854134,-0.0246371012,-0.00489559676
105630.353388,-0.278884234,0.11794848,0.00867079771,-0.149522647,-0.0348870717,-0.0279785469
105630.363415,-0.137888275,-0.0711884826,-0.153483173,-0.0949763134,-0.0559731834,-0.0416544117
105630.373443,-0.0657584569,-0.116532914,0.0892705211,-0.105413243,-0.0740706921,-0.0776731297
105630.383470,-0.0767766214,0.0984541637,0.456978629,-0.167177811,-0.0741183683,-0.136220068
105630.393497,-0.062246284,0.167466471,0.529154223,-0.244117856,-0.0866123214,-0.181491137
105630.403524,0.0327384865,0.165480485,0.414279889,-0.274927944,-0.0966628194,-0.22592625
105630.413551,0.108860845,0.316263021,0.414907666,-0.313594401,-0.0973083749,-0.249201998
105630.423578,0.175130722,0.331219475,0.451835421,-0.360286266,-0.0823182389,-0.261277288
105630.433606,0.180153227,0.196452619,0.494816484,-0.340054214,-0.0417186134,-0.250818282
105630.443633,0.217480794,-0.155886727,0.37183717,-0.269332916,0.00575436093,-0.212856516
105630.453660,0.269340526,-0.46599919,0.433212553,-0.19464086,0.0732865334,-0.1852137
105630.463687,0.246746929,-0.507825384,0.631579993,-0.125743538,0.13915503,-0.17542845
105630.473714,0.262349681,-0.634425008,0.676181352,-0.0681425631,0.197805017,-0.140396968
105630.483741,0.315875921,-0.776375053,0.670037442,-0.0228845384,0.229929939,-0.0923072025
105630.493769,0.521191135,-0.84981694,0.509371079,0.0228600483,0.218657568,-0.0746696219
105630.503796,0.787145891,-0.975685765,0.318855522,0.0859648511,0.156032383,-0.0913108885
105630.513823,0.97379491,-1.03414709,0.16785832,0.128936008,0.0607330315,-0.123596385
105630.523850,0.964745707,-0.907163798,0.140958038,0.128458768,-0.0163329933,-0.154994264
105630.533877,0.745016038,-0.705018958,0.168701785,0.0859190449,-0.0732133165,-0.16095601
105630.543904,0.451845102,-0.570266862,-0.087225279,0.0180025771,-0.122598715,-0.151966512
105630.553931,0.124442628,-0.402531803,-0.126843588,-0.0803306475,-0.160488829,-0.15947929
105630.563959,-0.162563903,-0.224188256,-0.230425543,-0.147723004,-0.22158362,-0.180592835
105630.573986,-0.360786053,-0.129758087,-0.473639256,-0.135479927,-0.308545679,-0.194773361
105630.584013,-0.594118205,-0.106507633,-0.511426258,-0.117439665,-0.385745674,-0.182810441
105630.594040,-0.865851398,-0.108879258,-0.520347816,-0.0881845728,-0.45778659,-0.169564947
105630.604067,-0.948822673,-0.20644809,-0.972802245,-0.00820825342,-0.546613932,-0.155425161
105630.614094,-0.781080892,-0.304375526,-1.25939508,0.0731976554,-0.631526411,-0.148067385
105630.624121,-0.433285472,-0.249768322,-1.12048872,0.116507851,-0.675406516,-0.143574893
105630.634149,-0.135415456,-0.110857645,-0.714646984,0.0972478688,-0.649173319,-0.138008624
105630.644176,0.0679843299,0.0374503905,-0.358947878,0.0572016425,-0.589123011,-0.110969543
105630.654203,0.349866856,0.186834385,-0.292415259,0.00545030041,-0.491750121,-0.10807389
105630.664230,0.482425351,0.353700479,0.205942844,-0.0538761429,-0.355614126,-0.0957197547
105630.674257,0.516378109,0.120455129,0.334136093,-0.027313238,-0.224527746,-0.0581004769
105630.684284,0.435144837,0.00701097474,0.355635393,0.0502329506,-0.0965378135,-0.0146965394
105630.694311,0.368558112,0.00863075796,0.806108877,0.0876434445,0.0165043157,0.0108636813
105630.704339,0.254426195,0.0232373024,0.899367591,0.115716092,0.0910597742,0.011553973
105630.714366,0.229171561,0.0829758779,0.811153301,0.152120158,0.115067378,0.00298738247
105630.724393,0.40302671,0.221736187,0.662111325,0.18559663,0.109996714,-0.0147862891
105630.734420,0.62839318,0.431852444,0.44002574,0.19852069,0.0955088511,-0.0457745641
105630.744447,0.803210818,0.496451611,0.222124163,0.194953918,0.102444261,-0.0630960315
105630.754474,0.899963731,0.637149537,0.335734176,0.180872709,0.153944463,-0.0655397475
105630.764501,0.955662821,0.795140324,0.501390017,0.123422213,0.223485202,-0.0737444162
105630.774529,1.08990573,0.875494402,0.486171406,0.0729486495,0.2751441,-0.0783689916
105630.784556,1.25770874,0.875828676,0.228415957,0.0741590559,0.294531405,-0.0748658702
105630.794583,1.30764605,0.937857992,0.342238151,0.0471751094,0.321684182,-0.0743244514
105630.804610,1.10459425,0.960476871,0.771008338,-0.0364121981,0.361702174,-0.0774507374
105630.814637,0.922471111,0.722081372,0.659379855,-0.0638310313,0.378721893,-0.059008345
105630.824664,0.876359129,0.567547009,0.213920399,-0.0490294546,0.355497539,-0.0350217856
105630.834691,0.814271726,0.541307894,0.167339849,-0.0500630289,0.335589081,-0.00947541278
105630.844719,0.668070161,0.36624315,0.0357481897,0.00428143889,0.302300632,0.0334337056
105630.854746,0.52790393,0.23725349,-0.0991501101,0.0779796317,0.26200062,0.0789894685
105630.864773,0.3955993,0.122744409,-0.017623335,0.147390127,0.214175582,0.111864068
105630.874800,0.221573233,0.0190985221,0.0213514156,0.186446443,0.151882648,0.115041748
105630.884827,0.124049318,-0.0244066384,0.0259054256,0.184428841,0.0649741143,0.101250567
105630.894854,0.13775937,-0.158895115,-0.107124158,0.193158403,-0.0360230729,0.0927329808
105630.904881,0.0663682593,-0.150373225,-0.256633751,0.191300854,-0.135209307,0.0885859057
105630.914908,-0.00470467056,0.0717306266,-0.198500127,0.157719985,-0.22107628,0.080189757
105630.924936,-0.0853405978,0.331164384,0.0127519295,0.0662249699,-0.259568036,0.0722303689
105630.934963,-0.142839231,0.490362501,0.184275202,0.00390273752,-0.24553369,0.0739931166
105630.944990,-0.0659998096,0.400816377,0.174520116,-0.00342814601,-0.183402404,0.0857714787
105630.955017,0.000464293044,0.330721681,0.346822556,-0.00352215581,-0.0916756839,0.0884037465
105630.965044,-0.0722290046,0.117768301,0.362395388,0.0286602825,-0.0259573925,0.101848185
105630.975071,-0.215825922,-0.124587699,0.126913146,0.0900844932,-0.00842553563,0.124222726
105630.985098,-0.27575496,-0.146253514,0.128929162,0.128225222,-0.0170113016,0.14139159
105630.995125,-0.361747007,-0.163546375,-0.0213595989,0.171501577,-0.0569270253,0.163579196
105631.005153,-0.435619688,-0.200853631,-0.416878674,0.242892414,-0.125263467,0.168881282
105631.015180,-0.460309856,-0.0236211141,-0.587388385,0.268459558,-0.194010049,0.157753527
105631.025207,-0.622335926,0.274761675,-0.490569348,0.230306581,-0.230205864,0.135546491
105631.035234,-0.787631775,0.50022207,-0.438035443,0.155444592,-0.233912185,0.129170358
105631.045261,-0.813963536,0.617452099,-0.447916786,0.0693517849,-0.210051864,0.134458587
105631.055288,-0.598470299,0.73183105,-0.546499325,-0.00589822792,-0.169125199,0.150023699
105631.065315,-0.243541301,0.77203432,-0.445738857,-0.0402026735,-0.0974030793,0.157357246
105631.075343,-0.109271271,0.797316426,-0.184127318,-0.0498837978,-0.0128221493,0.15371111
105631.085370,-0.0547499004,0.613924948,-0.0276221664,-0.0452621467,0.0477178954,0.156494915
105631.095397,0.0834255762,0.317881343,0.0099924017,-0.0189186875,0.0799895525,0.147666007
105631.105424,0.10504368,0.1032989,0.0641857642,-0.00881385617,0.0979658887,0.124666944
105631.115451,-0.163808387,0.0382369378,0.327041166,-0.0373256616,0.129139781,0.082079269
105631.125478,-0.367515727,0.0383040117,0.391941801,-0.0768935755,0.160501167,0.0421534255
105631.135505,-0.338023346,0.122655635,0.131820208,-0.119439438,0.172714964,0.00732993288
105631.145532,-0.287108713,0.184712717,-0.115254857,-0.135464221,0.183502629,-0.00599812251
105631.155560,-0.239075115,0.155359342,-0.407219449,-0.103390962,0.195759028,0.00134927221
105631.165587,-0.130348327,0.265424814,-0.479475123,-0.0630928054,0.212303385,0.0287731737
105631.175614,-0.117534767,0.363118296,-0.298317761,-0.0669977963,0.233153,0.0549640283
105631.185641,-0.167080285,0.455480134,-0.032016602,-0.122103661,0.238015667,0.0569249168
105631.195668,-0.11501829,0.413829223,-0.00597965893,-0.196563795,0.218994841,0.0498859137
105631.205695,-0.0732843954,0.249975316,0.156712072,-0.268130392,0.219060093,0.0419952348
105631.215722,-0.0953829213,-0.0366939461,0.343666138,-0.309548914,0.218220651,0.0387435146
105631.225749,-0.0394287779,-0.299093567,0.241357272,-0.287515521,0.209530503,0.0226982366
105631.235777,0.00814045369,-0.538217819,0.343368616,-0.218202233,0.202740774,0.00988496933
105631.245804,-0.0412833928,-0.876475449,0.334220264,-0.100491844,0.217272043,0.0106948372
105631.255831,-0.107937922,-0.896216726,0.795607357,-0.0461242124,0.269823104,0.00369791407
105631.265858,-0.201464128,-0.842741668,0.943793593,-0.00650809193,0.298207611,-0.0080226576
105631.275885,-0.249714218,-0.743197517,0.608327128,0.0416426584,0.286198348,-0.0122482954
105631.285912,-0.150744286,-0.679999156,0.352461439,0.0983826369,0.243697256,0.0144112781
105631.295939,-0.0873492707,-0.551724293,-0.0766074389,0.151401103,0.173783422,0.0251366273
105631.305966,-0.185491702,-0.266617896,-0.244359961,0.14716801,0.116493233,0.00541139161
105631.315993,-0.256083241,-0.0838164935,-0.0731757108,0.0842484459,0.0838814899,-0.0248306692
105631.326021,-0.25774606,0.0402383408,-0.0865735371,0.0274682511,0.0702429116,-0.0535794944
105631.336048,-0.262037912,0.0346618558,-0.0799871444,-0.0120266937,0.0667986423,-0.0712740645
105631.346075,-0.302741678,-0.0447143902,-0.144452895,-0.00822662935,0.0615929663,-0.0792006999
105631.356102,-0.312961824,-0.113903369,-0.119873749,0.0189788919,0.0552589037,-0.0862061456
105631.366129,-0.406480687,-0.124250795,0.000293429989,0.00738881528,0.0521786921,-0.098844178
105631.376156,-0.484135333,-0.25949484,0.066731357,-0.00406916905,0.0645522699,-0.122612089
105631.386183,-0.471504984,-0.351495809,0.0260731834,0.00379354786,0.0878360197,-0.1441544
105631.396210,-0.43890481,-0.430367831,0.0995586909,0.0326116122,0.126442268,-0.145511806
105631.406238,-0.430563025,-0.429292092,0.168440504,0.0727949888,0.173426285,-0.142037719
105631.416265,-0.455336268,-0.388044793,0.246156781,0.111873947,0.226272985,-0.139708519
105631.426292,-0.482096229,-0.50362954,0.103411275,0.134334236,0.248926908,-0.106593974
105631.436319,-0.518770337,-0.450657025,-0.245176538,0.153329507,0.244521499,-0.0809605122
105631.446346,-0.527407087,-0.206843008,-0.229832838,0.0992963687,0.225176573,-0.0628132001
105631.456373,-0.675184011,-0.104290322,-0.259704829,0.0323338434,0.174083829,-0.0433492251
105631.466400,-0.702411406,-0.186110089,-0.591694558,0.0350385495,0.0925516784,-0.0147569934
105631.476427,-0.54331938,-0.191792957,-0.797545632,0.063235037,0.000281136599,-0.00827299524
105631.486454,-0.446536291,-0.0251206319,-0.646568304,0.0653426647,-0.0739534125,-0.0211046375
105631.496482,-0.263426042,0.0844278303,-0.497477228,0.049320817,-0.128389493,-0.0221014582
105631.506509,-0.0183071525,0.130076067,-0.476375403,0.000707674539,-0.170905352,-0.0220330581
105631.516536,0.124577616,0.222002437,-0.363940864,-0.0800846368,-0.21817486,-0.0422531106
105631.526563,0.156734247,0.342674789,-0.23203707,-0.176638886,-0.246829137,-0.0612550341
105631.536590,0.155303922,0.308746727,0.00566401711,-0.231029153,-0.248635828,-0.0388029851
105631.546617,0.28765009,0.172017851,0.0554892475,-0.244567066,-0.23476395,-0.00457444135
105631.556644,0.255169158,0.137705831,0.122203653,-0.23267898,-0.240663126,0.00791897997
105631.566671,0.176757849,0.00554945082,-0.0163444011,-0.156895801,-0.269369066,0.0271041244
105631.576699,0.197255789,-0.157959807,-0.111952308,-0.0502854697,-0.317667097,0.0535983182
105631.586726,0.277510718,-0.0966744407,0.0454103366,0.0104527129,-0.357165754,0.0583624467
105631.596753,0.2798438,0.135750021,0.298815773,0.028932387,-0.358317316,0.0545581207
105631.606780,0.377740768,0.177575704,0.344592021,0.0286335815,-0.337901801,0.0641180724
105631.616807,0.570890401,0.353687254,0.481142179,0.00235084514,-0.284670264,0.0676587448
105631.626834,0.728322166,0.488191952,0.599059534,-0.0207696538,-0.219466761,0.0817908049
105631.636861,0.815494911,0.470511991,0.614342443,-0.0056913686,-0.16143541,0.113358051
105631.646888,0.884273483,0.38167482,0.546518615,0.0384699665,-0.125626817,0.148731232
105631.656915,0.915770445,0.24259412,0.610257804,0.0588463433,-0.0985560492,0.178253695
105631.666943,0.825717395,0.126022189,0.78350074,0.0624115206,-0.0581793264,0.195000723
105631.676970,0.655803457,0.0193755855,0.78282211,0.0820597932,-0.0182316452,0.199497476
105631.686997,0.579906395,-0.211264112,0.636404053,0.128076285,0.0287276078,0.203615248
105631.697024,0.540628716,-0.425347738,0.534281649,0.159602508,0.0796805322,0.224311471
105631.707051,0.559989104,-0.489779586,0.285758723,0.194817498,0.114395104,0.252428591
105631.717078,0.628302871,-0.439753134,0.00579845715,0.220325515,0.12395665,0.282904744
105631.727105,0.584676386,-0.353163742,0.00467851321,0.185446888,0.114430793,0.318690419
105631.737132,0.545506113,-0.303505758,0.0830775117,0.0664691105,0.0830723345,0.321885139
105631.747159,0.471642493,-0.287518865,0.0725567022,-0.0250355061,0.00239480264,0.327657819
105631.757187,0.498384881,-0.409046519,-0.196144503,-0.0533563606,-0.111443616,0.338160783
105631.767214,0.571828595,-0.29347602,-0.05865268,-0.0687760562,-0.232789218,0.351350367
105631.777241,0.603126929,-0.222086462,-0.021056232,-0.053520143,-0.348805308,0.361986756
105631.787268,0.479070414,-0.0628994507,0.0425865113,-0.0336686745,-0.435446471,0.343740106
105631.797295,0.36032008,0.114677423,0.199593767,-0.01679755,-0.480776668,0.30608514
105631.807322,0.252289438,0.17425657,0.375845237,-0.00856332202,-0.482805729,0.278225809
105631.817350,0.051624818,0.19494638,0.322510537,-0.000556527986,-0.463583827,0.257429481
105631.827377,0.0147347739,0.430978584,0.125250181,-0.0312776901,-0.436027288,0.236449629
105631.837404,0.0177908325,0.529047036,0.119087567,-0.0891543031,-0.386762261,0.241946131
105631.847431,-0.14605285,0.259550662,-0.206481773,-0.0857947245,-0.343404144,0.278652191
105631.857459,-0.216340685,-0.0100941085,-0.523054737,-0.0658961162,-0.304820806,0.313643456
105631.867486,-0.063528515,-0.120333695,-0.503698294,-0.0552986041,-0.270870298,0.335617483
105631.877513,0.0631269393,-0.168864355,-0.38650867,-0.0677640587,-0.221667588,0.342725992
105631.887540,0.11473087,-0.136082906,-0.0535217468,-0.0816697553,-0.166520447,0.353205532
105631.897567,0.210011262,-0.223581523,0.00197919112,-0.0843462273,-0.128703833,0.381368458
105631.907594,0.394182346,-0.262294846,0.0250718974,-0.0630476028,-0.099424772,0.412919998
105631.917621,0.505495845,-0.264798134,0.0264461084,0.0192675106,-0.0625690222,0.428266197
105631.927648,0.534601236,-0.159988317,0.390295787,0.0340392664,-0.00507722842,0.417275846
105631.937675,0.366745254,-0.249503022,0.86014968,-0.00470999395,0.0627140701,0.370468944
105631.947703,0.134774153,-0.39166123,0.92707276,-0.0447452962,0.127948195,0.290666252
105631.957730,0.0412406953,-0.504428362,0.976447324,-0.0586464629,0.174874693,0.203194469
105631.967757,0.0472807381,-0.655661199,0.781469526,-0.0423998497,0.201209888,0.122943036
105631.977784,0.121720656,-0.690492786,0.50163727,-0.0168276429,0.199620783,0.050367903
105631.987811,0.210783379,-0.602395108,0.259656314,0.0032624451,0.188245624,-0.00583598111
105631.997838,0.310392558,-0.433987702,0.0926888051,0.000126306491,0.181246832,-0.0374916457
105632.007865,0.407735655,-0.32215281,-0.105621352,0.000647753477,0.1769903,-0.0358956121
105632.017892,0.488108803,-0.291179579,-0.492573674,0.020949563,0.174370825,-0.0197011977
105632.027919,0.54594476,-0.299138576,-0.631316959,0.0296272058,0.19013834,0.00443130406
105632.037947,0.498356787,-0.302679974,-0.464649894,0.0397847705,0.215463132,0.0399813093
105632.047974,0.401147144,-0.385269922,-0.416001891,0.0550697148,0.214664444,0.0650347322
105632.058001,0.277942588,-0.303063494,-0.277835529,0.0472107269,0.183955804,0.0444002934
105632.068028,0.218213164,-0.232614432,0.0664040248,0.0316807702,0.144009992,0.0225940626
105632.078055,0.140767027,-0.320139205,0.160769823,0.0376419909,0.0959351361,-0.00244870689
105632.088082,-0.0464773995,-0.200865321,0.372966467,-0.0135056162,0.0636019632,-0.0571468361
105632.098109,-0.216276826,-0.0580365939,0.615339637,-0.0894914567,0.0336962678,-0.107679255
105632.108136,-0.264369186,-0.0163335144,0.336802097,-0.103667997,0.00235885009,-0.142369315
105632.118163,-0.158852829,0.0308295842,0.141314012,-0.0636739731,-0.00327267079,-0.146339029
105632.128191,-0.111673236,0.0710308078,0.162500008,-0.027339939,0.022591684,-0.137400389
105632.138218,-0.185811764,0.0412567971,0.0911871684,0.0285872426,0.0582000129,-0.118320458
105632.148245,-0.176370329,-0.0431231024,-0.193747964,0.107466616,0.0886428654,-0.0983033329
105632.158272,-0.0500956996,-0.074285864,-0.24342531,0.118284106,0.116257988,-0.0943498686
105632.168299,-0.035035895,-0.104966907,-0.178717568,0.0751219913,0.132520318,-0.1170424
105632.178326,-0.0641375411,-0.19131058,-0.36408641,0.0451353267,0.137663141,-0.137803867
105632.188353,-0.0281538987,-0.150567797,-0.406975119,0.00376817957,0.139361441,-0.167092249
105632.198380,-0.00813276358,-0.0476208522,-0.317338103,-0.0353296883,0.138961971,-0.190719545
105632.208407,-0.00158030973,-0.0960418418,-0.351235112,-0.0495256707,0.14498204,-0.203841209
105632.218435,0.0250329171,-0.162287388,-0.322799875,-0.0457751378,0.167937949,-0.197442427
105632.228462,0.0209824909,-0.261644784,-0.177612821,-0.0477557331,0.195651084,-0.17490676
105632.238489,-0.0841320074,-0.316321839,-0.229294493,-0.0486217923,0.204177722,-0.1471425
105632.248516,-0.0944464259,-0.345413128,-0.415842316,-0.0178297907,0.179117382,-0.108974889
105632.258543,-0.0460718327,-0.351551704,-0.695196433,0.0324251242,0.116483554,-0.0669608563
105632.268570,-0.0351683075,-0.2557265,-0.895949307,0.0779563934,0.02757366,-0.0377161503
105632.278597,-0.0757564481,-0.0799053844,-0.843780729,0.0836225376,-0.0624587648,-0.0101662809
105632.288624,-0.133274535,-0.0339765769,-0.808404879,0.0709131286,-0.153335407,0.00825187471
105632.298651,-0.238801925,0.0146797558,-0.693390845,0.0211948399,-0.24859722,0.0139955143
105632.308678,-0.259175563,0.0515922401,-0.634852732,-0.0352711007,-0.343403339,0.00501480233
105632.318706,-0.183768513,0.0356251479,-0.686531481,-0.0790452063,-0.431383014,-0.00980781857
105632.328733,-0.111505003,0.0800653973,-0.446317534,-0.161966458,-0.469851583,-0.0422344692
105632.338760,-0.103746772,0.209722508,0.0859434225,-0.247454733,-0.44374299,-0.0923578292
105632.348787,-0.0564150571,0.224664788,0.17859891,-0.264454216,-0.387975335,-0.117685027
105632.358814,0.0786124585,0.032068113,0.206499309,-0.208694026,-0.320147574,-0.102593683
105632.368841,0.129672391,0.0740577544,0.351391179,-0.126895294,-0.252377838,-0.0890738815
105632.378868,0.0225211809,-0.00477349801,0.427562565,-0.0579391271,-0.20757468,-0.0708296299
105632.388895,-0.197198707,-0.0726768214,0.441720269,-0.0313133746,-0.187902972,-0.0569841154
105632.398922,-0.260793775,0.0583024052,0.568002132,-0.0326841064,-0.16445145,-0.0625490621
105632.408950,-0.225883059,0.101911538,0.616029958,-0.0194457974,-0.140082717,-0.0623538531
105632.418977,-0.188136261,0.062030632,0.421674091,0.000718593481,-0.115534768,-0.0622598417
105632.429004,-0.149719053,0.266771114,0.513029017,-0.0437263697,-0.0809775889,-0.082534492
105632.439031,0.00450222049,0.429238243,0.468750315,-0.0680881664,-0.04987799,-0.0913159996
105632.449058,0.306459566,0.293381181,-0.0296346753,-0.00703147147,-0.0325381458,-0.0720134079
105632.459085,0.514968826,0.196414991,-0.188620538,0.0213122852,0.00245791953,-0.0587551184
105632.469112,0.592868935,0.277312747,0.007089666,0.00136094796,0.0487127677,-0.0614861958
105632.479139,0.636510143,0.278852816,0.0841477712,-0.0503826737,0.0867525563,-0.0700400025
105632.489166,0.514676565,0.31446379,0.259051334,-0.0988109261,0.127772689,-0.0751697868
105632.499193,0.362739233,0.327536476,0.425688003,-0.133286878,0.176440105,-0.0599570088
105632.509221,0.37113863,0.30681196,0.607978753,-0.15951243,0.215943977,-0.0408366211
105632.519248,0.312277532,0.241671087,0.469783165,-0.148081332,0.225360379,-0.0220168643
105632.529275,0.282102923,0.159160854,0.507798715,-0.13837491,0.231471807,-0.0138606662
105632.539302,0.244137915,0.0505608512,0.621499913,-0.0978293568,0.217844412,0.00703209825
105632.549329,0.203992185,-0.187667036,0.390563498,-0.0113272239,0.173365891,0.027499292
105632.559356,0.18132196,-0.335282194,0.260443665,0.0814495832,0.102458701,0.0524501801
105632.569383,0.0937448991,-0.428801386,0.116352005,0.180793494,0.0229130052,0.0781406313
105632.579410,0.0648012566,-0.501156866,0.073366265,0.236793637,-0.0396438465,0.102623068
105632.589438,0.146293782,-0.393896953,0.188759069,0.228926122,-0.0955396071,0.102332257
105632.599465,0.280622,-0.0856149212,0.363272171,0.118945561,-0.133485124,0.0720561072
105632.609492,0.291502345,0.169229608,0.483496049,-0.0174956378,-0.150053978,0.0326964483
105632.619519,0.193503049,0.380453608,0.422941335,-0.117742881,-0.142296717,0.0147307646
105632.629546,0.117674001,0.615191826,0.373560341,-0.21614188,-0.113852829,-0.00240667723
105632.639573,0.0125334713,0.863422345,0.403522348,-0.28990081,-0.0505561493,-0.00732606743
105632.649600,-0.16896029,0.801515266,0.311312851,-0.30408746,0.031606894,0.0232408959
105632.659627,-0.443324965,0.594765197,0.113870125,-0.248646021,0.11607118,0.0578782372
105632.669654,-0.635298064,0.344189212,-0.0641734892,-0.146301016,0.164514616,0.0893176496
105632.679681,-0.656383668,0.0439180522,-0.266816707,-0.0249660704,0.169346124,0.111058101
105632.689709,-0.523610873,-0.113312418,-0.285161926,0.048534248,0.143319309,0.122455366
105632.699736,-0.262363856,-0.239363029,-0.242798118,0.0843974352,0.0905780718,0.13697651
105632.709763,0.00344640499,-0.229848036,-0.3257219,0.0609869212,0.0276321266,0.136469439
105632.719790,0.240148846,-0.0499471763,-0.229986567,-0.00545681734,-0.0181356277,0.128297269
105632.729817,0.382622293,0.00630626054,0.0277566065,-0.0710387602,-0.0172919389,0.135863572
105632.739844,0.319002529,-0.0671348963,0.255280583,-0.081367828,0.0314569585,0.159302592
105632.749871,0.114102947,-0.17470541,0.421893287,-0.0675553456,0.10416685,0.179449663
105632.759898,0.0142194265,-0.308818185,0.486926023,-0.0218554977,0.166054979,0.181196168
105632.769925,-0.116630465,-0.35473764,0.470960977,0.0478719212,0.221985891,0.159596607
105632.779953,-0.280235229,-0.345150897,0.805019913,0.090317376,0.28788048,0.13206324
105632.789980,-0.442389291,-0.274879748,0.988918683,0.0717681944,0.328668386,0.0802202895
105632.800007,-0.481224012,-0.15539193,0.760960407,0.0632894859,0.325131983,0.0241306573
105632.810034,-0.354163603,-0.156614968,0.339216173,0.106996492,0.296600997,-0.0146454992
105632.820060,-0.219162482,-0.0885616422,0.165825353,0.142022118,0.256373703,-0.0365571901
105632.830087,-0.23515659,-0.0379062445,0.160308051,0.122960806,0.226079434,-0.0525321625
105632.840114,-0.209274363,-0.0643458501,0.13102292,0.0864531323,0.199328512,-0.0625855923
105632.850141,-0.116825833,-0.202145205,-0.0496539655,0.0607301928,0.165517554,-0.0543521643
105632.860168,-0.057724167,-0.35899654,-0.148414199,0.0574047044,0.139214844,-0.0379630737
105632.870196,-0.0166295016,-0.433554864,-0.29318975,0.0816999227,0.0979750007,-0.0295434892
105632.880223,-0.00328917774,-0.348451911,-0.301415142,0.102314651,0.0458899625,-0.0295592025
105632.890250,-0.0179203086,-0.273424654,-0.0391296489,0.105931759,0.00963954348,-0.0356583707
105632.900277,-0.154443579,-0.203886642,0.163556824,0.102489889,-0.00961830653,-0.0523374826
105632.910304,-0.168198402,-0.179547443,0.272779999,0.0776934624,-0.0186213888,-0.0718280971
105632.920331,-0.161789522,-0.163006131,0.368748557,0.0530443117,-0.0191681366,-0.102391332
105632.930358,-0.188853177,-0.201544609,0.248250538,0.0524762571,-0.0268236585,-0.139553085
105632.940385,-0.18133502,-0.144537431,0.283864288,0.0250675362,-0.0206232872,-0.180350587
105632.950413,-0.163585575,-0.0664644497,0.368489029,0.0169669986,-0.00477694627,-0.207475677
105632.960440,-0.119514634,-0.014998101,0.192039991,0.0145150265,0.00160771608,-0.229816407
105632.970467,0.0289794262,0.11740429,-0.076211133,-0.00565602211,-0.00161124661,-0.26043874
105632.980494,0.151547018,0.179949886,-0.138838562,-0.0369207337,0.0136076538,-0.274529278
105632.990521,0.224874741,0.0919032807,-0.285914206,-0.0292969029,0.0524077825,-0.271159291
105633.000548,0.290175736,-0.0188472507,-0.44823009,-0.00125408289,0.0993036479,-0.253210664
105633.010575,0.291602006,-0.0890759484,-0.475759317,-0.00304372725,0.137629196,-0.24453409
105633.020602,0.218323712,-0.0808295135,-0.59101885,-0.0186341386,0.138994068,-0.25089106
105633.030629,0.234018563,-0.115112307,-0.696824911,-0.0420566387,0.11864832,-0.248076096
105633.040657,0.274260155,-0.113052159,-0.669946841,-0.0339630246,0.102816358,-0.238444507
105633.050684,0.270074138,-0.0644631929,-0.693566202,-0.0405290499,0.0793821439,-0.217409
105633.060711,0.278581087,-0.0615158143,-0.726935387,-0.0328788534,0.0393353887,-0.187378928
105633.070738,0.28631285,-0.139241444,-0.880489288,0.0034594459,-0.0318455808,-0.164474681
105633.080765,0.213164246,-0.155250767,-0.983168741,0.0166934915,-0.113120459,-0.156590655
105633.090792,0.169372414,-0.103953565,-0.672113079,-0.0175560899,-0.163469389,-0.152261689
105633.100819,0.166383571,-0.105255514,-0.39210196,-0.0514413528,-0.181059301,-0.138906479
105633.110846,0.209415306,-0.113829939,-0.132343355,-0.0832645297,-0.157268748,-0.116257615
105633.120873,0.282692906,-0.156737061,0.0549491493,-0.0864203796,-0.106199175,-0.0833819509
105633.130901,0.299556691,-0.210366652,0.0908066446,0.00638013473,-0.0295781661,-0.0469610952
105633.140928,0.331256592,-0.312126579,0.174357034,0.0969047025,0.023158282,0.00701372279
105633.150955,0.142768266,-0.425874685,0.110869189,0.16540575,0.0294396132,0.0393751226
105633.160982,-0.0166835699,-0.299207184,0.119241296,0.164015576,0.0124992458,0.046247147
105633.171009,-0.032399683,-0.12431385,0.272712779,0.117395863,-0.00455244211,0.0392105393
105633.181036,-0.117075241,0.0415060957,0.285740019,0.0358376279,-0.0231413059,0.0194080733
105633.191063,-0.0390476697,0.266047768,0.278912803,-0.0393229015,-0.0319297351,-0.00393932592
105633.201090,0.109832978,0.408055754,0.164018011,-0.071641162,-0.0332557224,-0.00642378908
105633.211118,0.216215049,0.541574655,0.0463309585,-0.0697529837,-0.0332679749,-0.00511218235
105633.221145,0.295577084,0.74321856,0.270093537,-0.112831481,-0.0192829184,-0.0143517526
105633.231172,0.185411366,0.857239491,0.585046206,-0.187452182,0.00471402705,-0.0267402455
105633.241199,0.193523836,0.832313578,0.5681091,-0.212615594,0.0338202491,-0.0379606746
105633.251226,0.320121888,0.795882229,0.557511133,-0.211295724,0.0693995506,-0.0508615598
105633.261253,0.339823308,0.62698156,0.423895274,-0.188536093,0.0818551555,-0.0584435761
105633.271280,0.264641884,0.560641394,0.324660409,-0.177339628,0.0962719098,-0.0736073554
105633.281307,0.258278925,0.45051009,0.609015695,-0.181843832,0.124460407,-0.0676341504
105633.291335,0.146621325,0.27227848,0.676487641,-0.187532604,0.148677856,-0.0503616855
105633.301362,0.117391065,0.160077676,0.768356362,-0.21051462,0.174806401,-0.0365052558
105633.311389,0.173729696,0.0253276257,0.755872144,-0.194641918,0.172503829,-0.027391389
105633.321416,0.199007345,-0.0613169308,0.539304445,-0.152766109,0.151744485,-0.0072746696
105633.331443,0.192546625,-0.134580612,0.491184265,-0.0730063021,0.12824662,0.0331004523
105633.341470,0.113218273,-0.151999145,0.341073783,0.0229663011,0.10935282,0.0725221559
105633.351497,0.132074036,-0.238396011,0.307045842,0.098344408,0.0877726972,0.1036641
105633.361524,0.0575189998,-0.287293605,0.206009479,0.138142437,0.0496926904,0.108726233
105633.371552,-0.016289456,-0.236866463,0.364901234,0.102672048,0.0274499655,0.0873604938
105633.381579,-0.102741413,-0.219426814,0.451529716,0.0418150909,-0.0107253827,0.0513899773
105633.391606,-0.28365291,-0.181624541,0.357959452,-0.0199918188,-0.0569887497,0.0135400649
105633.401633,-0.340327239,-0.19274602,0.269639948,-0.0206149984,-0.105804756,0.00650505908
105633.411660,-0.406152259,-0.274333001,0.0116050976,0.00169989537,-0.164123461,0.0098806154
105633.421687,-0.472795207,-0.186347332,0.0646633186,-0.0248526204,-0.192707434,0.00352764502
105633.431714,-0.448431713,-0.0374281056,0.268029005,-0.061019145,-0.178407326,-0.00956711825
105633.441741,-0.495265726,-0.00328011765,0.255592133,-0.0576182865,-0.151384234,-0.0105061485
105633.451769,-0.570198765,-0.0437836852,-0.0596498743,-0.0118721062,-0.157406703,0.00364242727
105633.461796,-0.565317167,-0.0449397964,-0.310766323,0.0225710887,-0.182207122,0.0185611881
105633.471823,-0.510126136,-0.0743929777,-0.324112127,0.0400512815,-0.205710322,0.0409948602
105633.481850,-0.503247482,-0.137965213,-0.477190811,0.0456966497,-0.22480838,0.0782255828
105633.491877,-0.358753598,-0.140623984,-0.420150827,0.0183710176,-0.22526671,0.110030383
105633.501904,-0.313219196,-0.00215805482,-0.181924255,-0.0185877997,-0.210208669,0.120407127
105633.511931,-0.245540658,-0.00251592834,-0.0478548071,-0.0245350674,-0.182518154,0.126089931
105633.521958,-0.284332216,0.0330704219,0.387990433,-0.031342376,-0.132395595,0.126008704
105633.531986,-0.338255767,-0.0657981678,0.619490327,-0.0141418166,-0.0806591734,0.123180702
105633.542013,-0.306453958,-0.0718690852,0.603655629,-0.00218635332,-0.031816259,0.102903925
105633.552040,-0.266350861,-0.0990379549,0.579876694,0.0316493735,0.0212818421,0.0858045667
105633.562067,-0.340870224,-0.146662972,0.509113305,0.0735187978,0.0847098157,0.0763101354
105633.572094,-0.287827657,-0.0938612099,0.484469862,0.0963460803,0.146241888,0.0660825297
105633.582121,-0.324415238,-0.00640241439,0.340786199,0.0860114172,0.190115601,0.0383134782
105633.592148,-0.338784065,0.131329794,0.350491015,0.0513040349,0.225326598,0.00579095539
105633.602176,-0.283336903,0.0765618462,0.145768653,0.0541770533,0.23649402,-0.0153521458
105633.612203,-0.265175991,0.0928912689,-0.0325379955,0.0458544083,0.244058728,-0.0329199545
105633.622230,-0.229474051,0.0698473701,0.0692564916,0.0164432582,0.256893814,-0.0349072069
105633.632257,-0.20024518,-0.0370410791,-0.0815250215,0.00702312402,0.249879867,-0.0314773209
105633.642284,-0.142191197,-0.19621618,-0.298192673,0.0367109776,0.228980184,-0.030348409
105633.652311,-0.0600719357,-0.321349457,-0.299558701,0.0764208436,0.198868081,-0.0224595927
105633.662338,-0.0549229189,-0.480396475,-0.326937121,0.12980549,0.148717836,-0.0138096428
105633.672365,-0.0601495675,-0.438312215,-0.309815891,0.159390017,0.0955408886,-0.0251957253
105633.682393,0.0235710644,-0.375765011,-0.109509592,0.129141033,0.052336961,-0.0419288985
105633.692420,0.0732196596,-0.337283232,-0.0267214182,0.0973610133,0.0285400227,-0.0503245108
105633.702447,0.123780401,-0.375060882,0.0733645114,0.0883970782,0.0334511548,-0.0470011532
105633.712474,0.00834591314,-0.389865725,0.0378530531,0.127585486,0.0443794355,-0.0470616072
105633.722501,-0.124484056,-0.344217415,-0.0604097528,0.175887242,0.0468047783,-0.0567890666
105633.732528,-0.0923059433,-0.260136352,-0.0671633187,0.211671337,0.039517574,-0.0680880621
105633.742555,-0.128879551,-0.145428827,-0.0639881958,0.214544356,0.0293307137,-0.0927651748
105633.752583,-0.21871388,-0.0644820437,-0.103594815,0.179383963,0.0104646152,-0.122764625
105633.762610,-0.213310998,-0.0161135149,-0.30738954,0.15719451,-0.0221846737,-0.155060247
105633.772637,-0.129863776,0.041920887,-0.488718167,0.142882943,-0.068340987,-0.189913839
105633.782664,-0.0997765349,0.135533821,-0.488662053,0.11282146,-0.120091267,-0.221812919
105633.792691,-0.0704676209,0.207791687,-0.440220971,0.072305724,-0.170215145,-0.247291654
105633.802718,0.0605409414,0.125796125,-0.7235399,0.0514608957,-0.253599793,-0.27390939
105633.812745,0.14549707,0.308901699,-0.870339065,-0.0278030317,-0.326528877,-0.331179351
105633.822773,0.110622923,0.513135473,-0.573994066,-0.150927901,-0.346449047,-0.380297631
105633.832800,0.0174174371,0.45289494,-0.545878563,-0.21040374,-0.314797908,-0.381294459
105633.842827,-0.0606412782,0.254457795,-0.766335085,-0.208005026,-0.279257476,-0.343108445
105633.852854,0.0038903037,0.153455993,-0.735111095,-0.195485786,-0.239270642,-0.293072432
105633.862881,0.0573320441,-0.017051088,-0.524607811,-0.149215221,-0.187548861,-0.227575198
105633.872908,0.151661803,-0.317897783,-0.412193146,-0.0497701168,-0.156777635,-0.135732621
105633.882935,0.287106722,-0.63584145,-0.408878323,0.0789841339,-0.16137132,-0.0532558523
105633.892963,0.345759055,-0.700834512,-0.318337635,0.162269428,-0.183015898,-0.0171577707
105633.902990,0.371019826,-0.673938614,-0.0509416672,0.162582085,-0.220182166,-0.0128969783
105633.913017,0.385949319,-0.629402138,-0.0345581032,0.181241795,-0.270371318,-0.0344597958
105633.923044,0.46310029,-0.757401253,-0.301097747,0.170642674,-0.3405568,-0.0199618116
105633.933071,0.499817909,-0.738348835,-0.475987281,0.203804627,-0.372648686,-0.0190289058
105633.943098,0.49236204,-0.378548651,-0.280136207,0.19640103,-0.34011659,-0.0220486671
105633.953125,0.420354716,-0.268297082,-0.0799538267,0.169984341,-0.256054699,-0.0192153268
105633.963153,0.29719431,-0.105247769,-0.0439338343,0.14938505,-0.157079369,-0.0137521187
105633.973180,0.225586122,0.0721206488,0.0615624299,0.116752818,-0.0573410615,-0.0140003255
105633.983207,0.164346988,0.216269519,0.259531811,0.0710108951,0.0416504964,-0.0317052864
105633.993234,0.175298663,0.363018635,0.46351826,0.0116303926,0.116228595,-0.0542990156
105634.003261,0.180000721,0.347568041,0.477180874,-0.0353243351,0.143617347,-0.0668646023
105634.013288,0.217572838,0.444642806,0.554434794,-0.0647674426,0.139493182,-0.0904271901
105634.023316,0.265580224,0.505489489,0.612496523,-0.0833011791,0.12846449,-0.11592669
105634.033343,0.240977077,0.538646712,0.806959941,-0.112270243,0.155486524,-0.123517223
105634.043370,0.207231094,0.609752923,0.992221232,-0.162800536,0.191981688,-0.107483938
105634.053397,0.303066508,0.607265198,0.972462054,-0.200501308,0.2389175,-0.0859876946
105634.063424,0.403352399,0.585343801,1.16057289,-0.230372384,0.290914118,-0.0449015163
105634.073451,0.355748461,0.354469564,1.12782797,-0.147985905,0.316278845,0.0110933091
105634.083478,0.292777461,0.163012561,0.917988121,0.0049815448,0.315326512,0.0715702325
105634.093506,0.280937861,0.0644730567,1.11300976,0.121710561,0.295592755,0.11592678
105634.103533,0.126971105,0.161763218,1.23145026,0.156400353,0.239396602,0.116794445
105634.113560,0.058691642,0.176997101,1.1040315,0.144559145,0.16335164,0.0997291729
105634.123587,0.0723205919,0.0692868867,0.809744019,0.116702482,0.0872299671,0.0775120184
105634.133614,0.133998648,0.112793582,0.586291822,0.0448860824,0.028918989,0.036978703
105634.143641,0.310967472,0.16672011,0.4258014,-0.0563212298,-0.00273401104,-0.0075892983
105634.153669,0.4392899,0.158544768,0.222647895,-0.108129561,-0.0177747458,-0.0364521071
105634.163696,0.509023435,0.120020537,-0.0304874927,-0.107363373,-0.0270348229,-0.031509012
105634.173723,0.522770513,0.21847587,-0.0466875169,-0.13842383,-0.0231133178,-0.0245003738
105634.183750,0.354558521,0.323684038,0.129098674,-0.187581256,-0.012703022,-0.0194369033
105634.193777,0.0542350097,0.275653363,0.141415719,-0.20618929,0.0160026588,0.0112845246
105634.203804,-0.0554859961,0.20469014,0.13953765,-0.185130611,0.0424670205,0.0584850572
105634.213831,-0.132486307,0.108202454,-0.175271227,-0.100516118,0.0603333712,0.0986814871
105634.223859,-0.253734888,0.0787964003,-0.382398896,0.00193994842,0.0732457042,0.142165571
105634.233886,-0.35499567,0.0711649555,-0.5044798,0.076062113,0.0756793022,0.180977687
105634.243913,-0.418474053,0.0718851596,-0.696799192,0.119839422,0.0632644445,0.200647518
105634.253940,-0.401547139,0.0317317937,-0.854129104,0.121619746,0.0224682819,0.212028801
105634.263967,-0.402556609,0.0631582478,-1.04753103,0.0866838694,-0.0250939112,0.210140631
105634.273994,-0.36226957,0.184515587,-0.856140444,-0.00488173822,-0.0295970496,0.208063632
105634.284022,-0.268469333,0.0910853154,-0.71841072,-0.0555276051,-0.00619984884,0.226636246
105634.294049,-0.245111765,0.0362489789,-0.6025427,-0.0449444689,0.048232235,0.26292634
105634.304076,-0.215139273,-0.1192912,-0.346730202,0.0210268237,0.108808763,0.3059569
105634.314103,-0.373723569,-0.237277528,-0.0837432821,0.0862218067,0.148102105,0.329881132
105634.324130,-0.489436764,-0.269973198,0.171824301,0.129795909,0.159616292,0.324251205
105634.334157,-0.523095836,-0.266762858,0.179396782,0.155289292,0.147985205,0.303464442
105634.344185,-0.616123116,-0.240922022,0.266303497,0.17115587,0.141937956,0.274804562
105634.354212,-0.799777775,-0.176144064,0.341496393,0.153634131,0.139636189,0.226697236
105634.364239,-0.868452009,-0.0420993854,0.333469738,0.108621657,0.145656794,0.168847516
105634.374266,-0.854101778,0.0187047005,0.231551332,0.0771769136,0.146537766,0.108969808
105634.384293,-0.811109389,0.115839306,0.206034029,0.0266897697,0.163327664,0.0548232123
105634.394320,-0.822483089,0.192943077,0.327070977,-0.0204889271,0.179049909,0.0203035846
105634.404348,-0.832599702,0.104162531,0.211250887,-0.0240136199,0.185489699,0.0111353872
105634.414375,-0.824476309,0.0292079743,0.0583002133,0.0255739056,0.182206288,-0.000820874237
105634.424402,-0.798893393,0.0598001695,0.0249094003,0.069811143,0.166830793,-0.0196784511
105634.434429,-0.798519445,0.0267740982,0.0923912834,0.0842627883,0.125140592,-0.0370702259
105634.444456,-0.820585585,0.0125712392,0.025513796,0.0871421993,0.0711644441,-0.0754362568
105634.454483,-0.764163587,0.0456317973,0.0133849668,0.089209877,0.0177337136,-0.117224716
105634.464511,-0.720077046,-0.0104719288,0.0513432337,0.0937313884,-0.0120129967,-0.160005212
105634.474538,-0.765929573,-0.0707991179,0.179725284,0.0771343037,-0.0143842753,-0.200368077
105634.484565,-0.775959165,-0.034769554,0.250684487,0.0379658602,-0.00201415853,-0.23162134
105634.494592,-0.626062984,-0.0603546616,0.155110482,0.0224052761,0.00863715447,-0.252049655
105634.504619,-0.510260685,-0.0818370831,-0.0468476759,0.0438389294,0.00129934645,-0.274889439
105634.514646,-0.379299359,-0.090023093,-0.144146021,0.0610364005,-0.0131278224,-0.289850593
105634.524674,-0.259069125,-0.0587506605,-0.0701134007,0.0497690961,-0.0344040804,-0.305866569
105634.534701,-0.224651051,0.0241837895,-0.0973597195,0.0406245999,-0.0658205971,-0.330456614
105634.544728,-0.144882116,0.0934718452,-0.239628256,0.020596832,-0.0855508894,-0.361551136
105634.554755,0.014332769,0.0202340289,-0.235203425,-0.00402569026,-0.106505975,-0.369294822
105634.564782,0.120684773,0.0124049427,-0.290479322,0.00826399866,-0.121020205,-0.360744476
105634.574810,0.247525293,0.00962320307,-0.260659938,0.0398205929,-0.12911807,-0.348016173
105634.584837,0.29025187,0.101647115,-0.0129617729,0.00425993605,-0.137243912,-0.365998358
105634.594864,0.278268806,0.243854861,-0.13041677,-0.0234941952,-0.163196415,-0.394242257
105634.604891,0.349133281,0.113601829,-0.476809118,-0.0549264215,-0.20556064,-0.403270096
105634.614918,0.375911178,0.114981739,-0.77780925,-0.0815622881,-0.234418392,-0.414214611
105634.624945,0.476568405,0.128620827,-0.926901495,-0.0912269056,-0.261935234,-0.395093918
105634.634973,0.665830054,-0.119678446,-1.31793027,-0.0562763773,-0.332257062,-0.343646437
105634.645000,0.86769951,-0.212365936,-1.49623225,0.0117498105,-0.41294232,-0.296637386
105634.655027,1.11735999,-0.264641482,-1.27351362,0.0808697641,-0.505424857,-0.239364758
105634.665054,1.23891387,-0.341600291,-0.937821533,0.133822456,-0.571331978,-0.18157497
105634.675081,1.12402756,-0.270570141,-0.109964934,0.113520384,-0.577472925,-0.132593304
105634.685108,1.05241077,-0.217229815,0.530650014,0.0686562359,-0.543173313,-0.0892301351
105634.695136,0.945748892,-0.244720464,0.721201228,0.0949669406,-0.502696693,-0.0508875325
105634.705163,0.830137038,-0.42111843,0.412525155,0.16849415,-0.494588196,-0.00382894557
105634.715190,0.639105494,-0.474481187,0.0402870022,0.208303869,-0.49363026,0.0246242657
105634.725217,0.367076386,-0.200861522,0.122424018,0.186881408,-0.462837994,0.0289809331
105634.735244,0.397861473,-0.0494748826,-0.00681844784,0.157405272,-0.420392781,0.0437148735
105634.745272,0.556630113,0.214773947,-0.110460609,0.129846081,-0.363616586,0.057686612
105634.755299,0.63713887,0.589135156,0.0797124191,0.0848533213,-0.283490866,0.0775380805
105634.765326,0.80629154,0.784555875,0.230845814,0.017182393,-0.215331778,0.0930893421
105634.775353,0.934751186,0.942101402,0.227076817,-0.050805714,-0.164818272,0.0956864581
105634.785380,0.941705242,0.919145401,0.333446357,-0.119031899,-0.0970730558,0.0837898478
105634.795408,0.811408445,0.734010367,0.385339042,-0.151191443,-0.0220078658,0.0686894655
105634.805435,0.769100458,0.578540916,0.46441024,-0.171553969,0.0695902258,0.0590051413
105634.815462,0.667308894,0.535390779,0.767072167,-0.213182107,0.175891101,0.0550953597
105634.825489,0.55298624,0.419086413,0.878731046,-0.251573145,0.273890644,0.0665107295
105634.835516,0.52493255,0.184468606,0.73665774,-0.259017497,0.355226249,0.0808598399
105634.845544,0.501267925,-0.0138709236,0.752501206,-0.247082293,0.423487842,0.0907494873
105634.855571,0.323019108,-0.216360924,0.903262261,-0.232743561,0.471734732,0.0957929865
105634.865598,0.1688466,-0.532883838,0.905963921,-0.204355329,0.501453519,0.111962363
105634.875625,0.0576993293,-0.746890746,0.776237471,-0.135947779,0.499902189,0.134450644
105634.885652,-0.0234921425,-0.949284957,0.692423461,-0.0732100829,0.486210346,0.148090288
105634.895679,-0.173446861,-0.995498207,0.795242031,-0.0382449143,0.46224618,0.132768586
105634.905707,-0.322367548,-1.04561774,0.712377285,-0.0198272895,0.416392654,0.11623434
105634.915734,-0.277972764,-1.0710877,0.426778136,-0.00372981327,0.338298917,0.100948595
105634.925761,-0.162467457,-0.889275163,0.123920394,0.000669462373,0.236731544,0.0730945989
105634.935788,-0.0462260551,-0.637719081,-0.0706377168,-0.00449041231,0.139714465,0.0523746684
105634.945815,0.00457194756,-0.359119728,-0.0137993928,-0.0291398317,0.0751088262,0.0511014163
105634.955843,-0.143550667,-0.146278795,-0.0117564888,-0.066354312,0.0399013087,0.0515613407
105634.965870,-0.280943706,-0.036764308,-0.0555541294,-0.110156648,0.0419695191,0.054459393
105634.975897,-0.456880868,0.0121068366,-0.132591776,-0.131646231,0.0662263855,0.0468664542
105634.985924,-0.683131536,0.0977975995,-0.249322551,-0.129601195,0.112847686,0.0431137979
105634.995951,-0.862705575,0.126407316,-0.320588045,-0.108553961,0.165144712,0.0654409379
105635.005979,-0.944663289,0.0972686072,-0.466648374,-0.0608173348,0.195158005,0.106539637
105635.016006,-0.921825215,0.156553594,-0.422141709,-0.0478016697,0.207670078,0.127777025
105635.026033,-0.914419103,0.181228308,-0.114131991,-0.0678483397,0.216196448,0.130352035
105635.036060,-0.825762768,-0.00957929086,-0.0491688123,-0.0816946477,0.212685078,0.129502743
105635.046087,-0.719917764,-0.0981854297,0.125822428,-0.112234183,0.211579323,0.117804013
105635.056115,-0.647231882,-0.157982238,0.232767722,-0.119265728,0.220260173,0.102129713
105635.066142,-0.559734508,-0.259217192,0.323329452,-0.130794287,0.245319709,0.0975245684
105635.076169,-0.390269338,-0.268443578,0.352038829,-0.0887304544,0.282666028,0.0886184275
105635.086196,-0.392589853,-0.219721924,0.430277669,-0.0522241145,0.330074549,0.0855685771
105635.096224,-0.469728513,-0.231076701,0.562480154,-0.0300000329,0.38756901,0.0820774361
105635.106251,-0.512918835,-0.118736927,0.731726713,-0.0308375955,0.445087433,0.0735798255
105635.116278,-0.460106442,-0.132309891,0.634930473,-0.00646647764,0.467332274,0.0657788962
105635.126305,-0.329948505,-0.122663818,0.394991836,0.0268065259,0.441241801,0.0530849397
105635.136332,-0.231335571,-0.0509530654,0.0992798739,0.0642713457,0.378030896,0.0192052666
105635.146360,-0.200217087,0.0309948577,0.172557292,0.0577119738,0.314231932,-0.00103901792
105635.156387,-0.230597685,0.0548635899,0.261812031,0.0312484112,0.267548054,-0.0203690398
105635.166414,-0.285953734,0.0912681977,0.317605229,-0.00224563363,0.229356989,-0.0364510715
105635.176441,-0.26616555,0.0522047459,0.231727273,-0.0028578944,0.19313933,-0.0465745479
105635.186468,-0.27588571,-0.00663885349,0.11630232,0.0185150392,0.148255214,-0.0543067679
105635.196496,-0.319816403,-0.021937618,-0.0498532874,0.0575599074,0.0808564574,-0.0613907799
105635.206523,-0.397564171,-0.0172228644,0.00987023663,0.0635259226,0.0314558893,-0.0904128402
105635.216550,-0.56172159,-0.0357424176,0.138992291,0.0573660284,0.00195605564,-0.127645418
105635.226577,-0.584947275,-0.0355948258,0.0612473726,0.0606369227,-0.0291699059,-0.156735405
105635.236604,-0.495862048,-0.0141756787,0.0763350517,0.0575785488,-0.0463201292,-0.176199645
105635.246632,-0.470012371,0.0254574627,0.200149647,0.046110712,-0.0476469174,-0.194048688
105635.256659,-0.46924314,0.0168700324,-0.00644260027,0.067724131,-0.0556774139,-0.204801455
105635.266686,-0.383293434,-0.0216791132,-0.245938754,0.0998522416,-0.0678051859,-0.211397305
105635.276713,-0.278033098,0.0403409974,-0.271840673,0.118436843,-0.0604870804,-0.218882397
105635.286741,-0.170210802,0.13425686,-0.289521875,0.0947203264,-0.0674736202,-0.235423014
105635.296768,0.0616406097,0.227282788,-0.176663558,0.0133106895,-0.0911003873,-0.274741411
105635.306795,0.185219862,0.233150584,-0.0555588056,-0.0734929144,-0.120664403,-0.319393575
105635.316822,0.291506912,0.139993723,0.173614107,-0.169641286,-0.135926172,-0.371029854
105635.326849,0.276404912,0.186770745,0.30487785,-0.24004595,-0.128002465,-0.410435587
105635.336877,0.212357972,0.073797496,0.0597054039,-0.240011334,-0.104344286,-0.416452736
105635.346904,0.072529595,-0.0695681879,-0.298314254,-0.188608587,-0.0606010631,-0.376255512
105635.356931,0.0235492179,-0.0313907252,-0.492387211,-0.131248623,-0.0164810084,-0.304819942
105635.366958,0.0532470215,0.125877447,-0.536079054,-0.11013668,0.0165517759,-0.232352391
105635.376986,0.040519788,0.20338388,-0.584950344,-0.111495689,0.0230416339,-0.171949506
105635.387013,0.0279081438,0.085087171,-0.817402425,-0.0733925104,0.0117508955,-0.11367023
105635.397040,0.00593194733,-0.0886369724,-0.889147811,-0.0267283395,-0.000152102672,-0.0686015487
105635.407067,0.110231111,-0.0909380159,-0.561679943,-0.054399915,0.00305966963,-0.0511325449
105635.417094,0.198251997,-0.117574386,-0.315383462,-0.0752061233,0.00152835203,-0.0353080407
105635.427122,0.301521598,-0.365535148,-0.447203085,-0.0310069732,-0.00251299469,-0.00743380003
105635.437149,0.346413099,-0.563904049,-0.421385922,0.0192721765,0.0030223853,0.0226274282
105635.447176,0.321002763,-0.672286829,-0.322699922,0.062836431,0.0200402513,0.046092011
105635.457203,0.228188651,-0.657286389,-0.232841957,0.095040977,0.0307834428,0.0558964387
105635.467231,0.178831038,-0.535577461,-0.191819041,0.0827560797,0.0281391907,0.0577183068
105635.477258,0.175123343,-0.342130745,-0.114791916,0.0521955043,0.0165978484,0.0518425703
105635.487285,0.23031726,-0.169595665,-0.126610948,0.01582711,-0.00300727738,0.0414767489
105635.497312,0.374137264,-0.122108669,-0.138391987,0.00309853163,-0.0247735586,0.0398397073
105635.507340,0.433950804,-0.0513779397,0.129715929,-0.0145728737,-0.0219162535,0.0362460352
105635.517367,0.41811428,-0.0782934192,0.310496859,-0.00404588692,-0.022880068,0.0491370596
105635.527394,0.380261884,0.0135613462,0.543022589,-0.0276276451,-0.00592105789,0.0393965468
105635.537421,0.323361674,0.129855922,1.02548696,-0.0953888446,0.0294523798,0.027079694
105635.547448,0.246961741,0.058527227,0.940353682,-0.100300513,0.0598534271,0.0217909217
105635.557476,0.14672895,-0.0282984582,0.817097889,-0.0783028081,0.0891354159,0.0346864834
105635.567503,0.104169984,-0.0735631758,0.733340578,-0.0456194282,0.102075718,0.0449114218
105635.577530,0.0427654481,-0.0829891027,0.709679132,-0.0494812764,0.101716727,0.0501461327
105635.587557,0.0407036202,-0.149964351,0.66158584,-0.033546254,0.0857145861,0.0615508519
105635.597585,0.109503965,-0.232292871,0.586539075,0.00332334591,0.0587050728,0.0828710496
105635.607612,0.172448424,-0.217233176,0.54132163,0.039796669,0.00877000391,0.100666836
105635.617639,0.238199319,-0.22961335,0.453286204,0.104035579,-0.0324674509,0.132381886
105635.627666,0.32486901,-0.287739303,0.460274748,0.161940947,-0.0578947775,0.17299962
105635.637694,0.288625511,-0.279889612,0.288807005,0.232717916,-0.0845266506,0.200575054
105635.647721,0.338924642,-0.329480815,-0.0965203461,0.295713931,-0.123511866,0.208239093
105635.657748,0.437772555,-0.247517621,-0.265239082,0.292771935,-0.167922214,0.188582838
105635.667775,0.371804145,-0.0293936331,-0.17665479,0.214004144,-0.196738943,0.139997721
105635.677803,0.206050834,0.173082119,-0.00886310541,0.086038202,-0.202011198,0.072993651
105635.687830,0.191744588,0.243512477,-0.204550513,0.00610395242,-0.208028078,0.0312424805
105635.697857,0.35558337,0.315657822,-0.541587588,-0.00444269786,-0.21475549,0.0210340507
105635.707884,0.364029054,0.46143327,-0.580437835,0.00405278616,-0.196374357,0.0427340195
105635.717912,0.115364565,0.671271149,-0.30528117,-0.0346658453,-0.140003487,0.066697143
105635.727939,-0.130691496,0.745300115,-0.060495093,-0.0975976735,-0.0788924694,0.0929553807
105635.737966,-0.256240112,0.614199966,-0.296245046,-0.116849929,-0.0562529378,0.114403948
105635.747993,-0.185319962,0.48628115,-0.511441456,-0.108728088,-0.0616498329,0.133235425
105635.758021,-0.155490604,0.292647898,-0.504285739,-0.064786464,-0.076739572,0.155934617
105635.768048,-0.13762904,0.0933331674,-0.487042343,-0.0285014287,-0.0861367956,0.175872639
105635.778075,-0.0652492652,0.0892104615,-0.204324303,-0.0543833598,-0.0768431649,0.176817
105635.788102,0.0681093674,0.0544718141,-0.156167882,-0.0602953099,-0.0746878684,0.168928981
105635.798130,0.279479168,-0.0321085911,-0.0870680426,-0.049471423,-0.0556531958,0.170959637
105635.808157,0.311466909,-0.0284456847,0.278123698,-0.0713402405,-0.0142306527,0.169930592
105635.818184,0.141800882,0.0135285399,0.575552986,-0.100649126,0.0426027998,0.174158096
105635.828211,0.00669065675,-0.094580391,0.558650951,-0.0928809494,0.0885820165,0.172158331
105635.838239,-0.070156911,-0.0806802413,0.664397975,-0.0638215989,0.135342598,0.17044431
105635.848266,-0.136634111,0.00509103953,0.782746122,-0.00285864994,0.171138674,0.163758188
105635.858293,-0.184052901,-0.0189258689,0.638170478,0.0778801367,0.179988354,0.164439946
105635.868320,-0.189308922,0.00973002444,0.645203445,0.129282862,0.174729154,0.155087471
105635.878348,-0.217082516,0.0495378648,0.580576367,0.156339258,0.139743462,0.123350039
105635.888375,-0.246285229,0.139252769,0.482013701,0.124897443,0.106196694,0.066624701
105635.898402,-0.244123594,0.243367662,0.508217818,0.0634023994,0.0782446861,0.00741438009
105635.908429,-0.307312968,0.273360576,0.408311921,0.0053595989,0.0588659272,-0.0470360778
105635.918457,-0.399710243,0.294170578,0.359283978,-0.0473693907,0.0393790454,-0.0910309702
105635.928484,-0.412381143,0.231084884,0.169494397,-0.0731141716,0.0192870926,-0.125596657
105635.938511,-0.40601022,0.143009783,0.0288841492,-0.0553676635,-0.00262273289,-0.140231803
105635.948538,-0.383357658,-0.00810877991,-0.0622685324,0.00604642835,-0.0236324109,-0.13475661
105635.958566,-0.322823183,-0.0831789262,-0.0509790766,0.0887130797,-0.0355106443,-0.130442023
105635.968593,-0.244456991,-0.0603789923,0.0579337181,0.12464232,-0.0472655706,-0.125960186
105635.978620,-0.146605616,0.0435130516,0.186346747,0.126817048,-0.0477057919,-0.13703467
105635.988647,-0.0945307797,0.121861416,0.362270301,0.0858049095,-0.0376733951,-0.143474191
105635.998675,-0.0524956917,0.136381962,0.307190803,0.0626489893,-0.031053843,-0.156617701
105636.008702,0.0698095224,0.0923293241,0.114640525,0.0558584593,-0.0421549641,-0.156094924
105636.018729,0.215706003,0.119088225,0.116422147,0.0302324574,-0.0548667647,-0.169465318
105636.028757,0.270409763,0.18952209,0.245539526,-0.0174407884,-0.0610615425,-0.194173858
105636.038784,0.302089388,0.213853471,0.282759542,-0.0595978275,-0.046397645,-0.223005772
105636.048811,0.429152026,0.0823185831,0.092739074,-0.076464422,-0.0171707831,-0.234617159
105636.058838,0.534503329,-0.0364616718,-0.056035191,-0.0818240345,0.0281735286,-0.228752345
105636.068866,0.476018151,-0.115289709,-0.23661563,-0.0740542635,0.0609245487,-0.202642441
105636.078893,0.46255968,-0.278444382,-0.652416445,-0.0207649469,0.0557260588,-0.14378126
105636.088920,0.601021372,-0.308794146,-1.20463999,0.0393127725,-0.0042744251,-0.0723459572
105636.098947,0.799288895,-0.176992278,-1.50920688,0.0664061755,-0.104863882,-0.0140597522
105636.108975,0.904822642,-0.0257156021,-1.49809453,0.0602297746,-0.205646947,0.0407182761
105636.119002,0.89011724,0.0902240955,-1.23308107,0.0583732836,-0.284118593,0.0990042239
105636.129029,0.793267516,0.180522279,-0.948220177,0.0373486914,-0.345665336,0.147284135
105636.139057,0.668304773,0.131178256,-0.676412238,-0.00672209729,-0.386672944,0.164316118
105636.149084,0.512937686,0.0570995323,-0.378009137,-0.0304165091,-0.398934126,0.159101918
105636.159111,0.313154132,-0.084566435,-0.16819442,-0.0400014892,-0.393664002,0.155176684
105636.169138,0.103198143,-0.244333949,-0.102678284,-0.04330514,-0.370542973,0.14523536
105636.179166,-0.0149709938,-0.184119865,0.0987245781,-0.0974919498,-0.318621725,0.133251935
105636.189193,-0.049417709,-0.127905518,0.0771902072,-0.131836608,-0.257974893,0.125187889
105636.199220,-0.0368484243,-0.0136209675,0.055636547,-0.136209518,-0.189245075,0.12297906
105636.209247,0.0954581785,0.190169375,0.202735572,-0.135387674,-0.107092418,0.119654372
105636.219275,0.12284186,0.24883864,0.291849441,-0.129161194,-0.0468386635,0.137034431
105636.229302,0.159428692,0.234118406,0.240157833,-0.14262934,0.00533931982,0.153467461
105636.239329,0.173618327,0.262514699,0.525111085,-0.179669648,0.0653123781,0.164730772
105636.249357,0.0933998394,0.194690797,0.595350158,-0.191634431,0.112244733,0.170875475
105636.259384,-0.0587167582,0.223468344,0.73667586,-0.267734766,0.166324481,0.144019097
105636.269411,-0.38637971,0.357316843,1.10937111,-0.395701259,0.226458386,0.104282871
105636.279438,-0.50027095,0.308303294,0.994103977,-0.430395603,0.279770613,0.0893025845
105636.289466,-0.383070658,0.169159027,0.684417265,-0.373440713,0.298100591,0.103440508
105636.299493,-0.280414732,0.138509768,0.574421936,-0.274101317,0.31014502,0.113492087
105636.309520,-0.136710245,0.0987369992,0.709353553,-0.223297283,0.332592785,0.137398481
105636.319548,0.130636039,-0.0994251276,0.812061648,-0.186921164,0.343244374,0.150249839
105636.329575,0.123751796,-0.088703681,0.801467774,-0.156751275,0.343081653,0.14252986
105636.339602,-0.0221922869,-0.154962306,0.939740518,-0.168873996,0.333690286,0.142729059
105636.349629,0.0431593062,-0.29608591,0.934980756,-0.18972069,0.301504403,0.132119298
105636.359657,0.16209055,-0.364073697,0.636996173,-0.163852602,0.218530685,0.111310154
105636.369684,0.281912862,-0.360383026,0.181895613,-0.121431366,0.104796134,0.100112632
105636.379711,0.507968665,-0.206117616,0.159185184,-0.0960772783,0.006571298,0.0870455652
105636.389739,0.568708161,0.000908931538,0.233176888,-0.108642332,-0.07568416,0.0767383277
105636.399766,0.582501563,0.0887893134,0.10558102,-0.119061157,-0.145731151,0.0704079941
105636.409793,0.65946556,0.125551503,-0.147028883,-0.114456549,-0.214080647,0.0726386607
105636.419820,0.709091249,0.125407126,-0.369420757,-0.123680405,-0.272280842,0.0982904881
105636.429848,0.566206554,0.105582043,-0.408952557,-0.143441334,-0.299133241,0.124119431
105636.439875,0.351305656,0.144461224,-0.319755101,-0.147267506,-0.298443735,0.150842652
105636.449902,0.150869812,0.0202517838,-0.413743883,-0.107041776,-0.288729608,0.18766351
105636.459930,-0.0772483306,-0.078753511,-0.510876223,-0.0512466878,-0.268710077,0.223881438
105636.469957,-0.297879662,-0.11046397,-0.400900183,-0.0345766321,-0.236199275,0.256538719
105636.479984,-0.39665323,-0.17989348,-0.449192797,-0.0187457372,-0.204746798,0.283868074
105636.490012,-0.320654205,-0.203470901,-0.452294855,-0.0079455534,-0.181443617,0.299725056
105636.500039,-0.14047789,-0.164602387,-0.362333429,0.0159808174,-0.162431836,0.311912745
105636.510066,-0.0453613098,-0.106135147,-0.216187759,0.033564873,-0.131760746,0.32880944
105636.520093,-0.0180397703,-0.0769789025,0.0350584539,0.00758805871,-0.0855301246,0.329465479
105636.530121,-0.0252208409,-0.0238828338,0.312186712,-0.0185306258,-0.0319105722,0.32561481
105636.540148,-0.0778556123,-0.107590752,0.407253352,-0.0153263118,0.0249298047,0.320596635
105636.550175,-0.182365788,-0.0762616942,0.579811812,-0.0114562055,0.0987912491,0.299066842
105636.560203,-0.389133831,0.0164497612,0.819917622,-0.0150746424,0.20004943,0.268559247
105636.570230,-0.541486027,-0.0250977625,0.802856013,0.00672173267,0.294360757,0.239749968
105636.580257,-0.504144723,-0.0900926511,0.525444262,0.0460960343,0.35538283,0.203021511
105636.590285,-0.44210704,0.034105391,0.467653752,0.0420150086,0.37531206,0.163508728
105636.600312,-0.404042719,0.100715752,0.440727751,0.0192226116,0.357897133,0.125571728
105636.610339,-0.29863395,0.0353936772,0.178686588,0.019040186,0.295223624,0.0859436244
105636.620366,-0.220321644,0.0604392711,0.22100305,-0.0133180218,0.225693002,0.0333573818
105636.630394,-0.250528566,0.0197751062,0.447849566,-0.037724562,0.161367014,-0.0124212932
105636.640421,-0.286012041,-0.129823042,0.382941917,0.000533345505,0.10404779,-0.0350288674
105636.650448,-0.182354244,-0.227737035,0.402227048,0.046092838,0.0544581376,-0.0534115992
105636.660476,-0.127505486,-0.196950851,0.408878323,0.0724235177,-0.00241686357,-0.0890851766
105636.670503,-0.153089425,-0.145558956,0.296336231,0.0860905945,-0.0573797151,-0.124682322
105636.680530,-0.160254348,-0.139246704,0.257568986,0.069225058,-0.0938764736,-0.151966944
105636.690558,-0.156054631,-0.0150717508,0.387570746,0.0268184803,-0.102822833,-0.178261667
105636.700585,-0.176897732,-0.0241262871,0.412673039,-0.0053573004,-0.0837617889,-0.199727014
105636.710612,-0.232251297,-0.101159404,0.34546062,0.0116531085,-0.0488035381,-0.222183853
105636.720640,-0.205939629,-0.134281337,0.307878201,0.0671264902,-0.0117323343,-0.234180853
105636.730667,-0.204305598,-0.112139794,0.39509705,0.125210032,0.0181587189,-0.241133317
105636.740694,-0.204650137,-0.0477297194,0.446373064,0.171039566,0.0229028743,-0.245734707
105636.750722,-0.092667945,-0.0176429165,0.27009529,0.187429994,-0.00187624188,-0.25030148
105636.760749,0.0615803675,0.0460774222,0.0320750542,0.176215678,-0.0486581288,-0.262762159
105636.770776,0.192162046,0.199899764,-0.172688809,0.122163907,-0.101387121,-0.27310586
105636.780803,0.279985181,0.343212403,-0.178454533,0.0347562954,-0.130768716,-0.277623653
105636.790831,0.375162954,0.445378207,-0.205133866,-0.0440469049,-0.147359401,-0.278952569
105636.800858,0.427375043,0.409941422,-0.36500937,-0.0886045173,-0.155159265,-0.275742143
105636.810885,0.420625276,0.312488033,-0.498657962,-0.108308449,-0.156707108,-0.265741706
105636.820913,0.242895587,0.259892607,-0.433475588,-0.122420274,-0.129703179,-0.258709341
105636.830940,0.113610232,0.218552735,-0.38081718,-0.115291789,-0.0925102681,-0.233844236
105636.840967,0.123833337,0.175304544,-0.463763174,-0.105080694,-0.0715623796,-0.20397155
105636.850995,0.192971572,0.173795309,-0.502439234,-0.134724349,-0.0726050064,-0.179485649
105636.861022,0.316925065,0.0966946797,-0.411030532,-0.152307078,-0.0877117887,-0.157024279
105636.871049,0.486742447,-0.0677335198,-0.369210329,-0.134497449,-0.119499542,-0.130565777
105636.881077,0.567889283,-0.131386638,-0.105799631,-0.116327226,-0.144533262,-0.0978882611
105636.891104,0.552672497,-0.246559809,0.399860319,-0.106486313,-0.145482942,-0.0567663871
105636.901131,0.47734918,-0.450817476,0.440616692,-0.0493785553,-0.13847962,-0.014230378
105636.911159,0.421983121,-0.547944994,0.496471266,0.0038931896,-0.122915581,0.0152723864
105636.921186,0.311902415,-0.611972645,0.582255698,0.0419622771,-0.0949699655,0.0283295996
105636.931213,0.144199395,-0.596488222,0.56644029,0.0661616251,-0.0775353163,0.0324215442
105636.941241,0.0621596287,-0.46708019,0.50879591,0.0765926987,-0.0709091052,0.032742992
105636.951268,0.0164150917,-0.181047472,0.753611797,0.0383795276,-0.0382664725,0.0300073903
105636.961295,-0.0836081114,0.0525830047,0.934265302,0.00440132059,-0.000950793386,0.0356178731
105636.971323,-0.0351344783,0.176838476,0.686360216,0.00813001208,0.0317381769,0.0453338809
105636.981350,0.0691922672,0.326144656,0.612068068,0.0093244398,0.0738869607,0.0601953864
105636.991377,0.12086908,0.344892757,0.622473727,0.0373174585,0.11761713,0.0771570653
105637.001405,0.102780758,0.268389948,0.530686255,0.0662638918,0.144796029,0.0908318609
105637.011432,0.0786158195,0.208086432,0.59888067,0.050307557,0.161657825,0.0860227197
105637.021459,-0.0160580584,0.205950004,0.715124538,0.00179541751,0.157522202,0.0689987317
105637.031487,-0.0565325095,0.0433056194,0.462268552,-0.00796240475,0.133201152,0.063243106
105637.041514,0.0339207551,-0.15483941,0.288520005,0.00241593388,0.112329692,0.0755037665
105637.051541,0.0657463646,-0.340654827,0.242836112,0.0194375291,0.096236743,0.0964271575
105637.061569,0.0425819082,-0.454047398,0.0767623372,0.0602470078,0.0535539947,0.111837015
105637.071596,0.155950879,-0.50185252,-0.0646522127,0.0761210471,-0.00741561735,0.111721694
105637.081623,0.253015195,-0.370052625,0.0309995339,0.0448305011,-0.086117886,0.0829379857
105637.091651,0.387599424,-0.239201555,-0.100687987,0.0158292111,-0.191325799,0.0442244112
105637.101678,0.530209029,-0.223219996,-0.372080916,0.048571445,-0.301763624,0.0318649448
105637.111705,0.483553405,-0.319725583,-0.494909423,0.0947330818,-0.367449135,0.0291597061
105637.121733,0.183290173,-0.263791806,-0.602144056,0.110448927,-0.377820551,0.0250302088
105637.131760,-0.0678605802,-0.101354342,-0.699190471,0.0567100644,-0.346149713,0.0163744017
105637.141787,-0.177127686,0.225071761,-0.890964505,0.00205427664,-0.293693423,0.0138193658
105637.151815,-0.155497838,0.40108913,-1.34957044,0.00293258717,-0.24132292,0.0512402393
105637.161842,-0.102519897,0.414265715,-1.55673669,0.0405254997,-0.177537546,0.122713357
105637.171870,-0.185986792,0.411965767,-1.39251293,0.0661752075,-0.100673929,0.186197519
105637.181897,-0.208924198,0.310958777,-1.19955465,0.0817190111,-0.0353977159,0.224551305
105637.191924,-0.196211632,0.227700648,-1.02791506,0.114661783,0.00800781418,0.243611544
105637.201952,-0.262541331,0.25797596,-0.613513591,0.0917221159,0.040205963,0.249497935
105637.211979,-0.44972157,0.143168554,-0.0359755687,-0.0144509301,0.0755469128,0.234894484
105637.222006,-0.59055569,0.183798524,0.227796948,-0.107754506,0.112842083,0.175962195
105637.232034,-0.543574451,0.0313977394,0.144377491,-0.162244394,0.138159424,0.110255361
105637.242061,-0.596119827,-0.104428197,0.00845861627,-0.141680792,0.170162097,0.0553556234
105637.252088,-0.528582962,-0.0307515505,0.0510176551,-0.041413039,0.222504929,0.0334250256
105637.262116,-0.39860272,-0.0131396137,0.195561735,0.0434557796,0.270420015,0.0292619709
105637.272143,-0.38204464,0.159750563,0.246192437,0.0564562641,0.269239157,0.000939253718
105637.282170,-0.346652679,0.277565334,0.271857624,0.0055683176,0.241950005,-0.0560731627
105637.292198,-0.351680992,0.250588626,0.334810631,-0.0477369837,0.200710416,-0.112458944
105637.302225,-0.224233593,0.0981874025,0.130731243,-0.0284879189,0.144260466,-0.131686166
105637.312252,-0.0567254382,-0.0997964451,0.0115846393,0.00883814692,0.107748255,-0.118044659
105637.322280,-0.0165592494,-0.143745915,0.326069691,0.0154459821,0.123572491,-0.0971007645
105637.332307,-0.0634410102,-0.246867852,0.223293792,0.0590376668,0.135341004,-0.0647257715
105637.342335,-0.0424697165,-0.292416428,-0.0885422068,0.121944465,0.125704616,-0.0343079492
105637.352362,-0.113761586,-0.231601455,-0.0109878425,0.14868553,0.113907881,-0.0163941961
105637.362389,-0.236795663,-0.134494541,-0.0162158063,0.179131046,0.0851260349,-0.00626699347
105637.372417,-0.149117197,-0.0765194683,-0.0754652831,0.218379915,0.0425807051,0.00536942203
105637.382444,-0.159956096,0.0531136044,0.115254857,0.205438554,0.00522134872,-0.0192847922
105637.392471,-0.252824897,0.27890009,0.408828054,0.162331298,-0.0193074308,-0.0624317266
105637.402499,-0.285142637,0.290536021,0.50556818,0.0904717594,-0.029717993,-0.11906758
105637.412526,-0.365187065,0.261755332,0.459173509,0.0383417085,-0.0275573712,-0.163714141
105637.422554,-0.416342448,0.132612235,0.132231126,0.007645051,-0.0429107621,-0.187558487
105637.432581,-0.338999498,0.292135857,0.0600987871,-0.0279044211,-0.0730566755,-0.221988097
105637.442608,-0.25445732,0.294923004,-0.220010532,-0.0163995642,-0.122255385,-0.237346292
105637.452636,-0.195968234,0.14919629,-0.391620898,-0.0177266169,-0.157265827,-0.247847393
105637.462663,-0.176270503,0.156529701,-0.516944145,-0.0299132429,-0.208999336,-0.272496015
105637.472690,-0.11178561,0.148632665,-0.848778391,-0.0552260578,-0.282773942,-0.281140625
105637.482718,-0.0635725642,0.0572727699,-1.02350718,-0.0853671804,-0.332335889,-0.27103126
105637.492745,0.0101534375,-0.0253945535,-1.08776601,-0.0896372944,-0.356560022,-0.232508123
105637.502772,0.181359442,-0.135268594,-1.29756027,-0.0424833633,-0.366100252,-0.163992971
105637.512800,0.446543598,-0.241835995,-1.35768478,0.0252256431,-0.3501378,-0.089607954
105637.522827,0.570648555,-0.292163622,-1.13882809,0.0691595376,-0.302846521,-0.0309873149
105637.532855,0.486850328,-0.342371568,-0.847865368,0.083282277,-0.225063309,0.00678642746
105637.542882,0.312429873,-0.465785182,-0.528434092,0.0871513188,-0.149154425,0.0305458196
105637.552909,0.112213243,-0.548013822,-0.167068047,0.0637357384,-0.0819085538,0.0367360711
105637.562937,-0.142103464,-0.528731321,0.204605458,0.0398815461,-0.0373900831,0.0220508687
105637.572964,-0.321511516,-0.520556929,0.291595759,0.0327591859,0.000549842021,-0.00537276734
105637.582991,-0.444529628,-0.572252483,0.64198799,-0.0109139942,0.0688521937,-0.0272857882
105637.593019,-0.572034456,-0.493461563,0.859224381,-0.0291617066,0.133647978,-0.0486459397
105637.603046,-0.429184394,-0.483051666,0.567615179,0.00959980302,0.166588083,-0.0629045069
105637.613074,-0.287920431,-0.385550492,0.456508089,0.0332337618,0.175022587,-0.0647050664
105637.623101,-0.298540555,-0.151911832,0.405070747,0.0594339408,0.158507526,-0.0673152357
105637.633128,-0.308428893,0.236022779,0.419177014,0.042903699,0.143231094,-0.0800217092
105637.643156,-0.279047572,0.55632733,0.516011833,-0.0361825973,0.11236985,-0.100516595
105637.653183,-0.223911704,0.918871187,0.405998968,-0.160526395,0.0710634217,-0.104780853
105637.663211,-0.149545395,0.984014398,0.466963432,-0.250735104,0.0365757532,-0.0915079191
105637.673238,-0.200306044,0.973031232,0.547011951,-0.321834862,0.0203158241,-0.0734490231
105637.683265,-0.268650973,0.683844141,0.740322692,-0.330731958,0.0154249286,-0.0686659887
105637.693293,-0.383033468,0.381847838,0.860513837,-0.305866003,0.014529041,-0.072224237
105637.703320,-0.359857833,-0.0377586528,1.15117553,-0.265430182,0.0258059297,-0.0700361878
105637.713347,-0.35567324,-0.512234068,1.08443365,-0.16113013,0.0468012281,-0.0719517991
105637.723375,-0.269114791,-0.804550396,0.693457481,-0.00972116366,0.061858207,-0.0783886537
105637.733402,-0.0431026807,-0.9085497,0.55837681,0.0811283141,0.0763764232,-0.0857941061
105637.743430,-0.0162497816,-0.795486507,0.592527501,0.0661584213,0.089539364,-0.0852915719
105637.753457,0.104894663,-0.503020687,0.562540944,-0.046526581,0.0681440607,-0.0777939707
105637.763484,0.259707533,-0.216024239,0.251131647,-0.140852287,0.0211280882,-0.062733002
105637.773512,0.298611191,-0.0727281132,-0.243112006,-0.179569855,-0.0307548158,-0.0293124542
105637.783539,0.371784052,0.12010069,-0.360967986,-0.174790815,-0.0578420945,0.01695491
105637.793567,0.451700104,0.354959831,-0.226045721,-0.145990059,-0.0336291678,0.0966278985
105637.803594,0.631747751,0.514956624,0.117425187,-0.136610404,0.0204657596,0.179880977
105637.813621,0.70356854,0.551295181,0.130688573,-0.0925433412,0.056757722,0.247063473
105637.823649,0.786957675,0.36363779,0.115149059,-0.0136842141,0.0790382549,0.315200984
105637.833676,0.70276285,0.044042117,0.14159166,0.0575950257,0.0885633156,0.366843134
105637.843704,0.565546117,-0.256170371,0.20000527,0.0929322392,0.108551674,0.398198128
105637.853731,0.392890553,-0.497482635,0.244405553,0.0943394527,0.146360308,0.404933542
105637.863758,0.213878605,-0.543730591,0.260695009,0.0440267548,0.170900539,0.385827482
105637.873786,0.170233671,-0.446102138,-0.0204752173,0.0109769236,0.181612581,0.350679606
105637.883813,0.188172903,-0.335149654,-0.191201786,0.0160992481,0.196039453,0.338305771
105637.893841,0.146947451,-0.188068895,-0.167934308,0.0385153443,0.235633463,0.346338928
105637.903868,-0.0284615764,-0.00229161807,0.0655067837,0.0541475639,0.30437389,0.364356548
105637.913895,-0.0798764141,0.0356108271,0.181695122,0.0844719112,0.36429581,0.387657613
105637.923923,-0.0576670665,-0.0621517741,0.27284605,0.127273977,0.395625234,0.409089386
105637.933950,0.00495933944,-0.28191783,0.362613415,0.178177893,0.397616506,0.405501306
105637.943978,0.038091538,-0.478326976,0.306511004,0.230056003,0.356572121,0.358671755
105637.954005,0.0403475002,-0.515449084,0.31597266,0.242075652,0.308290333,0.287005842
105637.964032,0.0696048666,-0.443772672,0.581359042,0.180563822,0.278622717,0.21471858
105637.974060,0.0651614043,-0.362827788,0.493996985,0.121799842,0.248114109,0.147307053
105637.984087,0.113122375,-0.252214035,0.243354583,0.0772827119,0.227576345,0.0857448876
105637.994115,0.111948217,-0.139576228,0.37634325,0.0327759646,0.224594131,0.0331850126
105638.004142,0.0473084983,-0.279603562,0.248242355,0.0442957319,0.220481411,-0.00469712354
105638.014169,0.108634635,-0.359252122,0.0273404269,0.105257884,0.199715152,-0.0369866192
105638.024197,0.22131007,-0.35687078,0.132314129,0.118983813,0.179189369,-0.0745086968
105638.034224,0.117472533,-0.212904061,0.569605476,0.0694104061,0.157605246,-0.132942185
105638.044252,-0.0282602451,-0.0925285,0.751881028,0.0312116202,0.118398711,-0.193013236
105638.054279,-0.00928710298,-0.0475381424,0.836309954,0.0173788965,0.0620443635,-0.231193647
105638.064307,0.0446337262,-0.0363498089,0.688017335,0.0784313306,0.00443379628,-0.241315782
105638.074334,0.0013926234,0.0152454999,0.626443215,0.119871713,-0.0370326862,-0.24185136
105638.084361,0.0313934286,0.132228496,0.413560927,0.115712658,-0.061375577,-0.256084353
105638.094389,0.242134247,0.248337486,0.194745743,0.0493312404,-0.0670875311,-0.273422331
105638.104416,0.469894663,0.318618937,-0.106214642,-0.0105736423,-0.045216579,-0.286305904
105638.114444,0.576988718,0.281802095,-0.522774166,-0.0408785492,-0.00655680383,-0.269850492
105638.124471,0.667760949,0.155890527,-0.868686622,-0.0116311833,0.0568951406,-0.223317087
105638.134499,0.804810947,-0.00146831899,-1.05503805,0.031794589,0.125240102,-0.16371873
105638.144526,0.882753068,-0.0034599312,-1.26386726,0.0806779712,0.156059012,-0.110771634
105638.154553,0.968217183,0.118294809,-1.3322569,0.119028293,0.165554777,-0.063128747
105638.164581,0.985646164,0.0674357059,-1.30747142,0.186867788,0.150373966,-0.00988016743
105638.174608,0.908343656,0.00504310873,-1.58613522,0.250238508,0.0960838199,0.0300150514
105638.184636,0.710241735,0.149356741,-1.24605863,0.170599341,0.0593132898,0.0278927796
105638.194663,0.392224344,0.222705032,-0.789632959,0.042337779,0.0406080447,0.00648815325
105638.204690,0.229834226,0.124905533,-0.857419378,-0.0208371989,0.00596378185,-0.00365209859
105638.214718,0.320115824,0.141505151,-0.878269858,-0.0390878394,-0.0416580662,0.0051291422
105638.224745,0.323561873,0.139650317,-0.826429781,-0.0182494055,-0.0858327225,0.0268530808
105638.234773,0.247618378,0.153742409,-0.847667215,0.0322907381,-0.128636375,0.0560328029
105638.244800,0.268185511,0.26109453,-0.599895984,0.0407963395,-0.156405151,0.0735465437
105638.254828,0.188349758,0.414129448,-0.251385914,-0.0153492223,-0.178553328,0.0711196065
105638.264855,0.123898694,0.49718862,-0.121062667,-0.0558324642,-0.197714776,0.0588051528
105638.274882,0.135789696,0.504028111,0.0942681832,-0.0796368644,-0.205595329,0.0529949367
105638.284910,0.0965873469,0.458411877,0.302248086,-0.061995551,-0.216619492,0.0506905019
105638.294937,-0.0230024707,0.471080219,0.560439003,-0.0642374009,-0.188858956,0.0260634534
105638.304965,-0.179574769,0.510264229,1.1062445,-0.110379599,-0.125112474,-0.00245420914
105638.314992,-0.252249545,0.460764358,1.11291857,-0.148122713,-0.0665929765,-0.0298959538
105638.325020,-0.199257082,0.460920791,1.04726507,-0.192812949,-0.010631972,-0.0502124093
105638.335047,-0.104543128,0.445130516,1.05356973,-0.240582079,0.0370745622,-0.0444490612
105638.345075,-0.0230023977,0.325973099,0.804121503,-0.239267811,0.0686679035,-0.027988065
105638.355102,-0.0854115806,0.273998874,0.767053463,-0.233402729,0.100524642,-0.0195280015
105638.365129,-0.150841427,0.180641522,0.83769118,-0.222748756,0.118926547,-0.017834764
105638.375157,-0.185054954,0.0725545102,0.695960988,-0.197731823,0.129523546,-0.0313524343
105638.385184,-0.193353484,-0.105868459,0.56501581,-0.162995666,0.119742274,-0.0340257175
105638.395212,-0.14152992,-0.213214296,0.392961791,-0.139601931,0.0950246751,-0.0368694402
105638.405239,0.0230177414,-0.12727102,0.131717332,-0.110587858,0.0297649857,-0.054418873
105638.415267,0.269438726,-0.0800474963,-0.00769464616,-0.154947072,-0.0433843248,-0.0477156974
105638.425294,0.449466573,0.16537381,0.115500356,-0.219187841,-0.100224175,-0.0447598547
105638.435322,0.589292173,0.231596487,0.0774976657,-0.247079924,-0.14129518,-0.0206894055
105638.445349,0.624395781,0.0344711555,-0.0526753591,-0.219280779,-0.180399969,0.015383644
105638.455376,0.561708877,-0.170910986,-0.170789113,-0.162000716,-0.218380377,0.0434666798
105638.465404,0.383708006,-0.31974721,-0.224198047,-0.118387461,-0.242083043,0.0532527305
105638.475431,0.133281366,-0.471868301,-0.163635734,-0.0956099778,-0.25394851,0.0498263054
105638.485459,-0.117325015,-0.571230739,-0.125146137,-0.0947295353,-0.229843944,0.0531920083
105638.495486,-0.182511992,-0.592369096,-0.100013449,-0.0711813271,-0.184371263,0.0987858549
105638.505514,-0.0338873643,-0.586875029,-0.381951153,-0.0159747992,-0.135639951,0.174626023
105638.515541,0.119616852,-0.509495875,-0.605267156,0.0414821059,-0.111518644,0.265826762
105638.525569,0.248999238,-0.448749291,-0.842820944,0.106653333,-0.100378796,0.340172201
105638.535596,0.258630916,-0.377867975,-0.59683309,0.130774111,-0.0764598846,0.389307797
105638.545623,0.130076725,-0.3250044,-0.311578224,0.156485602,-0.0581900664,0.413358808
105638.555651,0.110927715,-0.274460646,-0.0412403574,0.161170632,-0.0276201721,0.41124931
105638.565678,0.0688620854,-0.223848357,0.203310742,0.161569312,0.00867951289,0.375998378
105638.575706,-0.0362612538,-0.0817570767,0.563851442,0.11997366,0.0905448198,0.321347117
105638.585733,-0.103530809,-0.148773242,0.6604922,0.14422521,0.164719447,0.274760157
105638.595761,-0.0871427883,-0.198374601,0.340440746,0.192028955,0.223880768,0.21816133
105638.605788,-0.171693368,0.0491059762,0.756798026,0.139413401,0.285405129,0.130248785
105638.615816,-0.335255672,0.153219554,0.757315913,0.0520508066,0.314171255,0.0189273171
105638.625843,-0.285526376,0.0621356998,0.408933852,-0.0204545539,0.315936148,-0.0756756216
105638.635871,-0.110675274,-0.016245763,0.351831909,-0.0474334396,0.309387445,-0.13211067
105638.645898,-0.0181109724,-0.102415542,0.0924251857,0.0099643385,0.273787886,-0.164881662
105638.655925,-0.0279071939,0.0149279584,0.0422463196,0.0524026081,0.232171729,-0.189672232
105638.665953,-0.0835774971,0.136793027,0.372771236,0.0459239371,0.192106068,-0.218450353
105638.675980,-0.219704535,0.229767372,0.284611307,0.0415760614,0.142107084,-0.247365877
105638.686008,-0.177033341,0.11727628,0.0909416692,0.039747268,0.0830938295,-0.272523165
105638.696035,-0.212193209,-0.0251931857,0.0666471859,0.0323889516,0.0430422798,-0.306182861
105638.706063,-0.367726374,-0.155697342,0.089549338,0.0129012717,0.021965757,-0.365478396
105638.716090,-0.378239,-0.281889773,0.00669219112,0.0211064722,0.00848084129,-0.430330902
105638.726118,-0.279661795,-0.2877819,0.0934808323,0.0190822035,-0.000115043484,-0.48374778
105638.736145,-0.27710305,-0.0669677961,0.523629322,-0.0193370916,0.00852584932,-0.527050555
105638.746173,-0.396652463,0.00922550898,0.579048427,-0.0482028276,0.000979515724,-0.550429881
105638.756200,-0.268361964,0.00888809372,0.38331192,-0.02372678,-0.00278779189,-0.559633493
105638.766228,0.0245414438,-0.10303455,0.321594591,0.0282109864,-0.012072104,-0.547763526
105638.776255,0.102081268,0.019112989,0.258859611,0.0654851198,-0.0156434029,-0.549671173
105638.786283,0.179252624,-0.0231602186,0.170305713,0.105668224,-0.0398837626,-0.531879663
105638.796310,0.350560647,-0.0316651582,-0.261370717,0.175461426,-0.0748979375,-0.513998687
105638.806337,0.389388098,-0.0178442842,-0.529966124,0.254419357,-0.120195113,-0.48047477
105638.816365,0.293386369,-0.0735302234,-0.726330992,0.282887489,-0.189250082,-0.418439627
105638.826392,0.17100166,-0.110982002,-1.05404319,0.298673928,-0.277137846,-0.357045233
105638.836420,0.137720225,-0.068135817,-1.55266023,0.28158015,-0.387189507,-0.314914823
105638.846447,0.206630315,0.118948743,-1.47339088,0.181153402,-0.47674948,-0.293848157
105638.856475,0.18816483,0.353167103,-1.37417823,0.0658046976,-0.562006891,-0.290083498
105638.866502,0.265145303,0.417111898,-1.24256611,-0.0648593009,-0.637508333,-0.293300599
105638.876530,0.414587384,0.422291785,-0.914692586,-0.162991464,-0.670925379,-0.273819059
105638.886557,0.527869845,0.149596833,-0.573003301,-0.172525838,-0.645361722,-0.214056939
105638.896585,0.571068936,-0.20125644,-0.28830607,-0.112972505,-0.573118925,-0.131285891
105638.906612,0.373997892,-0.420592287,0.182458508,-0.0578674413,-0.464975655,-0.076110512
105638.916640,-0.0526402696,-0.322598508,0.634663931,-0.0211211424,-0.348702312,-0.0625598207
105638.926667,-0.347157852,-0.346585094,0.801713857,0.014126326,-0.251097977,-0.0657050088
105638.936695,-0.538982264,-0.283783916,0.869927562,0.014326063,-0.166521072,-0.102956511
105638.946722,-0.600143895,-0.0251566531,0.829562818,0.0114794103,-0.109444462,-0.159793958
105638.956750,-0.353005373,0.142068338,0.420283514,-0.00697256718,-0.0871476829,-0.215714753
105638.966777,0.000369107307,0.455634959,0.312270298,-0.0900815651,-0.0721452981,-0.270447224
105638.976805,0.221382716,0.760949301,0.359869669,-0.190644667,-0.0414438397,-0.294005007
105638.986832,0.424485495,0.77012571,0.218584883,-0.210934222,0.00809095427,-0.263583452
105638.996860,0.714906877,0.778753691,0.375611428,-0.205909371,0.0666522682,-0.20807761
105639.006887,0.84206428,0.672224577,0.639171179,-0.165035173,0.123802908,-0.14946489
105639.016915,0.640884559,0.43756768,0.729537679,-0.0941239819,0.162879467,-0.103873968
105639.026942,0.306066037,0.211005972,0.93740886,-0.0662049949,0.199591145,-0.0850805715
105639.036970,-0.0262204647,-0.011199001,1.02806002,-0.0882935226,0.219096929,-0.107583217
105639.046997,-0.316241467,-0.09583704,0.942749052,-0.150789127,0.202118754,-0.161290392
105639.057025,-0.321095227,-0.192473268,0.379362305,-0.175502196,0.129621387,-0.199983731
105639.067052,-0.0553036983,-0.247871183,-0.134108026,-0.187854737,0.0486008301,-0.207905293
105639.077080,0.305409527,-0.216642079,-0.243466811,-0.156678706,-0.00931573287,-0.163202271
105639.087107,0.662176134,-0.335324572,-0.648355187,-0.0430954173,-0.0819968581,-0.061701484
105639.097134,0.809284293,-0.372330799,-0.94854634,0.0905750245,-0.155777872,0.0440329351
105639.107162,0.877578807,-0.287082519,-0.540181228,0.140373215,-0.221420273,0.125352293
105639.117189,0.772480968,-0.0709200409,-0.16475977,0.134849012,-0.291782826,0.158823431
105639.127217,0.468363142,0.210290225,0.163202019,0.0915012732,-0.362936109,0.156299025
105639.137244,0.224011,0.395341672,0.366847692,0.0401896201,-0.408000797,0.158808261
105639.147272,-0.00695377379,0.42620662,0.226271346,0.0136421639,-0.442939579,0.172745109
105639.157299,-0.312880941,0.516777264,0.107230541,-0.0206668079,-0.444192886,0.183670998
105639.167327,-0.524075823,0.716348819,0.290453019,-0.063360475,-0.385456324,0.177014157
105639.177354,-0.597239332,0.707716892,0.347156903,-0.0616493933,-0.292787373,0.198859006
105639.187382,-0.584678395,0.445973835,-0.0657616352,0.0114996508,-0.197369263,0.269629329
105639.197409,-0.491678844,0.321271205,-0.167188458,0.0786637738,-0.104563154,0.372137845
105639.207437,-0.513961476,0.146105338,-0.434746339,0.148058832,-0.0357273668,0.465619057
105639.217465,-0.423161663,0.0418105585,-0.72404668,0.193434834,0.0155584579,0.543571651
105639.227492,-0.147236634,0.0306282164,-0.816250917,0.199294046,0.0455294065,0.598418891
105639.237519,-0.0326142848,-0.0147777363,-0.791934806,0.17178227,0.0645270646,0.634054661
105639.247547,-0.0487905536,0.184293176,-0.3497212,0.109455772,0.10576345,0.632225335
105639.257574,-0.217973072,0.339079687,0.258164614,0.0381951779,0.192920998,0.620618224
105639.267602,-0.425749743,0.353000952,0.594224369,-0.0159793776,0.300845593,0.600681007
105639.277630,-0.454909385,0.317111308,0.941117067,-0.0260977931,0.43337515,0.590319932
105639.287657,-0.50114313,0.176438079,1.00251934,0.0186025668,0.551207781,0.58413291
105639.297684,-0.504165181,0.0623337066,0.878010915,0.0765542835,0.623592496,0.554852784
105639.307712,-0.455682452,0.0107706926,0.758989983,0.113635607,0.65754962,0.500789285
105639.317740,-0.46456828,-0.159229754,0.627241087,0.162024707,0.663283408,0.440147787
105639.327767,-0.532313344,-0.262973476,0.402863008,0.215148643,0.651026785,0.359951228
105639.337795,-0.615765023,-0.265467484,0.358783628,0.190850496,0.608653188,0.257652819
105639.347822,-0.740906118,-0.0817374952,0.321381241,0.112429194,0.530561566,0.138834015
105639.357850,-0.752260894,0.183103236,0.187350956,0.0234993212,0.428792387,0.0231793206
105639.367877,-0.677461893,0.40641807,-0.00589431874,-0.0315828398,0.354646534,-0.0680736303
105639.377905,-0.627622707,0.523935173,-0.23423195,-0.0580842197,0.296566188,-0.129482657
105639.387932,-0.652789589,0.539331333,-0.432990435,-0.0739340261,0.245708838,-0.179070979
105639.397960,-0.803597187,0.513294244,-0.388215474,-0.0807349384,0.221276462,-0.225278959
105639.407987,-0.855784251,0.3397212,-0.166553667,-0.0966446623,0.228180438,-0.251578718
105639.418015,-0.754236432,0.305736512,0.124000474,-0.113892891,0.239125505,-0.278450549
105639.428042,-0.503387256,0.280311418,0.26953941,-0.151106834,0.236790717,-0.293984234
105639.438070,-0.0994540614,0.13317776,0.358390829,-0.145039886,0.234176025,-0.29789561
105639.448097,0.155010967,0.0264621827,0.372092022,-0.0836015642,0.2260153,-0.282044232
105639.458125,0.3020644,-0.147900551,0.412447413,-0.0295774788,0.211157247,-0.266828001
105639.468152,0.436883789,-0.205346778,0.517397149,0.00834167376,0.18409048,-0.288070172
105639.478180,0.505087776,-0.334956762,0.386969273,0.0254306458,0.123683594,-0.298499882
105639.488207,0.558212779,-0.51864145,0.171404614,0.0569113418,0.050478626,-0.308736295
105639.498235,0.657820862,-0.573365559,-0.0521077884,0.115891568,-0.0311933346,-0.30314818
105639.508262,0.686839085,-0.59821563,-0.258797651,0.123191029,-0.11412257,-0.322011888
105639.518290,0.43647667,-0.499305905,-0.224015092,0.0459729396,-0.183638796,-0.340337098
105639.528317,0.187112763,-0.459789302,-0.614165917,0.000715143397,-0.244879156,-0.34186542
105639.538345,0.253972788,-0.207901138,-1.09353173,-0.0119212894,-0.317935258,-0.298849523
105639.548373,0.472540428,-0.150352328,-1.62805128,0.00651018182,-0.432223231,-0.220395744
105639.558400,0.553816882,0.137762457,-1.8381378,0.0104079843,-0.535309136,-0.151813477
105639.568428,0.477949448,0.406277639,-1.27780401,-0.0529384948,-0.57982415,-0.0724851042
105639.578455,0.421806303,0.404040966,-0.808573222,-0.0715276301,-0.580998063,0.031876184
105639.588483,0.394804095,0.0857503841,-0.801351454,-0.0212487467,-0.57078588,0.14705497
105639.598510,0.314501236,-0.135894179,-0.656996174,0.0496193022,-0.563982308,0.228983924
105639.608538,0.15910284,-0.282133372,-0.349117974,0.0860689208,-0.552691579,0.261320055
105639.618565,-0.0931600393,-0.419619643,-0.0476350269,0.0856433436,-0.537580788,0.261426568
105639.628593,-0.231371921,-0.419283543,0.196067347,0.0446690209,-0.481094629,0.234002128
105639.638620,-0.314258805,-0.207111741,0.69527359,-0.0514612421,-0.397610664,0.184088618
105639.648648,-0.308039638,0.00117138187,0.847984026,-0.118916184,-0.324349225,0.13279134
105639.658675,-0.230946407,0.161070414,0.823968944,-0.149227217,-0.259364098,0.0940229148
105639.668703,-0.215408884,0.398734091,0.968005074,-0.149395257,-0.199443236,0.081920445
105639.678730,-0.145999485,0.648602732,1.18111006,-0.157846525,-0.136814207,0.0796186775
105639.688758,-0.0657430401,0.898403276,1.37898183,-0.1821343,-0.06882824,0.0798050985
105639.698786,0.20183013,1.00918406,1.40090608,-0.144485459,-0.00171045179,0.0900944844
105639.708813,0.406044633,1.01136827,1.30166946,-0.0607178546,0.0530478656,0.107748583
105639.718841,0.503295486,0.78596976,1.44220781,-0.0235236175,0.117847905,0.125431702
105639.728868,0.503500653,0.533450312,1.56385383,-0.0204484668,0.175836101,0.110342495
105639.738896,0.399320951,0.338304465,1.56596804,-0.0616968349,0.220662698,0.0674435049
105639.748923,0.31666583,0.107075935,1.52148651,-0.106905065,0.255690455,0.0192690492
105639.758951,0.33256899,-0.00389510774,1.30607851,-0.130874842,0.281664789,-0.0173278451
105639.768978,0.427176634,-0.136105922,1.22187871,-0.141450778,0.307958454,-0.0364567973
105639.779006,0.449498137,-0.317753113,1.10048228,-0.11210382,0.334953845,-0.0211737156
105639.789033,0.558373413,-0.542896771,0.703618809,0.0125121484,0.34033078,0.0225053206
105639.799061,0.708764648,-0.485952941,0.234569219,0.159248859,0.300188154,0.063023448
105639.809089,0.757883483,-0.200424373,0.354669762,0.199793622,0.252920508,0.0651020557
105639.819116,0.567574554,0.0710761082,0.619682635,0.115703508,0.223767936,0.0389700457
105639.829144,0.277036378,0.217532744,0.750255473,-0.0437367409,0.221199855,-0.00307833496
105639.839171,0.179536446,0.185367381,0.723782476,-0.177662849,0.232040256,-0.0251082703
105639.849199,0.249251897,0.0755235891,0.402217696,-0.234990582,0.228902251,-0.0237418003
105639.859226,0.36943442,-0.0427563149,0.128117261,-0.191295564,0.195570931,0.00503738178
105639.869254,0.468477051,-0.216317523,-0.108639823,-0.0798662528,0.133305162,0.0469331667
105639.879281,0.455459128,-0.440136946,-0.108835638,0.0451145656,0.0577664562,0.0861663222
105639.889309,0.333118769,-0.767926592,-0.0489770891,0.115942933,-0.00453526666,0.121827915
105639.899336,-0.0325853418,-0.994642321,0.15967969,0.105146207,-0.0488907471,0.14064607
105639.909364,-0.262017307,-1.05268257,0.184513102,0.0791175365,-0.0928800404,0.135134131
105639.919392,-0.150557276,-1.04160223,0.0497311224,0.0792435035,-0.143987969,0.117223844
105639.929419,0.0448940211,-0.978901293,-0.0321206469,0.104443401,-0.174026832,0.103683531
105639.939447,0.134134841,-0.879539001,-0.159240714,0.139095932,-0.168699443,0.108798131
105639.949474,0.190789918,-0.643330345,-0.2137164,0.159837961,-0.118793666,0.131674409
105639.959502,0.210069788,-0.448074461,-0.115192898,0.176435575,-0.0116243353,0.182611629
105639.969529,0.14116105,-0.393153369,0.0456926606,0.208216667,0.126952723,0.243827581
105639.979557,-0.00676982293,-0.373226141,0.307305369,0.25432983,0.268938094,0.293012738
105639.989585,-0.0361073784,-0.297963394,0.596192454,0.298925549,0.399702489,0.308955729
105639.999612,-0.0541678627,-0.354816624,0.682927903,0.350269943,0.487914383,0.30971843
105640.009640,-0.000978416578,-0.468512999,0.4971686,0.413006306,0.521406293,0.297591746
105640.019667,0.147180712,-0.418903019,0.272846635,0.458743155,0.508128583,0.274005175
105640.029695,0.226812321,-0.2449051,0.0216758252,0.479924619,0.452722311,0.239822462
105640.039722,0.238209037,-0.0488587965,-0.25112697,0.457947671,0.388138235,0.187184289
105640.049750,0.2375977,0.113322793,-0.37023558,0.381267279,0.331465364,0.126034111
105640.059777,0.208796699,0.266466213,-0.52026306,0.302829742,0.284064054,0.0662818253
105640.069805,0.181169564,0.332320787,-0.702131201,0.271571934,0.248133466,0.0225037225
105640.079833,0.103694841,0.383205537,-0.776798612,0.279078603,0.217298061,-0.012339212
105640.089860,-0.0374064053,0.595525514,-0.675846421,0.264312953,0.181181595,-0.0579746068
105640.099888,-0.231846881,0.778617644,-0.455008206,0.209881678,0.14612402,-0.127867669
105640.109915,-0.461670659,0.968470865,-0.275349558,0.122004285,0.122326277,-0.19816047
105640.119943,-0.584112724,1.05742976,-0.269767373,0.0561704151,0.0967873558,-0.244667515
105640.129970,-0.588809723,1.03983755,-0.220891991,-0.0213235803,0.0993634313,-0.272655725
105640.139998,-0.544298966,0.887532777,-0.27563948,-0.0769394413,0.124640562,-0.285793126
105640.150026,-0.394045495,0.654108417,-0.41888826,-0.0924475566,0.157054961,-0.285841882
105640.160053,-0.234799813,0.446626162,-0.648599517,-0.0616680719,0.152690038,-0.27601397
105640.170081,-0.0614674451,0.329364276,-0.824563402,-0.053829059,0.112854473,-0.270422935
105640.180108,0.0473866051,0.329697453,-0.759485658,-0.0948944688,0.0611904822,-0.27600044
105640.190136,0.0960466642,0.158827019,-1.01444826,-0.117401913,-0.0196588244,-0.286394715
105640.200163,0.142578406,-0.0175237471,-1.35833535,-0.135421649,-0.0929277167,-0.297404766
105640.210191,0.0164841749,-0.0328993762,-1.08453419,-0.178946227,-0.113195434,-0.297364295
105640.220219,-0.0301896788,-0.139124247,-0.889329597,-0.188647851,-0.106616095,-0.257672787
105640.230246,0.00596183101,-0.233404486,-0.942143488,-0.143051609,-0.100927055,-0.206275657
105640.240274,0.104702045,-0.401205815,-1.0511615,-0.056182228,-0.110117085,-0.137492597
105640.250301,0.153891096,-0.731383891,-1.25773212,0.0688089728,-0.129446849,-0.0517699756
105640.260329,0.0478690548,-1.07790498,-1.28728321,0.174202517,-0.166321233,0.0298700277
105640.270357,-0.0568527179,-1.20500927,-1.31349843,0.240159154,-0.233778313,0.0819625258
105640.280384,-0.1859728,-1.18539929,-1.37036013,0.273759454,-0.334921718,0.0967800841
105640.290412,-0.423047206,-0.880189793,-1.14723468,0.248196587,-0.414615482,0.0935022682
105640.300439,-0.546906518,-0.520952504,-0.681816143,0.19776243,-0.449766785,0.0908870399
105640.310467,-0.581036897,-0.129732003,-0.445076594,0.141895711,-0.444556057,0.0914652124
105640.320494,-0.511941587,0.202758734,-0.337854237,0.0834742039,-0.431925207,0.0856557935
105640.330522,-0.518911573,0.71938826,0.142051679,-0.0134091973,-0.390693635,0.0703591257
105640.340550,-0.628890608,0.979732483,0.812877056,-0.114958465,-0.323517263,0.0575607754
105640.350577,-0.76670443,1.09725368,1.32726275,-0.232937828,-0.224437803,0.036037378
105640.360605,-0.755644691,0.98334892,1.72469029,-0.314620972,-0.112719797,0.0177688897
105640.370632,-0.613193127,0.690439594,1.58643625,-0.275650412,-0.00365296146,0.00460648211
105640.380660,-0.449188048,0.408576709,1.5450673,-0.191297174,0.105836779,0.0208403133
105640.390688,-0.351278878,0.231958525,1.73522922,-0.0902499184,0.224738136,0.0485153496
105640.400715,-0.354263666,0.0400603538,1.70224406,-0.0230130907,0.323746204,0.0827106014
105640.410743,-0.404108112,-0.0872806624,1.57944595,-0.0240384061,0.395307481,0.0939877629
105640.420770,-0.399766649,-0.0992379345,1.35388071,-0.0665136948,0.44227764,0.0889200345
105640.430798,-0.324836715,-0.100664899,1.03308749,-0.0814274028,0.463676423,0.0975742415
105640.440826,-0.17769312,-0.0949408949,0.654943918,-0.059312772,0.456742883,0.129292488
105640.450853,-0.0124749392,0.0503263118,0.435619614,-0.0384959094,0.424889058,0.151543468
105640.460881,0.157045323,0.211391026,0.291624401,-0.0573460273,0.373089254,0.148498669
105640.470908,0.480132856,0.206226264,0.196863465,-0.0625354648,0.286026776,0.145805955
105640.480936,0.762007431,0.204025539,-0.192076816,-0.0161394719,0.137659431,0.132403582
105640.490964,0.881466097,0.316890944,-0.24321196,-0.0163554531,-0.0190660059,0.0961489156
105640.500991,0.634298459,0.393631215,0.0752531016,-0.092221722,-0.153938606,0.0393333063
105640.511019,0.206790985,0.483853265,0.235845815,-0.204345852,-0.261528432,-0.0390967913
105640.521046,0.0506774633,0.573732785,0.339392114,-0.331955492,-0.330808192,-0.097211495
105640.531074,0.17687362,0.532737415,0.16689912,-0.385399997,-0.354843676,-0.105711475
105640.541102,0.318145839,0.381579762,-0.120171271,-0.329176128,-0.322985083,-0.0561010465
105640.551129,0.476674459,-0.00753054164,-0.317155732,-0.201784372,-0.241364241,0.0458623357
105640.561157,0.54856488,-0.477759113,-0.432685899,-0.0494715236,-0.162327215,0.163732231
105640.571184,0.349416372,-0.888912102,-0.580440758,0.0673648193,-0.110621668,0.253913552
105640.581212,0.0694866471,-1.09520697,-0.626436785,0.113639377,-0.110387579,0.287175089
105640.591240,0.00763093327,-1.13331488,-0.838975959,0.120400876,-0.179263055,0.266873032
105640.601267,0.0394100002,-0.913030864,-0.96985041,0.0878453255,-0.303190082,0.209620103
105640.611295,0.0940296252,-0.522393716,-1.16722066,0.0502958186,-0.440316767,0.149048895
105640.621322,0.228524605,-0.130867948,-1.15896779,0.00252536754,-0.524275839,0.111263715
105640.631350,0.168663061,0.281531096,-0.67781509,-0.066543445,-0.505012929,0.0883131251
105640.641378,0.0238872177,0.478910036,-0.138132459,-0.0986590385,-0.402833849,0.0978986397
105640.651405,0.0286428878,0.41085218,0.0335404506,-0.0669575706,-0.242468655,0.12994206
105640.661433,-0.0649635436,0.367788626,0.404066538,-0.0177370273,-0.03166987,0.160240561
105640.671460,-0.183472178,0.182030857,0.713863724,0.0273582805,0.179740921,0.20074299
105640.681488,-0.0574675618,-0.0967594886,0.551862314,0.0882197693,0.326873362,0.238649622
105640.691516,0.135763319,-0.250173469,0.5160697,0.129537106,0.420168698,0.26139304
105640.701543,0.287626125,-0.502223838,0.449585011,0.195123836,0.454865664,0.272062182
105640.711571,0.374294573,-0.567711186,0.388719332,0.241919577,0.461623192,0.257641703
105640.721599,0.313447014,-0.533036033,0.802977594,0.22727938,0.454179645,0.219828799
105640.731626,0.169138861,-0.531186751,0.931024712,0.223763213,0.424603105,0.175308466
105640.741654,0.109649073,-0.626272681,0.680220983,0.248890132,0.345656633,0.125454634
105640.751681,0.0181883484,-0.441135017,0.454411409,0.27450949,0.256085217,0.051972691
105640.761709,-0.190768802,-0.114107514,0.41047056,0.238197267,0.162295073,-0.0348562151
105640.771737,-0.427447487,0.294828896,0.277816824,0.154067218,0.102974229,-0.145339057
105640.781764,-0.5459867,0.734192227,0.241837164,0.0567968599,0.0756576583,-0.239647985
105640.791792,-0.413561439,0.899524389,0.0490039771,-0.00367447129,0.0602528639,-0.28527537
105640.801820,-0.336028483,0.946979822,-0.0350011708,-0.0412143916,0.0574464239,-0.312629223
105640.811847,-0.272442949,0.808399107,0.103747959,-0.0650366321,0.0692764595,-0.328257978
105640.821875,-0.153907682,0.472586825,0.139524791,-0.0359975249,0.0521283597,-0.328027636
105640.831902,0.0268768279,0.151514504,0.0175040925,0.00997928903,-0.00510536926,-0.336955875
105640.841930,0.255467849,0.0178661308,-0.00593991144,0.0326161571,-0.0812925473,-0.356602013
105640.851958,0.37392669,-0.0937250893,-0.211092482,0.0338332206,-0.16103372,-0.37446782
105640.861985,0.375242083,-0.151059088,-0.581049245,0.0181381498,-0.207479239,-0.381034136
105640.872013,0.246002978,-0.0749884594,-0.651781654,-0.0612765178,-0.200071394,-0.35255003
105640.882040,0.0324145153,-0.0095228845,-0.731371909,-0.12376599,-0.174703181,-0.293211311
105640.892068,-0.024807109,0.00524506105,-1.21261638,-0.118978158,-0.207300276,-0.225721508
105640.902096,-0.0707199883,-0.0077569708,-1.44034318,-0.0941457823,-0.286950648,-0.172610089
105640.912123,-0.223947725,-0.052267582,-1.32744395,-0.0845458806,-0.380351156,-0.137808695
105640.922151,-0.285610401,-0.178898258,-1.25600778,-0.071141392,-0.473550081,-0.115089536
105640.932179,-0.266491713,-0.219806899,-1.02284258,-0.108664803,-0.536625981,-0.110886797
105640.942206,-0.287455298,-0.277268981,-0.59702189,-0.150777638,-0.558209062,-0.106372476
105640.952234,-0.25759803,-0.48497372,-0.443308415,-0.153595537,-0.5548926,-0.0831289366
105640.962262,-0.105896552,-0.614131723,-0.262649066,-0.129265159,-0.534359396,-0.0458526723
105640.972289,0.0291322057,-0.629693814,-0.121214642,-0.083596468,-0.499974251,0.0016812901
105640.982317,0.0895049874,-0.520011497,0.0547556725,-0.0341719277,-0.456335157,0.053011857
105640.992344,0.191910811,-0.318049685,0.153014971,0.0241917819,-0.40632683,0.0987324715
105641.002372,0.300325374,-0.0212570884,0.485563503,0.0200878493,-0.338481218,0.130353779
105641.012400,0.355991147,0.200752582,0.881800955,-0.0163228884,-0.252769768,0.148116261
105641.022427,0.374020396,0.315096535,1.22099141,-0.0514036454,-0.149968281,0.155213848
105641.032455,0.379168244,0.419116516,1.77722302,-0.0875054523,-0.0143188424,0.156049013
105641.042483,0.344245874,0.443646781,2.01018773,-0.085443899,0.117759302,0.149895251
105641.052510,0.311533435,0.457843575,2.02664319,-0.0716074482,0.244792879,0.134604186
105641.062538,0.220290518,0.476267267,2.13783036,-0.0749374628,0.365906239,0.107540615
105641.072566,0.165306809,0.392293464,1.98326465,-0.0705211461,0.479415238,0.0783904493
105641.082593,0.262562301,0.270801466,1.56999423,-0.0414149277,0.559351623,0.0593371317
105641.092621,0.400207707,0.246391393,1.02787707,0.0170851368,0.593312263,0.0606364869
105641.102649,0.583303563,0.234572361,0.627223552,0.0588557497,0.582151711,0.0821068883
105641.112676,0.684446784,0.199627231,0.197732065,0.0907122195,0.532960474,0.0853897706
105641.122704,0.623935835,0.0654426324,-0.035888475,0.0679781437,0.456383944,0.0775390342
105641.132731,0.660745663,-0.100737891,-0.161118783,0.0491759591,0.365359485,0.0626050904
105641.142759,0.719045219,-0.208019577,-0.477408838,0.0628169402,0.241721466,0.0486362837
105641.152787,0.766624058,-0.186549577,-0.670609689,0.076052852,0.10288129,0.0249296203
105641.162814,0.797513118,-0.0281241977,-0.582325256,0.0367869325,-0.0373804867,-0.0061156461
105641.172842,0.675011577,0.0388026089,-0.358375631,-0.0289888829,-0.168770999,-0.0480306037
105641.182870,0.421302189,-0.026539778,-0.304916428,-0.0692766458,-0.290549099,-0.0904552937
105641.192897,0.170607546,-0.157543628,-0.571420416,-0.0489202477,-0.399190098,-0.133552432
105641.202925,-0.0854990397,-0.0402019543,-0.480641828,-0.0634027794,-0.471942604,-0.167060599
105641.212953,-0.318989852,0.133561206,-0.447370843,-0.102391988,-0.50157851,-0.19463709
105641.222980,-0.545754425,0.402895522,-0.427697005,-0.170731112,-0.493601561,-0.20169048
105641.233008,-0.510841554,0.3835553,-0.44708618,-0.174804673,-0.468938559,-0.161424279
105641.243036,-0.241038598,0.0201161747,-0.882814516,-0.0572649948,-0.476787955,-0.0791586936
105641.253063,-0.0478091413,-0.159899324,-0.928090997,0.0305338334,-0.484722316,-0.00252756942
105641.263091,-0.0894009425,-0.193035431,-0.497693501,0.0240644831,-0.48049587,0.0409503989
105641.273119,-0.10382223,-0.216388688,-0.302948928,-0.0370846279,-0.460549861,0.0365266241
105641.283146,0.0597496814,-0.131200907,-0.135951608,-0.100604475,-0.412771434,0.0243415944
105641.293174,0.191887814,-0.107925976,0.0162701668,-0.117643647,-0.347436905,0.0307611451
