t,ax,ay,az,gx,gy,gz
85819.641861,-0.106522831,0.2181934,-0.0425561162,0.0280851685,0.201142311,-0.0860291272
85819.651888,-0.00299187529,0.0845616127,-0.126207628,0.0937805548,0.248291984,-0.105419606
85819.661915,-0.00219853296,0.0527394008,-0.206331551,0.0819750354,0.210669771,-0.12292669
85819.671942,-0.0504471617,-0.0236275986,-0.235880301,-0.0140372515,0.0649828762,-0.126811177
85819.681969,-0.112233756,-0.210948251,-0.429299764,-0.130481303,-0.144791916,-0.109376267
85819.691996,0.00129924603,-0.184019948,-0.564131428,-0.245161802,-0.343093842,-0.0870733559
85819.702023,0.0434128791,-0.214586333,-0.559335426,-0.363265038,-0.513034403,-0.0657403693
85819.712050,-0.00756100984,-0.0603780425,-0.0259837516,-0.472550511,-0.644433439,-0.0418472886
85819.722077,0.0592148439,-0.111860867,-0.0196703306,-0.581363261,-0.717902601,-0.00765096769
85819.732105,-0.00595357464,-0.0353597749,0.280042684,-0.745280564,-0.741752267,0.0473486334
85819.742132,0.494923086,-0.0760588285,0.453519428,-0.789219558,-0.700341702,0.0831063688
85819.752159,0.570685014,-0.457845219,0.399360553,-0.808169544,-0.613245428,0.174486607
85819.762186,0.338106677,-0.530069146,0.758861389,-0.805856287,-0.442073941,0.26063481
85819.772213,0.367435209,-0.496868083,0.761959355,-0.652034521,-0.24325192,0.281671375
85819.782240,0.267175603,-0.18620069,0.635470571,-0.546432734,-0.0739555731,0.3158741
85819.792267,0.169505357,0.0481206915,0.370232658,-0.489956379,0.0352279097,0.383417457
85819.802294,0.159833127,0.00734948598,0.365782108,-0.413816363,0.0856276974,0.446102142
85819.812321,0.0192421683,0.158035064,0.0295358911,-0.329115033,0.108996935,0.452467889
85819.822348,-0.0972882617,0.323722178,-0.122325234,-0.22361736,0.116604254,0.409896195
85819.832376,-0.230136424,0.500161133,-0.138911043,-0.110793352,0.125212401,0.31951037
85819.842403,-0.282323854,0.522359521,-0.158826872,-0.0267708898,0.131088391,0.211110681
85819.852430,-0.189476862,0.288762801,-0.174773214,0.0109000579,0.137290373,0.102575935
85819.862457,0.159851685,0.258693679,-0.090883217,-0.0318218395,0.124635287,0.00317611312
85819.872484,0.487386627,0.200609593,-0.172342772,-0.00618891511,0.120915383,-0.0640628487
85819.882511,0.21063882,0.0253782599,-0.213158182,0.0864110589,0.130644709,-0.0911722258
85819.892538,-0.212968578,-0.0362407956,-0.0551736057,0.127159297,0.151448533,-0.0899500996
85819.902565,-0.378980174,-0.0205776547,0.0693318949,0.101947144,0.15400517,-0.0629776046
85819.912592,-0.289629354,0.0537129586,-0.144662738,0.0575514473,0.111514159,-0.043050237
85819.922620,-0.0686849022,0.22974684,-0.410446595,-0.0225263424,0.0453647003,-0.0580989644
85819.932647,0.139877988,0.27382907,-0.442241663,-0.0573690124,-0.0310456529,-0.0992139056
85819.942674,0.173358598,0.180318208,-0.550061402,0.0495680906,-0.0813034996,-0.153359175
85819.952701,-0.0572290038,0.363963734,-0.183930919,0.115083717,-0.0751406774,-0.205626637
85819.962728,-0.195859476,0.338350277,0.277026551,0.105464913,-0.0622246079,-0.21415329
85819.972755,-0.0821928378,0.0182104872,0.114949152,0.105928831,-0.0642483532,-0.183130383
85819.982782,0.0390951621,-0.0740716368,-0.0804226132,0.146530867,-0.0652217343,-0.151414007
85819.992809,0.0747873838,-0.0108462421,-0.0416214657,0.174819499,-0.0419329219,-0.133523673
85820.002836,0.0434758614,0.146994469,0.221706815,0.207135886,-0.0121971294,-0.118595593
85820.012864,0.127232953,0.16176994,0.164414317,0.200511277,-0.00912703667,-0.106340796
85820.022891,0.224375888,0.0730835756,-0.00984159506,0.181712821,-0.0513104424,-0.0854773223
85820.032918,0.168347711,-0.0313246742,-0.151134564,0.153885454,-0.123050943,-0.0836210996
85820.042945,0.180457397,0.0932885976,-0.0722445675,0.150081918,-0.19351925,-0.102093585
85820.052972,0.189395979,0.211728441,0.0739057787,0.185362145,-0.214422137,-0.130565435
85820.062999,0.334889469,0.306570991,0.316569457,0.238820314,-0.16297093,-0.147217393
85820.073026,0.482600634,0.326591523,0.49417994,0.301424026,-0.0438029915,-0.142766446
85820.083053,0.539496022,0.238195008,0.606695143,0.346332639,0.110701889,-0.11790318
85820.093080,0.540879001,0.0711288613,0.666855305,0.381399542,0.244265288,-0.0751655623
85820.103108,0.518024853,0.00986548739,0.555297549,0.419316292,0.332281142,-0.0237582996
85820.113135,0.453229944,0.107190903,0.354736983,0.488053024,0.380489677,0.0152333081
85820.123162,0.193522338,0.209303004,0.00263210207,0.552949727,0.323084176,0.0274273902
85820.133189,0.0340123789,0.36109395,-0.212511116,0.524972677,0.191139221,0.031903632
85820.143216,-0.0783843123,0.249043698,-0.238733937,0.529121339,0.0785639286,-0.0010284856
85820.153243,-0.201542928,0.19712566,-0.353981196,0.532977343,-0.024145402,-0.0304990262
85820.163270,-0.0984190193,0.142291917,-0.20608839,0.520133197,-0.0781433955,-0.0604409426
85820.173297,-0.0653979165,0.0498788237,0.00968728128,0.465035588,-0.116639122,-0.0679127127
85820.183325,0.104975236,-0.0645301389,0.130948101,0.395151317,-0.13248013,-0.0297200531
85820.193352,0.352487304,-0.190073111,0.290872121,0.375102252,-0.109243788,-0.012993535
85820.203379,0.116049734,-0.263257243,0.205856919,0.336983085,-0.140459225,0.000410952605
85820.213406,0.0310017259,-0.155135653,0.196152102,0.211494148,-0.165875629,-0.0367675759
85820.223433,0.460522585,0.165110099,0.409196887,0.0881732702,-0.127118647,-0.0320492536
85820.233460,0.368312576,0.401018111,0.0980599767,0.177859217,-0.178709939,-0.143740356
85820.243487,0.677649378,0.751063282,-0.38659401,0.0970320106,-0.159166068,-0.261146903
85820.253514,0.300463906,0.72247607,0.0264338334,0.177080512,-0.196227953,-0.393940359
85820.263542,0.186532991,0.596651523,-0.427688821,0.0665417463,-0.260282844,-0.422197282
85820.273569,0.505145936,0.194591538,0.0668798256,0.0993897095,-0.288452178,-0.468342423
85820.283596,0.0312825886,0.057621008,-0.331665319,0.199050531,-0.359288245,-0.441025853
85820.293623,0.0480610703,-0.332199791,0.242821499,0.258981228,-0.242356032,-0.25308603
85820.303650,-0.44072797,-1.46226641,1.32108903,0.318439752,-0.0212060697,0.115489073
85820.313677,-1.08522539,-2.13688387,1.96419696,0.152936563,0.182689533,0.369044363
85820.323704,-0.433340929,-1.12047564,1.71462307,0.112374753,0.268482983,0.315793395
85820.333731,0.251282015,0.415769689,0.389557536,0.153114736,0.227702022,0.1673536
85820.343759,0.352948419,0.553031759,-0.110208095,0.169525132,0.211853281,0.137910485
85820.353786,0.355425622,-0.0833664116,0.215645323,0.171646595,0.225015432,0.21778962
85820.363813,0.420828946,-0.490837571,0.180676885,0.142359287,0.234196678,0.327739805
85820.373840,0.748993417,-0.360509648,-0.117338093,0.172709465,0.234024361,0.381077588
85820.383867,0.23056349,-0.0665706683,-0.594639964,0.219971791,0.14690198,0.350582272
85820.393894,-0.193991928,0.273554235,-0.906731398,0.293084055,0.0572285503,0.306307495
85820.403921,-0.0856933202,0.233462408,-0.755413294,0.302656531,0.0262868796,0.310547769
85820.413949,-0.0338577729,0.294103303,-0.271194191,0.228553295,0.0499687716,0.258037955
85820.423976,-0.738336048,0.839990835,0.356226344,0.258930624,0.0574858114,0.154413313
85820.434003,-0.768533911,0.638194443,0.221060333,0.204867139,0.0730527863,0.0556486435
85820.444030,-0.515252977,0.541333029,0.437402991,0.145858675,0.0807855353,-0.00891437195
85820.454057,-0.365316756,0.488114977,0.421560109,0.12696515,0.0767519176,-0.0513084345
85820.464084,-0.278116611,0.299423146,0.246412801,0.0681239292,0.0574298836,-0.0587471724
85820.474111,-0.172485249,0.33819662,0.222412333,0.0288895722,0.0154000409,-0.0464080349
85820.484138,-0.161001586,0.276462542,0.181419228,0.00358528085,-0.0269061364,-0.0452362448
85820.494166,-0.124464949,0.222524195,0.154932203,-0.00898483954,-0.0558986403,-0.0441680476
85820.504193,0.125688135,0.0704745256,0.0938286228,0.0292738657,-0.0547050126,-0.0220188033
85820.514220,0.194843065,-0.123367473,0.000787935507,0.046798531,-0.0389729179,-0.0118282177
85820.524247,-0.0272893543,-0.0916273133,0.0999058969,0.115486249,0.0127922734,0.00286630634
85820.534274,-0.0267249253,-0.00996507531,0.0186550161,0.0684473664,0.0420170054,0.00298694754
85820.544301,-0.190110922,0.0546729262,0.203904031,0.0462328754,0.0344757326,-0.00399026833
85820.554328,-0.294096855,0.0454598748,0.157678871,-0.00644764584,0.00763745932,-0.00377029087
85820.564356,-0.296315846,0.141378054,0.185654089,-0.119750232,-0.0283098891,0.00689886464
85820.574383,-0.459650698,0.110822135,0.249113877,-0.222791657,-0.0767027214,0.021013353
85820.584410,-0.544072537,-0.0590230111,0.0613449878,-0.314435035,-0.131098598,0.0265282262
85820.594437,-0.529652382,-0.195826779,-0.115738257,-0.381565064,-0.185493648,0.0301386733
85820.604464,-0.452255546,-0.243135296,-0.341644861,-0.384097993,-0.227130324,0.0387667827
85820.614491,-0.3431842,-0.224370828,-0.576003652,-0.323344916,-0.251891315,0.0580193102
85820.624518,-0.26627902,-0.162840967,-0.657179714,-0.242518768,-0.250813812,0.0759434476
85820.634546,-0.163924999,-0.0308413477,-0.602382541,-0.144492596,-0.231470734,0.0830753967
85820.644573,-0.156501425,0.14978999,-0.636316959,-0.0162281059,-0.202640146,0.0748994872
85820.654600,-0.260893674,0.239006544,-0.613386165,0.0877081528,-0.173969358,0.0557731986
85820.664627,-0.34168059,0.249302842,-0.3690566,0.129536822,-0.148002744,0.0293320026
85820.674654,-0.439785867,0.211697498,-0.0682224724,0.12879619,-0.139424413,-0.00153882895
85820.684681,-0.51909387,0.118057037,0.165402744,0.0828111321,-0.141178638,-0.0430404618
85820.694708,-0.615464214,0.0944257667,0.348677829,0.0282810405,-0.140954405,-0.0828864127
85820.704736,-0.578234845,0.0207164604,0.549172344,-0.0530487038,-0.118685856,-0.110675432
85820.714763,-0.395521705,-0.0455246106,0.810590991,-0.170269594,-0.0637275353,-0.0947883427
85820.724790,-0.229009101,-0.148422858,0.907567264,-0.211568311,-0.0354226604,-0.10448651
85820.734817,-0.544077578,0.0300614767,0.385839392,-0.202513024,-0.07239905,-0.139324933
85820.744844,-0.524202884,-0.090144911,0.0217447988,-0.200001657,-0.105059527,-0.180575967
85820.754871,-0.38542935,-0.044832249,-0.0184469263,-0.176619381,-0.107706442,-0.196044937
85820.764899,-0.370555971,0.0627174863,0.0156996734,-0.128310427,-0.0780007467,-0.188820317
85820.774926,-0.332299379,-0.0381298653,0.102376671,-0.096291244,-0.0409961231,-0.178444639
85820.784953,-0.235383969,-0.0516550396,0.192522221,-0.0948936194,-0.0121996291,-0.160254449
85820.794980,-0.247734771,-0.0906646971,0.248889421,-0.110474974,-0.010108781,-0.135147497
85820.805007,-0.282297988,-0.201968844,0.213440506,-0.151010945,-0.0329709537,-0.110065036
85820.815034,-0.284705415,-0.230883662,0.127649059,-0.174454495,-0.0820053443,-0.0873083249
85820.825061,-0.252742589,-0.212328161,-0.0136263743,-0.191843599,-0.135765761,-0.0649247244
85820.835089,-0.22922815,-0.188649672,-0.0748427673,-0.213619202,-0.186623365,-0.053724803
85820.845116,-0.231393877,-0.160664901,-0.157192549,-0.223636687,-0.238435149,-0.0467505157
85820.855143,-0.22615846,-0.128378643,-0.267077404,-0.220769256,-0.263201505,-0.0435070544
85820.865170,-0.140662818,-0.08282656,-0.156900873,-0.22688441,-0.259457886,-0.035900265
85820.875197,-0.096059962,-0.0171892544,-0.0312187296,-0.218353242,-0.231409222,-0.0193401966
85820.885224,-0.101412064,-0.0172005795,0.122429863,-0.224198341,-0.187102467,-0.00723825954
85820.895252,-0.179479857,-0.000997121279,0.260451848,-0.256285161,-0.143937945,-0.0105690751
85820.905279,-0.33631362,0.0397666316,0.27409342,-0.277164102,-0.117488764,-0.0279584508
85820.915306,-0.469900508,0.0829081282,0.139273446,-0.268585771,-0.114195235,-0.0537532941
85820.925333,-0.544614973,0.116409964,0.00798281545,-0.253762901,-0.117705017,-0.0887530893
85820.935360,-0.635465895,0.12451531,-0.0202244574,-0.228131041,-0.114271671,-0.126702607
85820.945387,-0.684800858,0.0860467002,-0.036156186,-0.177654818,-0.101131901,-0.166191161
85820.955414,-0.673364541,0.0356994552,-0.022870588,-0.11625883,-0.0753751323,-0.191602513
85820.965442,-0.575704158,0.00985719448,0.0710948129,-0.0622781552,-0.0465091318,-0.194990858
85820.975469,-0.487197059,0.0136272876,0.134006904,0.000327169488,-0.0248214137,-0.177758068
85820.985496,-0.395858134,0.0261582679,0.147646138,0.0423353389,-0.0188814998,-0.151673213
85820.995523,-0.346816199,0.0909858006,0.198965991,0.069148846,-0.0288065691,-0.127167866
85821.005550,-0.369164334,0.135806756,0.23426176,0.0787415504,-0.0549047478,-0.117709912
85821.015577,-0.510547758,0.273178607,0.201935362,0.0849424601,-0.0949054286,-0.120397307
85821.025605,-0.690967125,0.286414904,0.12251345,0.0939298272,-0.130816817,-0.119275041
85821.035632,-0.777402715,0.230355839,0.208382638,0.0800896436,-0.152242482,-0.109162755
85821.045659,-0.799138965,0.145051628,0.449534158,0.0487050861,-0.157055348,-0.0852465034
85821.055686,-0.803319466,0.0346983336,0.70427815,-0.0248911008,-0.153600425,-0.0449384972
85821.065713,-0.790635998,-0.0431406746,0.915154943,-0.156776696,-0.15947324,0.00410440983
85821.075740,-0.775582514,0.00721131962,0.972772435,-0.451174498,-0.0900105387,0.028803898
85821.085768,-0.819504512,0.598640578,1.33548346,-0.36777097,-0.0812692419,0.0515004247
85821.095795,-0.967750369,-0.473477015,0.160970899,-0.320441782,-0.109063588,0.0811185017
85821.105822,-0.965503759,0.276076849,0.33153614,-0.29358834,-0.143023431,0.0837395862
85821.115849,-0.756258805,0.545440939,0.195700851,-0.217876539,-0.182379872,0.0685345307
85821.125876,-0.586152633,0.595441562,0.0922480756,-0.193909675,-0.207202673,0.0225912742
85821.135903,-0.430163578,0.972885101,0.270072494,-0.220071509,-0.240588874,-0.028036749
85821.145931,-0.567600127,0.44879408,0.0347831441,-0.243016243,-0.255755574,-0.0236286838
85821.155958,-0.617996947,0.330309119,-0.0538929182,-0.24380374,-0.259960711,-0.0233751517
85821.165985,-0.613368191,0.383543463,-0.281975698,-0.226654574,-0.263870478,-0.0363077298
85821.176012,-0.578916106,0.465830628,-0.404485056,-0.191955447,-0.262362599,-0.0645766482
85821.186039,-0.57970152,0.579430412,-0.363454542,-0.185854957,-0.252947807,-0.101941861
85821.196066,-0.587499188,0.548924214,-0.311440862,-0.181841567,-0.235399961,-0.130342618
85821.206094,-0.481933841,0.475683549,-0.361201795,-0.151785135,-0.214215308,-0.142674387
85821.216121,-0.379092402,0.43674102,-0.479712439,-0.0831892937,-0.191651136,-0.13814275
85821.226148,-0.23238687,0.336539866,-0.593752659,-0.00363188563,-0.180019259,-0.116695516
85821.236175,-0.169629367,0.309117972,-0.665170713,0.106025368,-0.178080469,-0.0852635503
85821.246202,-0.135428589,0.187711022,-0.665142071,0.208055332,-0.175136089,-0.0627023131
85821.256229,-0.0550797351,0.176771329,-0.490827707,0.250695735,-0.165109277,-0.0537948385
85821.266257,-0.0853849484,0.199231254,-0.222532744,0.246586487,-0.171730697,-0.0443792343
85821.276284,-0.151790179,0.186648032,-0.0837853677,0.242463902,-0.186252385,-0.0425389931
85821.286311,-0.139862452,0.198152701,0.00978840356,0.233558834,-0.20121482,-0.0501047671
85821.296338,-0.0910564912,0.301591266,0.123982938,0.217285052,-0.210251987,-0.0662392601
85821.306365,-0.0733606116,0.378066712,0.249982477,0.201015532,-0.202958673,-0.0843066797
85821.316392,-0.0764941786,0.35893743,0.370384633,0.159847587,-0.183041155,-0.0974738747
85821.326420,-0.0186168761,0.300189034,0.488913398,0.120251179,-0.149091691,-0.1002433
85821.336447,0.112033365,0.237023882,0.524672109,0.0833357722,-0.117875189,-0.0818357989
85821.346474,0.214261869,0.217839581,0.528090977,0.0444219261,-0.10113696,-0.0489098057
85821.356501,0.249763208,0.208343914,0.417659595,0.0292829201,-0.103093848,-0.0157718267
85821.366528,0.215016395,0.307727211,0.276353182,0.036724057,-0.119139396,0.0101665631
85821.376556,0.183412448,0.384814543,0.153902275,0.0482571423,-0.140411139,0.022887418
85821.386583,0.183838034,0.399234953,0.048093292,0.0799157396,-0.155398339,0.0237635989
85821.396610,0.164892182,0.380895068,-0.0437964716,0.13542667,-0.148664802,0.0270874891
85821.406637,0.246002668,0.38662952,0.0309194544,0.1673356,-0.119117022,0.0405569598
85821.416664,0.326892698,0.394336039,0.263148832,0.16600588,-0.0756798014,0.0611479878
85821.426691,0.293818038,0.357168119,0.392317064,0.148634613,-0.0385785066,0.0915863216
85821.436719,0.268637803,0.355139353,0.4407599,0.11051546,-0.0236395039,0.118481323
85821.446746,0.223418587,0.415538255,0.433393171,0.0712069348,-0.0295035169,0.130285248
85821.456773,0.148221636,0.410557289,0.358652695,0.0299841315,-0.0460257679,0.131896988
85821.466800,0.0836198932,0.310060111,0.198946117,0.0243129302,-0.0561255403,0.120853402
85821.476827,0.0859006428,0.272775214,0.0211707983,0.0576754101,-0.0459418334,0.101128615
85821.486854,0.0502972684,0.218285572,-0.0995072529,0.12325149,-0.0126872063,0.0788810998
85821.496882,0.0276607631,0.0957498366,-0.147063369,0.162360281,0.0183830969,0.0421574414
85821.506909,0.0251997798,0.0674886782,-0.142186119,0.220645696,0.0518390536,-0.00720691122
85821.516936,0.0889256349,0.142327244,-0.153838563,0.267791361,0.103354983,-0.0433294959
85821.526963,0.276825932,0.127963441,0.0436953493,0.26581794,0.176203355,-0.0503032506
85821.536990,0.487860053,0.0780341289,0.355722486,0.212848231,0.260472685,-0.0183208156
85821.547018,0.629914691,-0.0684910784,0.615400428,0.0976470634,0.335615903,0.0428195037
85821.557045,0.719146049,-0.199219746,0.765080701,-0.0763066262,0.3835347,0.11698854
85821.567072,0.752792736,-0.191019909,0.683652126,-0.272505432,0.392999589,0.194227397
85821.577099,0.626545214,-0.0798313145,0.337315892,-0.427368253,0.360783041,0.266402781
85821.587126,0.38045748,-0.00542556871,-0.224428349,-0.524294555,0.292516917,0.316973269
85821.597153,0.0580236111,0.000257664555,-0.925128056,-0.529683709,0.193340525,0.33894223
85821.607181,-0.260960108,-0.0654082187,-1.69747319,-0.414450049,0.0911270753,0.33444792
85821.617208,-0.354885195,-0.00459554763,-2.33768891,-0.16179809,0.0180328898,0.331130922
85821.627235,-0.282208319,0.11947295,-2.5980788,0.155650184,-0.00704822876,0.3360008
85821.637262,-0.219116542,0.154584376,-2.32950853,0.454612374,0.0208257474,0.347682178
85821.647289,-0.263068789,0.108068964,-1.66967509,0.667820811,0.078521803,0.358324707
85821.657317,-0.379597356,0.0564431872,-0.859325504,0.772298992,0.129732788,0.372270882
85821.667344,-0.611736717,-0.0451627915,-0.163449271,0.763047993,0.144989774,0.368885219
85821.677371,-0.889828121,-0.0805836947,0.392138785,0.672850192,0.112827048,0.341101289
85821.687398,-1.16004989,-0.107152233,0.728527625,0.54199177,0.0457521342,0.293356121
85821.697425,-1.3272477,-0.193133759,0.958163479,0.363505095,-0.0289604515,0.230917245
85821.707452,-1.32143112,-0.276407579,1.18345575,0.132620499,-0.0987091735,0.165118515
85821.717480,-1.21965629,-0.236038579,1.24712129,-0.0491730087,-0.159130707,0.108117819
85821.727507,-1.02564565,-0.0688453535,0.998931543,-0.150999501,-0.200360969,0.0674843714
85821.737534,-0.698816158,0.0448079959,0.69396543,-0.206885934,-0.211177662,0.0332688764
85821.747561,-0.459757044,0.147223254,0.399838107,-0.189310402,-0.197542801,6.83125108e-05
85821.757588,-0.258604832,0.214442998,0.0416208812,-0.118983783,-0.171654746,-0.0341937877
85821.767616,-0.0465368975,0.292903152,-0.230675134,0.00022623199,-0.143402606,-0.072941713
85821.777643,0.0793854796,0.295661511,-0.332598216,0.134567529,-0.106481872,-0.110337295
85821.787670,0.0857039877,0.213431574,-0.237672446,0.245665818,-0.0662785247,-0.14084141
85821.797697,0.0750138221,0.0216379044,0.0634592035,0.310753465,-0.0291969404,-0.168537483
85821.807724,0.0177575238,-0.193992842,0.373957816,0.311270922,-0.00690095592,-0.19628948
85821.817752,0.0265980293,-0.296415361,0.671808543,0.265388906,-0.00351234991,-0.228388295
85821.827779,0.0623430133,-0.333409678,0.885972103,0.1765576,-0.00472195772,-0.250613153
85821.837806,0.206923964,-0.360713901,1.11827981,0.0437622555,-0.00226119673,-0.253133297
85821.847833,0.385078929,-0.362889273,1.34081723,-0.11971429,-0.000112291891,-0.240707546
85821.857860,0.494202115,-0.298903287,1.37071318,-0.272713155,-0.00648017647,-0.220104009
85821.867888,0.547357805,-0.210771707,1.14695645,-0.392509341,-0.0342718624,-0.215654388
85821.877915,0.62061524,-0.173514501,0.738095664,-0.418412566,-0.0671975836,-0.231668249
85821.887942,0.737984239,-0.1108164,0.259617735,-0.382981896,-0.0787940547,-0.249830738
85821.897969,0.892378171,-0.0703063294,-0.00348550403,-0.301920325,-0.0605271682,-0.250757813
85821.907996,0.98071901,-0.152454214,-0.176198278,-0.216605678,-0.0346662737,-0.241519555
85821.918024,1.00938411,-0.294278057,-0.350003524,-0.0941727087,-0.00944507401,-0.218936205
85821.928051,1.02641489,-0.330990196,-0.467355061,0.0264282748,0.0269520842,-0.187599063
85821.938078,1.04590686,-0.349685764,-0.279276376,0.087390691,0.0760514513,-0.134348348
85821.948105,0.968232015,-0.368182776,0.0927811595,0.0819216296,0.122853577,-0.0727552921
85821.958132,0.788841516,-0.441096438,0.409295671,0.0229978561,0.148487031,-0.000539687462
85821.968159,0.59052935,-0.523728727,0.596404051,-0.0873664692,0.132034034,0.0700852126
85821.978187,0.386491974,-0.447795315,0.600320932,-0.186836585,0.0713613629,0.122907683
85821.988214,0.188572242,-0.291271331,0.418195601,-0.261300981,-0.00204281742,0.150559813
85821.998241,0.0055417744,-0.0848088472,0.264148365,-0.314301342,-0.0614270456,0.137279436
85822.008268,-0.145773375,0.132729742,0.144195705,-0.323427469,-0.0797559842,0.0986028761
85822.018295,-0.228437749,0.20025435,0.0446533807,-0.304233283,-0.0516833402,0.0559014827
85822.028323,-0.277211972,0.19932622,0.0126344406,-0.245292708,0.0116349114,0.0252410434
85822.038350,-0.315108444,0.169563864,-0.0784556971,-0.165003195,0.0845674425,-0.00664152205
85822.048377,-0.3765783,0.161979637,-0.207298935,-0.0779782906,0.14473784,-0.0469852164
85822.058404,-0.44354595,0.203409818,-0.403225996,-0.00037084872,0.182395473,-0.091284506
85822.068431,-0.499854077,0.239682909,-0.53806409,0.0508902073,0.206850752,-0.135785654
85822.078459,-0.459603899,0.249827889,-0.46021045,0.0628137141,0.217556655,-0.168834418
85822.088486,-0.365542235,0.165483426,-0.280834126,0.0277816951,0.21598193,-0.186532721
85822.098513,-0.269096233,-0.0126888194,-0.101971597,-0.0490281321,0.195267066,-0.185908481
85822.108540,-0.223773191,-0.126330743,-0.0788145935,-0.0997970402,0.153895125,-0.172425702
85822.118568,-0.261992648,-0.181494997,-0.271806186,-0.0949820429,0.102804504,-0.157648355
85822.128595,-0.324049291,-0.129657367,-0.452121252,-0.0428333543,0.0797676295,-0.142359138
85822.138622,-0.380334511,-0.0861160026,-0.492032407,0.0200364217,0.0894423574,-0.136858121
85822.148649,-0.484344921,-0.0704299558,-0.408151762,0.0947535336,0.116579704,-0.147860169
85822.158676,-0.580442183,-0.0931420653,-0.453939115,0.186855242,0.149562418,-0.173961267
85822.168703,-0.645110798,-0.0993507472,-0.452124759,0.259049803,0.186512455,-0.194262281
85822.178731,-0.66511153,-0.220720361,-0.259546424,0.261844248,0.215608284,-0.20681642
85822.188758,-0.669371379,-0.3170229,0.0060135612,0.221984729,0.219156146,-0.219207317
85822.198785,-0.702752986,-0.415443526,0.0863163475,0.193783984,0.193233475,-0.227348059
85822.208812,-0.701149204,-0.535257216,0.063285016,0.13189292,0.147301659,-0.226988807
85822.218840,-0.557624055,-0.580025163,0.230628957,0.0245560743,0.0924229696,-0.214964628
85822.228867,-0.384958299,-0.556984041,0.272641468,-0.0732557103,0.0359248035,-0.182135046
85822.238894,-0.1589271,-0.501370801,0.231333306,-0.211693212,-0.0142922932,-0.126203343
85822.248921,0.0857396253,-0.319503976,0.17977789,-0.328789741,-0.0624084212,-0.0661171004
85822.258948,0.2148522,-0.0580192044,-0.120384621,-0.382610381,-0.103262112,-0.021867346
85822.268976,0.207774735,0.292557663,-0.505229157,-0.364130706,-0.117528401,-0.0176164079
85822.279003,0.161942045,0.606947182,-0.778545748,-0.264426202,-0.09915445,-0.0521898307
85822.289030,0.0846992311,0.670453256,-0.87978377,-0.10442774,-0.035863366,-0.115195163
85822.299057,-0.0181915268,0.526188943,-0.774042007,0.0927300677,0.0634363219,-0.186697036
85822.309084,-0.121709751,0.181629364,-0.494206828,0.296499163,0.174769506,-0.244472995
85822.319112,-0.163463848,-0.259229942,-0.0964735843,0.427068889,0.267843515,-0.261733472
85822.329139,-0.166441585,-0.650684799,0.447006101,0.443120569,0.308060467,-0.236079499
85822.339166,-0.102125491,-0.955674877,0.821520382,0.353491873,0.245697215,-0.131350428
85822.349193,-0.126948656,-0.917532047,0.915044468,0.136929229,0.124276504,0.0192438699
85822.359220,-0.304872717,-0.742552716,1.11983171,-0.0432815664,-0.0115857227,0.154147089
85822.369248,-0.366235113,-0.631795244,1.13885147,-0.328813732,-0.151596084,0.245066077
85822.379275,-0.407627226,-0.0769378947,1.15752227,-0.571879089,-0.272430897,0.240971476
85822.389302,-0.576209039,0.310259835,0.631702159,-0.679017246,-0.351088703,0.17015402
85822.399329,-0.50777212,0.462545871,0.0789168848,-0.696790934,-0.34814775,0.0736048445
85822.409357,-0.224575191,0.449175189,-0.204405551,-0.666643441,-0.2727108,-0.0190899353
85822.419384,0.107816579,0.354153958,-0.404751013,-0.570643663,-0.166688219,-0.0728133544
85822.429411,0.343593475,0.354195423,-0.797267984,-0.37348026,-0.0913620442,-0.0962006971
85822.439438,0.448098426,0.459743344,-1.31008716,-0.076066941,-0.0573604032,-0.108585462
85822.449465,0.393568854,0.626442923,-1.48220314,0.19049418,-0.0404085815,-0.137136146
85822.459493,0.167967407,0.637909635,-1.06399643,0.351927787,-0.0160838012,-0.180061772
85822.469520,-0.0689392515,0.374044471,-0.249454069,0.389005125,0.0246638954,-0.219642743
85822.479547,-0.138027711,0.0281160874,0.543566194,0.319207698,0.0708181933,-0.2347949
85822.489574,-0.0965018058,-0.302397614,1.07197691,0.183972925,0.0973320901,-0.214056075
85822.499601,0.0520646342,-0.578041588,1.29091075,0.0086897891,0.095247902,-0.140746966
85822.509629,0.254651382,-0.787438225,1.2615695,-0.159161791,0.0498367436,-0.0267588831
85822.519656,0.344910768,-0.806382214,0.987585388,-0.277349174,-0.0340349898,0.0993694887
85822.529683,0.351846449,-0.700448363,0.55234396,-0.351234853,-0.149644405,0.203930795
85822.539710,0.283009589,-0.489062597,0.135306881,-0.36854592,-0.264201611,0.271586537
85822.549738,0.241154936,-0.191272002,-0.146063252,-0.345420092,-0.340930998,0.310419679
85822.559765,0.255514684,-3.86880426e-05,-0.184191615,-0.285758883,-0.363495171,0.328369111
85822.569792,0.245807182,0.116197326,-0.0806271959,-0.238663539,-0.32987383,0.324039876
85822.579819,0.156744002,0.226265428,0.0806961695,-0.179697692,-0.268374234,0.289056599
85822.589846,-0.020335601,0.27225919,0.0504009845,-0.102356307,-0.19905296,0.23487246
85822.599874,-0.123871861,0.22760296,0.0295136793,-0.0417129323,-0.133937344,0.172621861
85822.609901,-0.195012211,0.193349466,0.0208382054,0.0099670412,-0.0835458189,0.112740159
85822.619928,-0.242667971,0.161645291,0.0173918643,0.0403073691,-0.0522526093,0.070837453
85822.629955,-0.242665852,0.167365787,0.00571370147,0.0578200519,-0.0542036407,0.0346347056
85822.639983,-0.308881971,0.335794528,-0.105922381,0.087416023,-0.0799364373,-0.00751301367
85822.650010,-0.307410291,0.502323426,-0.151088972,0.122142047,-0.110002458,-0.0547207445
85822.660037,-0.265482572,0.548305206,-0.0468973603,0.151417643,-0.112070404,-0.113577135
85822.670064,-0.244944592,0.525664627,0.120183546,0.18934159,-0.0815934539,-0.167587906
85822.680091,-0.16314627,0.334615036,0.321269013,0.204144508,-0.0211412925,-0.204938471
85822.690119,-0.0143974957,0.188611478,0.498755577,0.203079239,0.0436291806,-0.214984447
85822.700146,0.00700524825,0.107583884,0.387477807,0.215183839,0.0721071586,-0.208715901
85822.710173,-0.0180045346,0.0433114646,0.101066757,0.253453195,0.0556368418,-0.194505811
85822.720200,-0.0703885278,0.108160515,-0.183196174,0.329100817,0.0134720774,-0.191363543
85822.730228,-0.142192128,0.214997015,-0.367210095,0.420296222,-0.0236350764,-0.20444046
85822.740255,-0.194462085,0.291044153,-0.279688464,0.514892042,-0.0358968042,-0.225940689
85822.750282,-0.167622904,0.295868979,0.142799282,0.561411858,0.0041323714,-0.247157305
85822.760309,-0.0824055581,0.217633026,0.781738406,0.524026394,0.0735846832,-0.27068314
85822.770336,0.00350189804,0.117871579,1.25641928,0.438905329,0.138029456,-0.289824605
85822.780364,0.0980944087,0.0214687584,1.39172616,0.312217712,0.173904642,-0.285015464
85822.790391,0.275758906,-0.0790645132,1.28283967,0.177880943,0.162600055,-0.245929569
85822.800418,0.427172506,-0.115175654,0.922268574,0.11134053,0.115854107,-0.190690294
85822.810445,0.514966561,-0.0261191049,0.350288186,0.0980305821,0.0720736012,-0.135630503
85822.820473,0.563106761,0.00940914019,0.0332481896,0.0936691239,0.0600536913,-0.0854211301
85822.830500,0.557292047,0.00392252547,-0.113044195,0.128584236,0.081369631,-0.044437211
85822.840527,0.526270703,0.0544909937,-0.25522973,0.193449527,0.122740246,-0.0167664327
85822.850554,0.519336447,0.0904914046,-0.333160526,0.272762716,0.173283592,-0.00481150392
85822.860582,0.486495706,0.122638629,-0.358579045,0.333475322,0.211967602,-0.00100478157
85822.870609,0.489825909,0.203703577,-0.238970669,0.330898166,0.232937858,-0.00325568486
85822.880636,0.450754786,0.344729347,0.0493956068,0.227177396,0.229320228,-0.0180636607
85822.890663,0.364859733,0.470407435,0.38101358,0.0644486547,0.209886074,-0.0440987237
85822.900690,0.225360643,0.543162692,0.454296842,-0.0736990944,0.175297737,-0.0528101884
85822.910718,0.200133829,0.350051053,0.318062326,-0.143394276,0.144556329,-0.030921936
85822.920745,0.237290077,0.14223067,0.0682353318,-0.144222796,0.126027659,-0.0025576707
85822.930772,0.278367481,-0.133992839,-0.160370595,-0.135619178,0.133390501,0.0385418274
85822.940799,0.445516301,-0.241591592,-0.248817524,-0.12554045,0.154761836,0.0936319754
85822.950827,0.635729076,-0.180756545,-0.348858446,-0.119574443,0.175033286,0.175370783
85822.960854,0.774405579,-0.056466495,-0.580771597,-0.0726607293,0.176410407,0.278512895
85822.970881,0.680975162,0.143016843,-1.04276192,0.0286429916,0.148121506,0.377134532
85822.980908,0.480753947,0.404352004,-1.43261522,0.130869225,0.0986940265,0.450012982
85822.990936,0.19074122,0.665560297,-1.45614164,0.208147511,0.0498314165,0.482936591
85823.000963,-0.17686414,0.721839087,-1.18627432,0.263390779,0.0110800257,0.471280456
85823.010990,-0.529184179,0.755585436,-0.781274296,0.293735087,-0.000587814953,0.41754213
85823.021017,-0.784534101,0.819915138,-0.342992184,0.307262897,0.0142089743,0.33384192
85823.031045,-0.870974879,0.875831306,0.0340787952,0.305222362,0.0517598093,0.242715463
85823.041072,-0.835169114,0.885773073,0.367861252,0.270448953,0.102607548,0.161880806
85823.051099,-0.685092534,0.82595756,0.625909547,0.214499414,0.147742003,0.108099602
85823.061126,-0.512453446,0.648545449,0.667166855,0.165943861,0.174994394,0.0792740807
85823.071153,-0.359633376,0.48954501,0.557566078,0.0852902904,0.179083422,0.0711836591
85823.081181,-0.225125172,0.360069247,0.451052161,-0.00742899347,0.160467386,0.0896185935
85823.091208,-0.121213473,0.175186179,0.221449041,-0.111004658,0.112163231,0.116614789
85823.101235,-0.112427561,0.0719115727,-0.208536367,-0.179569334,0.0432150587,0.145025924
85823.111262,-0.115238089,0.112977213,-0.710112847,-0.179748029,-0.019800391,0.163008928
85823.121290,-0.0744042663,0.225913436,-1.05669809,-0.1313757,-0.0577344596,0.174164638
85823.131317,-0.0587520852,0.209900112,-1.20995271,-0.0360846072,-0.0667354092,0.163164183
85823.141344,-0.142633789,0.136699595,-1.22850368,0.103628285,-0.0422148891,0.136272117
85823.151371,-0.240476799,-0.00175775779,-1.05275432,0.223138973,0.00221196609,0.101921603
85823.161399,-0.296322568,-0.207656041,-0.626044571,0.304386944,0.0421854816,0.0851713791
85823.171426,-0.31829818,-0.445457045,-0.223520586,0.313195884,0.0651648343,0.0985604227
85823.181453,-0.299913067,-0.639977089,0.16936814,0.248938084,0.0464249663,0.13909027
85823.191480,-0.211916146,-0.721171709,0.44489773,0.114857234,-0.0205695126,0.199163467
85823.201508,-0.19540607,-0.770012897,0.595162526,-0.0632533804,-0.123092696,0.257334352
85823.211535,-0.180644079,-0.631558805,0.588061754,-0.210098207,-0.230870277,0.285562545
85823.221562,-0.125496375,-0.284369845,0.395949867,-0.278188586,-0.29858914,0.26624608
85823.231589,-0.0321189481,0.146224334,0.228797065,-0.244770974,-0.29183802,0.206522837
85823.241617,0.0479693734,0.375841584,0.205430803,-0.174233153,-0.219490334,0.141576335
85823.251644,0.119432435,0.386425777,0.399872594,-0.110303715,-0.110288747,0.0848195776
85823.261671,0.152333035,0.308276151,0.593106178,-0.0902173519,0.00134537357,0.0369617753
85823.271698,0.139905333,0.214234433,0.728552175,-0.141896784,0.0676152036,0.00203681504
85823.281726,0.0735645275,0.0485315465,0.69442428,-0.219780669,0.0675856471,-0.0231103525
85823.291753,-0.0107852326,-0.0626325069,0.427204253,-0.258966178,0.0215017758,-0.0504048206
85823.301780,-0.0530717928,-0.145640579,0.059041387,-0.273282796,-0.0363303684,-0.0766457468
85823.311807,-0.0741129734,-0.257729456,-0.148972418,-0.247582734,-0.080135636,-0.101597965
85823.321835,-0.107980099,-0.398136162,-0.29130116,-0.164920345,-0.0856798068,-0.135552734
85823.331862,-0.155937014,-0.578196084,-0.374361136,-0.0410809629,-0.0988214388,-0.163584113
85823.341889,-0.0658816814,-0.615541443,-0.466956417,-0.0363575816,-0.103883848,-0.159070849
85823.351916,0.0739043722,-0.677321389,-0.0946942997,-0.0365221649,-0.0432782881,-0.132747367
85823.361944,-0.000181950704,-0.848432281,0.0958095675,-0.026001079,0.00379734603,-0.083930023
85823.371971,0.020100009,-0.812410827,0.0713823977,-0.0413667187,0.00960090663,-0.0374195166
85823.381998,-0.0493747832,-0.737598309,-0.0706383013,-0.0378654636,-0.0250465516,-0.0059444122
85823.392025,-0.162925028,-0.650695101,-0.278273921,-0.0297614634,-0.0724537522,0.0141499368
85823.402052,-0.239495624,-0.614973434,-0.314352365,-0.0211626478,-0.112312481,0.0229341071
85823.412080,-0.288105871,-0.53326564,-0.256264918,-0.00147949159,-0.130866721,0.0268361717
85823.422107,-0.342438057,-0.412420817,-0.125745272,0.0163410511,-0.130341545,0.0285853334
85823.432134,-0.379633487,-0.251463545,-0.0298076938,0.0206873305,-0.123868205,0.0173190981
85823.442162,-0.422308078,-0.0124368722,0.0391775797,0.0253073815,-0.120315015,-0.00959693734
85823.452189,-0.473982444,0.17500284,0.0846475375,0.0125974454,-0.11163684,-0.0553676262
85823.462216,-0.449509243,0.249680644,0.223598912,-0.0220129956,-0.0860451907,-0.112152345
85823.472243,-0.388144564,0.237359105,0.346625572,-0.0690351054,-0.0453230627,-0.165211827
85823.482271,-0.334816221,0.216361033,0.305139131,-0.0914157331,-0.0044247983,-0.204923332
85823.492298,-0.277304016,0.199294492,0.196861127,-0.104650579,0.0359825455,-0.225389987
85823.502325,-0.243315822,0.182135048,0.024499066,-0.0892250165,0.0598484613,-0.229008421
85823.512352,-0.338606407,0.135625089,-0.334269949,0.0273298267,0.0613872372,-0.217479333
85823.522380,-0.563758467,0.0310914134,-0.717592974,0.18306829,0.0439927988,-0.199508592
85823.532407,-0.834823807,-0.151781977,-0.738978292,0.32750535,0.0200512502,-0.176583573
85823.542434,-1.03844288,-0.286083188,-0.404978392,0.377306461,-0.017954722,-0.141948357
85823.552461,-1.04410895,-0.324332382,0.161926007,0.30972448,-0.0766497254,-0.0951393172
85823.562489,-0.955318319,-0.252973402,0.665362436,0.16811198,-0.16323255,-0.0381532609
85823.572516,-0.783415619,-0.12647744,0.92930388,-0.0574151538,-0.271850646,0.0101189315
85823.582543,-0.464682554,0.203588901,1.07688689,-0.285365522,-0.386173755,0.017713733
85823.592570,-0.210138341,0.537921357,0.779141375,-0.354960293,-0.467943996,-0.0269243065
85823.602598,-0.0159784264,0.663586878,0.169696057,-0.223049656,-0.462385952,-0.134630531
85823.612625,0.229319098,0.594507058,-0.157934892,0.0652657598,-0.327746123,-0.278287292
85823.622652,0.575635476,0.251235655,0.164383337,0.359535187,-0.0776249766,-0.40241003
85823.632679,0.896674626,-0.252814321,1.07204529,0.560316205,0.212979704,-0.483488113
85823.642707,1.04632597,-0.672474971,1.94478382,0.629581034,0.454776078,-0.519989133
85823.652734,1.08916916,-1.01709337,2.57473241,0.526636004,0.567454934,-0.498485148
85823.662761,0.970637469,-1.36980571,2.74882875,0.355494916,0.5303334,-0.422120899
85823.672788,0.53818209,-1.7337799,2.42623288,0.174266815,0.376739323,-0.295166939
85823.682816,-0.0205471409,-2.02234695,1.9833763,-0.0402020775,0.174189955,-0.170457229
85823.692843,-0.677341335,-1.91104873,1.43667239,-0.238784939,-0.0222216379,-0.0844541788
85823.702870,-0.997858215,-1.3324232,0.568335894,-0.29383409,-0.170432672,-0.0155499466
85823.712897,-0.80745167,-0.783355924,-0.330096462,-0.216315329,-0.244160682,0.0569982901
85823.722925,-0.383404493,-0.506817084,-0.700334381,-0.189838976,-0.244067207,0.167998582
85823.732952,0.111532914,-0.578367313,-0.498704139,-0.303851575,-0.247239038,0.338026494
85823.742979,0.475749344,-0.810302822,-0.471276034,-0.43609032,-0.323231816,0.527799904
85823.753006,0.762656543,-0.618309374,-1.0349983,-0.541559994,-0.50222683,0.689176559
85823.763034,0.860720977,-0.198854018,-1.75675774,-0.562497497,-0.724033296,0.813971758
85823.773061,0.975639953,0.25023868,-2.34934896,-0.486703962,-0.909866273,0.849144876
85823.783088,0.948284913,1.22887427,-2.60718449,-0.388639182,-0.990044177,0.771459401
85823.793116,0.811706844,2.05148157,-2.30926128,-0.359444529,-0.951212108,0.625581324
85823.803143,0.789362252,2.52438082,-1.84145555,-0.393923402,-0.835772336,0.453613818
85823.813170,0.911867154,2.80243789,-1.67506555,-0.404752344,-0.714864016,0.291093886
85823.823197,1.16779948,2.95767258,-2.09002933,-0.297088742,-0.637302101,0.163113013
85823.833225,1.54449125,3.02723536,-2.69254163,-0.0509002618,-0.591651797,0.0777477771
85823.843252,1.9865935,3.17298794,-2.91425897,0.302653521,-0.543777227,0.0274750181
85823.853279,2.38318518,3.08300547,-2.50981951,0.587449312,-0.446462661,0.014795443
85823.863306,2.64001299,2.65197435,-1.32996616,0.693586111,-0.313758671,0.0215811767
85823.873334,2.47022049,2.13306241,-0.0374327818,0.686381221,-0.189577073,0.0299208649
85823.883361,2.17412683,1.67986754,0.815330295,0.554523826,-0.103869632,0.0237756222
85823.893388,1.98288442,1.38684482,1.42267133,0.373205721,-0.0619669184,0.0023720623
85823.903415,1.75688605,1.15737599,1.6417063,0.228322059,-0.0583974868,-0.0198727902
85823.913443,1.49395436,0.879889568,1.55941497,0.157077163,-0.069652006,-0.050138548
85823.923470,1.28030168,0.534248477,1.40956869,0.152421698,-0.0636785328,-0.075792782
85823.933497,1.21482171,0.139650426,1.48901925,0.122974858,-0.0190737825,-0.0693468675
85823.943525,1.25993576,-0.221420764,1.70527598,0.0832082704,0.040333882,-0.00711544976
85823.953552,1.30981419,-0.444453019,1.73404205,0.0306270868,0.0760292932,0.10239666
85823.963579,1.40262136,-0.468746552,1.59940503,-0.0566263273,0.063257046,0.233191967
85823.973606,1.36910838,-0.475017376,1.34509593,-0.143360421,0.00217771064,0.362944096
85823.983634,1.36481185,-0.5121899,0.977685341,-0.184862331,-0.0684376061,0.480656624
85823.993661,1.39469115,-0.562889575,0.738735715,-0.228034824,-0.107735209,0.567342758
85824.003688,1.32934978,-0.526662771,0.804336607,-0.329399288,-0.114879668,0.62938565
85824.013715,1.20672981,-0.355350877,0.86678751,-0.437969178,-0.111522757,0.661566198
85824.023743,1.10002833,-0.0448004062,0.619263533,-0.505901873,-0.10581933,0.653637707
85824.033770,1.01203075,0.2943189,0.288125452,-0.544065237,-0.0907927081,0.609850824
85824.043797,1.00697486,0.455900003,-0.0441606288,-0.510904908,-0.0569537878,0.542326927
85824.053824,0.925481034,0.475836547,-0.439129084,-0.366153568,-0.0067020678,0.448455542
85824.063852,0.856816736,0.486464178,-0.765495127,-0.13396959,0.0686792359,0.352918088
85824.073879,0.901990268,0.473416261,-0.71085519,0.117707923,0.176122874,0.268329978
85824.083906,0.936979748,0.414557829,-0.277037072,0.28461194,0.298037082,0.195279732
85824.093934,0.779624264,0.334007864,0.361284212,0.35142827,0.389522254,0.142322242
85824.103961,0.557035186,0.173963249,0.927395416,0.298259318,0.435676426,0.102518104
85824.113988,0.359297349,0.0474005788,1.37195237,0.149147347,0.429382563,0.0704105049
85824.124015,0.189222522,-0.0296782404,1.551355,-0.0338280685,0.384582072,0.0454082116
85824.134043,0.0669405428,-0.0512275349,1.46123634,-0.215064973,0.3222785,0.0127235036
85824.144070,-0.0584333381,0.0559267256,1.15701198,-0.351316571,0.274298191,-0.0387402177
85824.154097,-0.149648052,0.171666334,0.771300014,-0.444391638,0.25941059,-0.11072813
85824.164125,-0.12195746,0.192647126,0.401921343,-0.481820524,0.275534958,-0.197835594
85824.174152,-0.0559008971,0.194552047,0.00414192211,-0.435971528,0.312581927,-0.288967639
85824.184179,0.0497268115,0.14297241,-0.465762824,-0.320625246,0.365083218,-0.362668216
85824.194206,0.19931948,0.055797802,-0.836456085,-0.177379102,0.419906527,-0.414544195
85824.204234,0.320571313,-0.0108702805,-1.14355103,0.00895667914,0.461517602,-0.442168623
85824.214261,0.362698719,-0.0984699092,-1.42050451,0.211259976,0.490779608,-0.442886353
85824.224288,0.355111442,-0.218231174,-1.33536598,0.351952642,0.511294246,-0.414224893
85824.234315,0.268381582,-0.356042951,-0.85573011,0.390911758,0.523676038,-0.362086058
85824.244343,0.0491153651,-0.505732358,-0.262052854,0.339987576,0.510208726,-0.295805573
85824.254370,-0.186899961,-0.643610915,0.176832485,0.245890126,0.471049339,-0.235690832
85824.264397,-0.422233552,-0.739813647,0.364662749,0.108684868,0.414642245,-0.190948397
85824.274425,-0.555557405,-0.798318808,0.427027727,-0.0275121164,0.345326275,-0.160920456
85824.284452,-0.57556833,-0.800501267,0.271609786,-0.0904050618,0.272730649,-0.153895825
85824.294479,-0.590820478,-0.834166074,-0.216108849,-0.115024388,0.144210488,-0.116413705
85824.304506,-0.337972895,-0.79765428,-0.574287496,-0.213337913,0.0601547249,-0.0511904955
85824.314534,-0.165431805,-0.889944295,-0.407756625,-0.202190712,0.0789718255,0.0249910876
85824.324561,-0.113424482,-0.98619861,-0.545251956,-0.100216411,0.12551935,0.106245995
85824.334588,-0.0615314822,-0.858768235,-0.73787413,0.0301873982,0.159240842,0.187140852
85824.344616,-0.156256602,-0.67050126,-0.79167294,0.143580541,0.163453951,0.267194152
85824.354643,-0.342012745,-0.509197221,-0.566679944,0.151775345,0.13998352,0.327563733
85824.364670,-0.61289166,-0.432513027,-0.0300496858,0.0453296006,0.0981929228,0.367493838
85824.374697,-0.853447625,-0.351597004,0.36595688,-0.102664657,0.0395101681,0.371839315
85824.384725,-1.10514312,-0.148355966,0.420201096,-0.227087542,-0.0173880011,0.329977363
85824.394752,-1.24337188,0.0844771493,0.199376909,-0.268805176,-0.0507121384,0.237401351
85824.404779,-1.33842726,0.283790967,-0.258714649,-0.164171427,-0.0336841531,0.117495984
85824.414807,-1.34747464,0.324371874,-0.67318217,0.0256818626,0.0415184572,-0.000785115175
85824.424834,-1.25875693,0.224427874,-0.715637748,0.243077293,0.153140873,-0.101411328
85824.434861,-1.08919356,0.00656750529,-0.536453732,0.416351318,0.253107935,-0.175936684
85824.444888,-0.917916005,-0.241270598,-0.21236557,0.515594006,0.311473787,-0.210746869
85824.454916,-0.760004567,-0.475975883,0.133956635,0.506343544,0.309312105,-0.191810459
85824.464943,-0.560565954,-0.677492507,0.538061752,0.412470579,0.252359331,-0.129553735
85824.474970,-0.356244209,-0.76254848,0.877466725,0.271652728,0.157800868,-0.0511074066
85824.484998,-0.173506811,-0.736276705,1.13331663,0.0910684243,0.0451463386,0.0189467184
85824.495025,-0.101374599,-0.663366148,1.27893156,-0.067075938,-0.0470048934,0.0467815474
85824.505052,-0.159041136,-0.499016347,1.24713006,-0.180810228,-0.0876388699,0.0318175107
85824.515079,-0.228498703,-0.403749654,1.18436351,-0.217708588,-0.0552532338,-0.0104583083
85824.525107,-0.296865151,-0.342862493,0.997885249,-0.168741584,0.0311442371,-0.061395254
85824.535134,-0.409804644,-0.256809126,0.753318367,-0.0851351023,0.140452072,-0.116249993
85824.545161,-0.485346645,-0.189038708,0.557376109,-0.00806827378,0.229223222,-0.147241727
85824.555189,-0.550544947,-0.143861578,0.346895037,0.0346232615,0.270164281,-0.158221409
85824.565216,-0.56231393,-0.0342066411,0.186177236,0.0316908583,0.269043088,-0.161711738
85824.575243,-0.609182503,0.153145667,0.0560796146,0.0163060408,0.242110536,-0.154031992
85824.585271,-0.751791596,0.199776521,0.0336707989,-0.0472122133,0.201019555,-0.151276678
85824.595298,-0.88452585,0.239104433,0.164544081,-0.133466139,0.16304341,-0.167765647
85824.605325,-1.02861386,0.337493039,0.163477913,-0.19070068,0.13354677,-0.201143846
85824.615352,-1.12953068,0.397739454,-0.0154033208,-0.179822728,0.120884247,-0.242172495
85824.625380,-1.24052043,0.368435326,-0.278156432,-0.117354818,0.119222961,-0.272606283
85824.635407,-1.34504624,0.143379183,-0.4468173,-0.0819297209,0.106881879,-0.276308894
85824.645434,-1.3380273,-0.119689004,-0.570759322,-0.0691369548,0.0700010881,-0.24844344
85824.655462,-1.10865858,-0.159667689,-0.659769731,-0.135891214,0.0201610941,-0.18825388
85824.665489,-0.612771321,0.022551366,-0.650733022,-0.255602688,-0.053264387,-0.112716503
85824.675516,-0.26315486,0.28276988,-0.890659384,-0.320977181,-0.128385514,-0.0635500252
85824.685543,-0.0356810793,0.507022215,-1.31191262,-0.298923254,-0.180932075,-0.0661308914
85824.695571,0.190631311,0.608154694,-1.53963533,-0.18605718,-0.164119542,-0.122478321
85824.705598,0.254323721,0.491249257,-1.54969554,0.0151680727,-0.0612019375,-0.20403257
85824.715625,0.180062772,0.218866002,-1.30220079,0.216141656,0.0887811705,-0.268074661
85824.725653,0.126091089,-0.0856575913,-0.837881734,0.312741458,0.213443458,-0.281137466
85824.735680,0.152546733,-0.311262948,-0.377346289,0.31051451,0.24819985,-0.225143984
85824.745707,0.245385833,-0.529180599,-0.127922616,0.197812974,0.190379694,-0.102273189
85824.755735,0.443087174,-0.69788538,0.172091428,-0.0298300292,0.058727663,0.0893002376
85824.765762,0.658533759,-0.830783738,0.510867455,-0.320622981,-0.113553822,0.324217945
85824.775789,0.752792736,-0.746184278,0.539674448,-0.562501907,-0.305125117,0.530505598
85824.785816,0.574156563,-0.247053364,0.135273563,-0.687884629,-0.468612045,0.637592912
85824.795844,0.264684462,0.430851231,-0.347179114,-0.691470265,-0.555703282,0.627258778
85824.805871,-0.0345385034,0.953727908,-0.686415161,-0.561125875,-0.54245007,0.513595045
85824.815898,-0.381123908,1.34692782,-0.834007523,-0.35999167,-0.421579808,0.328954399
85824.825926,-0.623130583,1.47278444,-0.655621963,-0.109742172,-0.232693806,0.109521359
85824.835953,-0.799845141,1.3835677,-0.46000353,0.176129788,-0.0304642674,-0.103589319
85824.845980,-0.837103735,1.1046774,-0.230094704,0.402377069,0.139211848,-0.275983185
85824.856008,-0.704339525,0.819566763,0.215829447,0.509909391,0.242117986,-0.374619752
85824.866035,-0.574833987,0.401077111,0.704382195,0.472253621,0.260527104,-0.394991577
85824.876062,-0.489818165,-0.0563422841,1.09663964,0.328529984,0.205902189,-0.347497582
85824.886089,-0.374132953,-0.333258543,1.39806647,0.0804117844,0.0971357748,-0.251350284
85824.896117,-0.326799393,-0.340516697,1.53590842,-0.180293575,-0.0461031459,-0.121724114
85824.906144,-0.265648394,-0.288572137,1.34747727,-0.382775545,-0.192188188,-0.0056718085
85824.916171,-0.197349824,-0.129417128,0.974403835,-0.513132751,-0.301277369,0.0578389913
85824.926199,-0.217313365,0.0722354709,0.530997805,-0.528869927,-0.347167104,0.0469999239
85824.936226,-0.383065105,0.362153981,0.036316345,-0.429474086,-0.326213628,-0.0352528691
85824.946253,-0.582763611,0.595402765,-0.33051498,-0.271506011,-0.251001686,-0.151775226
85824.956281,-0.583824117,0.586842442,-0.277134687,-0.134515435,-0.149931014,-0.256514668
85824.966308,-0.421227845,0.386296269,0.0615063158,-0.0571535267,-0.0588330552,-0.317620367
85824.976335,-0.347979142,0.0747706519,0.374117975,-0.0333869457,0.000938930316,-0.357417852
85824.986363,-0.36260293,-0.059024582,0.530028667,-0.0621379018,0.0198044963,-0.388306797
85824.996390,-0.480220936,-0.0369437562,0.490883821,-0.0878989249,0.028530078,-0.434393853
85825.006417,-0.566908017,0.144423376,0.285266556,-0.0865740031,0.0376050659,-0.46546042
85825.016444,-0.576205276,0.117972884,0.140963299,-0.0459560007,0.0443087742,-0.470050663
85825.026472,-0.566474009,-0.000160085933,-0.049467503,0.0732042044,0.0477658249,-0.45841822
85825.036499,-0.478858635,-0.191866095,-0.229222013,0.213802874,0.0563308187,-0.434970438
85825.046526,-0.213608538,-0.432748297,-0.0383159944,0.304227859,0.0795594379,-0.400609791
85825.056554,0.0831664229,-0.707236123,0.3289923,0.320040643,0.0982218087,-0.336694986
85825.066581,0.308702888,-0.963867463,0.630658787,0.261790633,0.0856186673,-0.232488707
85825.076608,0.527958985,-1.08584111,0.762833215,0.158065036,0.0334918164,-0.0939377546
85825.086636,0.76076956,-0.987273692,0.706281306,0.052700799,-0.0508339852,0.0590941384
85825.096663,0.914574001,-0.754859167,0.561909076,-0.0473690741,-0.139236555,0.195420817
85825.106690,0.920642946,-0.459180815,0.378658541,-0.0904726088,-0.203248292,0.284542173
85825.116718,0.795848399,-0.0681144454,0.212751939,-0.097995773,-0.217209384,0.313679039
85825.126745,0.639492885,0.22274562,0.185528417,-0.0810972154,-0.185408309,0.286729187
85825.136772,0.451420191,0.476212358,0.135777421,-0.0201632865,-0.12537241,0.220841751
85825.146799,0.321181444,0.64637132,-0.0683294399,0.0916058496,-0.0609888844,0.13295877
85825.156827,0.237310809,0.807634333,-0.374255922,0.245288625,-0.000601175707,0.0415574908
85825.166854,0.272164205,0.869678702,-0.536974541,0.40710178,0.0459958874,-0.0453105643
85825.176881,0.315384156,0.966842752,-0.547652002,0.517568648,0.105454952,-0.115679272
85825.186909,0.305169581,0.895274988,-0.242443898,0.626313508,0.185283199,-0.180313393
85825.196936,0.272589993,0.684958971,0.154059512,0.689116657,0.264238209,-0.217805371
85825.206963,0.248187976,0.415761689,0.588904635,0.669579744,0.313854784,-0.216532379
85825.216991,0.155573734,0.115432643,0.894034414,0.55889076,0.315100074,-0.184314787
85825.227018,0.150068661,-0.0573976749,0.939707785,0.396178275,0.266260892,-0.129233956
85825.237045,0.202081967,-0.0064510941,0.810469995,0.16350162,0.175402343,-0.0701669157
85825.247073,0.250364571,0.145136091,0.411508087,-0.0398211442,0.069670856,-0.015819516
85825.257100,0.36607868,0.393545765,-0.213019066,-0.179916739,-0.0123110944,0.0227515772
85825.267127,0.510818502,0.63523384,-0.762135296,-0.244737804,-0.0508148111,0.0355605818
85825.277155,0.55551258,0.76804072,-1.21476742,-0.175107598,-0.0416322313,0.0286896266
85825.287182,0.566248128,0.808359579,-1.72416071,0.0153606199,-0.0035410393,0.0111183561
85825.297209,0.630627223,0.668990344,-2.06844352,0.308932871,0.0594208837,-0.013309489
85825.307237,0.678249098,0.549625714,-2.07194773,0.630825937,0.141473398,-0.032395564
85825.317264,0.69467146,0.364277001,-1.55577515,0.851602256,0.221750125,-0.0310621187
85825.327291,0.600052234,0.127766,-0.60541504,0.929066956,0.27096349,-0.00780074019
85825.337319,0.525264339,-0.0191090481,0.363040116,0.836802781,0.276748955,0.0441588648
85825.347346,0.548840628,-0.15918418,1.2221511,0.592297435,0.229482889,0.11366497
85825.357373,0.575374414,-0.189133401,1.80221835,0.268386513,0.13195686,0.173590347
85825.367400,0.538831494,-0.128597391,1.84085875,0.00579028344,-0.00438765809,0.200748205
85825.377428,0.623184067,0.146554616,1.42212481,-0.259826213,-0.112775914,0.20375891
85825.387455,0.826565098,0.437077193,1.16217565,-0.411891907,-0.11850065,0.170204684
85825.397482,0.916798034,0.52389316,0.733350515,-0.451273918,-0.0636744127,0.124408163
85825.407510,1.04724988,0.628405382,0.224729962,-0.416810751,0.0208945274,0.0682175979
85825.417537,1.13759139,0.619408859,-0.302685893,-0.295114934,0.100944623,0.0243042
85825.427564,1.14470794,0.518035009,-0.723546914,-0.167212918,0.149475664,0.00250835717
85825.437592,1.07986642,0.355627757,-0.947915641,-0.0257881489,0.159586623,0.00263272645
85825.447619,0.879485591,0.233474044,-1.06457277,0.105002619,0.14794834,0.00508949254
85825.457646,0.63982862,0.112527907,-0.832431652,0.192010492,0.139368445,0.00896279421
85825.467674,0.474013789,-0.0286941202,-0.245850491,0.194705874,0.140202001,0.0192343406
85825.477701,0.308892675,-0.202043243,0.440202266,0.121903569,0.138314888,0.0436051935
85825.487728,0.157795228,-0.366525437,0.895257818,0.0156777613,0.121320911,0.058903452
85825.497756,0.0543288254,-0.474519838,1.11149585,-0.143397644,0.0827926993,0.0660465881
85825.507783,0.00955930752,-0.582625007,1.12668348,-0.292228669,0.0263243597,0.0686445013
85825.517810,0.0166451011,-0.56758493,0.785737705,-0.373213798,-0.0307093635,0.0696818009
85825.527838,0.110035515,-0.470275589,0.376127561,-0.425403237,-0.0653352514,0.0682836398
85825.537865,0.215722041,-0.319903679,0.139818805,-0.466987163,-0.076215595,0.0530298501
85825.547892,0.211838039,-0.186630204,-0.155507373,-0.428797424,-0.0654324591,0.022058621
85825.557920,0.177111009,-0.0438027187,-0.597888736,-0.279251337,-0.0479314961,-0.0251270011
85825.567947,0.100978495,-0.0203662039,-1.11696872,-0.0909685269,-0.0633970052,-0.0570804067
85825.577974,0.203579494,-0.0629537382,-1.27835288,-0.00126793212,-0.0348758809,-0.0766008422
85825.588002,0.185441086,-0.297464286,-0.907459712,0.110128634,0.0388425477,-0.084659569
85825.598029,0.14178879,-0.566196398,-0.677876465,0.210434467,0.121529438,-0.0828523487
85825.608056,0.211057885,-0.706020975,-0.409842784,0.211916506,0.164998621,-0.0607427843
85825.618084,0.193927558,-0.858831729,-0.186722595,0.181733042,0.169443175,-0.0270055979
85825.628111,0.0283707928,-0.962187766,-0.183597157,0.148175076,0.126125261,0.00124495104
85825.638138,-0.0875904956,-0.8629822,-0.225841723,0.107565872,0.0592077412,0.0152822062
85825.648166,-0.160636662,-0.708442211,-0.191745392,0.080401361,0.00198466517,0.0232511833
85825.658193,-0.238143059,-0.657372387,-0.11712182,0.0875375718,-0.0207821652,0.0306664892
85825.668220,-0.283929499,-0.596241809,-0.00372106635,0.11032331,-0.00771350227,0.0305897892
85825.678248,-0.33427141,-0.543369284,0.135346044,0.125397071,0.0155284368,0.0297010951
85825.688275,-0.35865474,-0.501056767,0.191749483,0.144829884,0.0251323283,0.039384082
85825.698302,-0.328423195,-0.454929149,0.173463301,0.153215647,0.0188970696,0.0563747808
85825.708330,-0.305704072,-0.323180509,0.219839852,0.151680604,-0.000423098914,0.0741319433
85825.718357,-0.360509501,-0.210862874,0.21408991,0.122538693,-0.0438115858,0.106651269
85825.728384,-0.394288766,-0.12348867,0.267255098,0.0686477646,-0.0634465367,0.111646831
85825.738412,-0.549909791,-0.0304783961,0.4333996,0.064355284,-0.0540120229,0.0944132432
85825.748439,-0.636585254,0.0843874343,0.474823498,0.0693729445,-0.0249231141,0.054827217
85825.758466,-0.687346304,0.205060124,0.544580924,0.0865681767,-0.0100419046,0.00928263739
85825.768494,-0.706976157,0.204003437,0.520628386,0.0391705707,0.00217827689,-0.0294274762
85825.778521,-0.716343997,0.0945752947,0.691305856,-0.00512605347,0.0286002979,-0.0642357841
85825.788548,-0.75757997,-0.0289758734,0.671608637,-0.0251881797,0.0285579525,-0.092520684
85825.798576,-0.704769879,0.0891131751,0.496335072,-0.0135214031,0.00341211935,-0.125216588
85825.808603,-0.734216777,0.236412052,0.271020588,0.0471701771,-0.0281207729,-0.166241512
85825.818630,-0.790963038,0.269588948,0.236223416,0.110163786,-0.0253870375,-0.214698255
85825.828658,-0.745883834,0.194622591,0.470219219,0.150568202,0.0123848412,-0.260179728
85825.838685,-0.590572641,0.120850321,0.848731629,0.140471354,0.0586673841,-0.279644787
85825.848712,-0.432801452,-0.0390926231,1.14795891,0.0951377004,0.0839399844,-0.27052027
85825.858740,-0.301465594,-0.297768274,1.2317092,0.0253745969,0.0744596645,-0.243765607
85825.868767,-0.157242745,-0.475446306,1.20684247,-0.0803704783,0.0295571703,-0.190896526
85825.878794,-0.0398170101,-0.616266251,1.1436691,-0.241917565,-0.0350223556,-0.104923561
85825.888822,0.109402989,-0.684250165,1.03651688,-0.417839855,-0.113753118,0.00825598836
85825.898849,0.318319917,-0.594655088,0.686954675,-0.565667689,-0.192379758,0.114793353
85825.908876,0.459137122,-0.297340221,0.161008893,-0.658274591,-0.255364329,0.19192782
85825.918904,0.442689918,0.0398193938,-0.366769366,-0.681421399,-0.298027903,0.20336929
85825.928931,0.367740622,0.351361296,-0.90438805,-0.607988477,-0.299969345,0.138461396
85825.938958,0.360865147,0.638041591,-1.29533675,-0.460393965,-0.237623662,0.0204942785
85825.948986,0.423589423,0.836694204,-1.34473002,-0.279079318,-0.112434857,-0.129389495
85825.959013,0.439801321,0.916944603,-1.25444301,-0.0459046401,0.0255965181,-0.279525727
85825.969040,0.436776749,0.843759394,-1.20459674,0.0835366994,0.167626619,-0.386414379
85825.979068,0.506873308,0.644232408,-0.768533472,0.182017207,0.273759186,-0.435291648
85825.989095,0.446039594,0.282636408,-0.530621957,0.224960402,0.298437089,-0.424953252
85825.999122,0.42584144,-0.0297810798,-0.321509251,0.209452823,0.256910682,-0.361248553
85826.009150,0.378990513,-0.366626779,-0.0782569596,0.161803812,0.171313778,-0.257212192
85826.019177,0.255708197,-0.673187796,0.206525612,0.0701652393,0.0738727003,-0.142155349
85826.029204,0.0727954428,-0.78577263,0.512188475,-0.0510514639,-0.0301325247,-0.0526347943
85826.039232,-0.0463873649,-0.767734723,0.609918197,-0.150731996,-0.119123653,-0.00275911205
85826.049259,-0.0593123495,-0.617255116,0.546793924,-0.21710968,-0.180035472,-0.000559341162
85826.059287,0.00460153898,-0.323949265,0.31018414,-0.224946305,-0.188220963,-0.0231053978
85826.069314,0.271553252,-0.117527296,-0.00191314014,-0.183018029,-0.152683735,-0.0345306247
85826.079341,0.582699277,-0.0247267007,-0.293975348,-0.100042447,-0.0840098709,-0.026511848
85826.089369,0.844821981,0.0609247896,-0.529116813,-0.0523297824,-0.0376192033,0.0227659568
85826.099396,1.1019932,0.0544544246,-0.597317074,-0.0421463884,0.00465235347,0.10630133
85826.109423,1.11661056,-0.0326883638,-0.582199,-0.0312774964,0.0116410209,0.207631141
85826.119451,0.9575292,-0.0684789313,-0.693472094,-0.0402432941,-0.0348902605,0.288985372
85826.129478,0.610358634,0.0527449172,-0.727445675,-0.0639861748,-0.0945421383,0.324245632
85826.139505,0.19766194,0.11731084,-0.592322334,-0.107862823,-0.135426983,0.313193232
85826.149533,-0.111206532,0.212534936,-0.346126391,-0.143934801,-0.14356108,0.264982045
85826.159560,-0.31608171,0.346676426,-0.151126381,-0.170068145,-0.116328664,0.180846676
85826.169587,-0.423794006,0.447599573,-0.139663322,-0.22914584,-0.0950364247,0.106445678
85826.179615,-0.4255852,0.608340134,-0.13190321,-0.284981936,-0.0406637266,0.0479059294
85826.189642,-0.449250775,0.548542047,-0.251852947,-0.268681258,-0.00672893226,0.0180596169
85826.199669,-0.372071198,0.522281195,-0.622010201,-0.235862061,-0.00935560744,0.00121858576
85826.209697,-0.368749507,0.537163049,-1.03135556,-0.127597377,-0.0446773767,-0.0254425853
85826.219724,-0.50954176,0.555655203,-1.4120231,0.0234078523,-0.0764390379,-0.066603072
85826.229751,-0.586057465,0.477990401,-1.34496733,0.167985275,-0.0735252723,-0.109907135
85826.239779,-0.591530892,0.306949322,-0.846477128,0.241599843,-0.0399326906,-0.14432849
85826.249806,-0.546802619,0.134824321,-0.147765965,0.224973455,-0.0103795929,-0.143206239
85826.259834,-0.404241603,-0.206407137,0.388179818,0.154918998,-0.0130459499,-0.119255096
85826.269861,-0.232068415,-0.448567834,0.604122078,0.0453102253,-0.0515965372,-0.0836667418
85826.279888,-0.0179213133,-0.540865155,0.582221212,-0.0569887161,-0.107905082,-0.0293606296
85826.289916,0.151314825,-0.546931945,0.383493121,-0.114691429,-0.165594205,0.034231931
85826.299943,0.201454519,-0.426452923,0.0915799671,-0.12470492,-0.206274793,0.0836729854
85826.309970,0.159742234,-0.146262392,-0.203371532,-0.0563010871,-0.22438775,0.0972212851
85826.319998,0.0320315621,0.148338833,-0.420420876,0.0646572858,-0.208986163,0.0804316476
85826.330025,-0.0568435528,0.313240093,-0.329330739,0.197430775,-0.167780668,0.0490018204
85826.340052,-0.118145263,0.358913793,-0.0161766433,0.319526583,-0.115129173,0.0125727067
85826.350080,-0.151723351,0.3470385,0.449113302,0.387981296,-0.0582043715,-0.0279787146
85826.360107,-0.182297892,0.372160959,0.997543303,0.383245915,-0.011897062,-0.0794826522
85826.370134,-0.301872092,0.495396111,1.40597447,0.335644573,0.0245408416,-0.140832022
85826.380162,-0.349267757,0.586211889,1.69913031,0.221289247,0.0507609919,-0.187654659
85826.390189,-0.243752313,0.589061506,1.93276605,0.076337114,0.0664054677,-0.203436822
85826.400217,-0.104396614,0.46014345,1.91555597,-0.045590654,0.0570993163,-0.192170322
85826.410244,0.0514883093,0.279877629,1.61409758,-0.112740137,0.0364390463,-0.174106359
85826.420271,0.214606171,0.159278324,1.17296125,-0.0974634439,0.0086026201,-0.160133287
85826.430299,0.276880822,0.0792191557,0.689783176,-0.00522618834,0.00813470315,-0.175708517
85826.440326,0.249716318,0.126684635,0.468747977,0.120272346,0.0566724129,-0.209318414
85826.450353,0.170853538,0.200551835,0.422045263,0.273894399,0.151891068,-0.255183369
85826.460381,0.0871582508,0.270625872,0.372546195,0.418790877,0.260758162,-0.288879573
85826.470408,0.0526382785,0.146934007,0.440151997,0.505890369,0.331911683,-0.291462839
85826.480435,0.10645256,-0.0191233917,0.584800707,0.49946624,0.344330281,-0.26547116
85826.490463,0.311390154,-0.223320241,0.806723794,0.374609381,0.310483813,-0.192751899
85826.500490,0.690399774,-0.413055097,1.14374859,0.106257021,0.242874414,-0.0638828725
85826.510518,0.982384459,-0.567719406,1.28738374,-0.185877904,0.147177443,0.108035631
85826.520545,1.10359326,-0.605107509,0.871418093,-0.39859736,0.0356394649,0.281811953
85826.530572,1.13497419,-0.408321492,0.0965817209,-0.5493536,-0.0716028288,0.42862615
85826.540600,1.01123346,-0.245397158,-0.575343142,-0.606541216,-0.152735502,0.525065124
85826.550627,0.778445064,-0.0317517222,-1.29502754,-0.530990839,-0.204911083,0.560836136
85826.560654,0.543596955,0.218927906,-1.9438141,-0.323077291,-0.20668529,0.532704115
85826.570682,0.368300667,0.415928095,-2.27410404,-0.0360580459,-0.145819798,0.473464191
85826.580709,0.269485616,0.408948611,-2.11890997,0.238394812,-0.028955508,0.411551833
85826.590736,0.132867342,0.287476213,-1.53668525,0.445978105,0.0876451433,0.354828358
85826.600764,-0.00413229577,0.121607733,-0.950730699,0.444178343,0.125896662,0.353976429
85826.610791,0.0551387718,-0.0186042175,-0.209599028,0.276501715,0.130140409,0.383191824
85826.620819,-0.126936929,-0.175774062,0.238705296,0.175497085,0.0736904442,0.40172264
85826.630846,-0.383284301,-0.0320125103,0.0676350279,0.0708505586,-0.0180506613,0.352585733
85826.640873,-0.530759028,0.261886849,0.0688397275,0.0105736367,-0.0764852092,0.244396403
85826.650901,-0.662781626,0.39388435,0.107898065,-0.0125178341,-0.0620538034,0.120343164
85826.660928,-0.604057598,0.439417509,0.253217221,-0.0196353979,0.0222618729,0.0104667293
85826.670955,-0.35861302,0.403361678,0.240956874,0.0271906964,0.109577611,-0.0482184216
85826.680983,-0.0326779154,0.255755909,-0.175550044,0.0795300677,0.150770858,-0.0363345966
85826.691010,0.315737536,0.0473673433,-0.514702504,0.145820677,0.158087358,0.026631318
85826.701037,0.52256425,-0.108931161,-0.670339055,0.193150103,0.12304122,0.116652548
85826.711065,0.639772068,-0.198600975,-0.672805153,0.186435744,0.0659478381,0.204949394
85826.721092,0.612059191,-0.19894893,-0.501584663,0.153446645,0.00249775685,0.277004153
85826.731120,0.457079276,-0.127594909,-0.309914675,0.1030045,-0.0490133725,0.320762813
85826.741147,0.288692,0.0165471525,-0.086437928,0.0485428572,-0.0912018344,0.330639154
85826.751174,0.153051266,0.147616583,0.0606383008,0.0265723113,-0.120878771,0.317605376
85826.761202,0.0776513219,0.209727258,0.175125096,0.00546702556,-0.135951728,0.290125549
85826.771229,-0.00402171153,0.236380141,0.284525967,0.0199927054,-0.137789041,0.241186753
85826.781256,-0.128782374,0.3295366,0.316979791,0.0547189973,-0.117057934,0.179472789
85826.791284,-0.138812587,0.408427948,0.410271823,0.0804224983,-0.0800027102,0.125622883
85826.801311,-0.0973917769,0.414421745,0.576647211,0.0647647083,-0.0381607227,0.0832706243
85826.811339,-0.0903709749,0.377728713,0.672768328,0.00373703614,-0.0187281705,0.0536432266
85826.821366,-0.0950809061,0.390466833,0.530356584,-0.0610635281,-0.0363298021,0.0287234969
85826.831393,-0.0539825327,0.449643464,0.174167065,-0.0874099135,-0.0870931074,0.00296593597
85826.841421,0.0215677252,0.507468278,-0.178648594,-0.0578027554,-0.1387081,-0.0266577359
85826.851448,0.102555388,0.465310513,-0.382070395,0.0264050644,-0.154534727,-0.0720478594
85826.861475,0.112019976,0.372298723,-0.354308528,0.132083818,-0.122749642,-0.134759977
85826.871503,0.0511859517,0.188131695,-0.0767190825,0.238810807,-0.082796365,-0.203322262
85826.881530,-0.00868355673,0.0495397737,0.141959324,0.287149847,-0.0455752313,-0.262491822
85826.891558,-0.0537062183,-0.117577309,0.394013931,0.304730445,0.00862861983,-0.295932084
85826.901585,-0.0195008102,-0.421860992,0.656996759,0.282972127,0.0453703888,-0.300703406
85826.911612,0.152648467,-0.579551919,0.810552413,0.175584167,0.0393444523,-0.276866794
85826.921640,0.277648519,-0.579589657,0.851426275,0.0257438011,-0.0179515928,-0.225263774
85826.931667,0.442928841,-0.472096557,0.724962042,-0.125573024,-0.0971633196,-0.158399522
85826.941694,0.585376241,-0.265525297,0.448469159,-0.227523342,-0.169911563,-0.113100752
85826.951722,0.581711582,0.0768662359,0.0874836377,-0.257051945,-0.211399883,-0.0850318298
85826.961749,0.538543727,0.327744127,-0.224058931,-0.198263466,-0.213768765,-0.0843516588
85826.971777,0.380015801,0.512952482,-0.42814884,-0.0475993864,-0.167285144,-0.121938989
85826.981804,0.160131489,0.686345968,-0.430045029,0.133208737,-0.0876622275,-0.196774602
85826.991831,-0.0692125063,0.722089043,-0.170801388,0.311299652,-0.0142862834,-0.27726838
85827.001859,-0.239557583,0.631891105,0.259137258,0.399190903,0.0661419854,-0.359235168
85827.011886,-0.432089029,0.450553528,0.900126301,0.430150151,0.14762938,-0.424737453
85827.021913,-0.428520523,0.22962347,1.39380589,0.378167093,0.198261142,-0.452885479
85827.031941,-0.295389379,0.017808738,1.77332952,0.200016797,0.201497138,-0.431953579
85827.041968,-0.114531685,-0.193188357,1.94596923,-0.0382724628,0.149352178,-0.35994941
85827.051996,-0.0767750322,-0.405622024,1.73666773,-0.261692226,0.049361933,-0.262124866
85827.062023,-0.0950558447,-0.454983802,1.18389648,-0.3768529,-0.0694366172,-0.160102621
85827.072050,-0.136032793,-0.463885924,0.431737805,-0.371188909,-0.168040156,-0.0639976561
85827.082078,-0.174627559,-0.498043885,-0.0410094713,-0.335440755,-0.223362803,0.031541653
85827.092105,-0.159161858,-0.443629683,-0.0896843626,-0.328077644,-0.24158974,0.119126625
85827.102133,-0.113222383,-0.171848723,-0.0523199698,-0.357914895,-0.254442424,0.178768918
85827.112160,-0.0515873995,0.147089609,-0.096238022,-0.40734157,-0.279201031,0.187755227
85827.122187,0.00511181175,0.528571345,-0.298270414,-0.456334144,-0.304695994,0.132134303
85827.132215,0.103181969,0.877528319,-0.515872716,-0.465883464,-0.302890658,0.0239836033
85827.142242,0.289681559,0.954416329,-0.699472211,-0.42282626,-0.252523363,-0.11205972
85827.152269,0.603268457,0.796651971,-0.803379745,-0.329832405,-0.148628905,-0.215362668
85827.162297,1.03977808,0.40488991,-0.752853673,-0.233941302,-0.0281901155,-0.240542069
85827.172324,1.47579868,-0.0621643414,-0.72170567,-0.167711943,0.0565663166,-0.153217807
85827.182352,1.65143508,-0.511968768,-0.805956317,-0.140360221,0.0504937768,0.0238485821
85827.192379,1.51613083,-0.764045659,-0.913884192,-0.129469752,-0.0508474894,0.239886329
85827.202406,1.147048,-0.734740362,-0.939951531,-0.131830379,-0.211867794,0.409135014
85827.212434,0.573461201,-0.457327113,-0.708483785,-0.175566673,-0.355008721,0.485221803
85827.222461,0.107864199,-0.126864741,-0.154011581,-0.267398059,-0.43200016,0.450276852
85827.232489,-0.22074144,0.250674404,0.395977924,-0.362532288,-0.42443198,0.319368124
85827.242516,-0.454288111,0.519283182,0.707155751,-0.395240694,-0.359392017,0.12250378
85827.252543,-0.407753264,0.800550659,0.538721092,-0.421316504,-0.263852179,-0.0853623301
85827.262571,-0.0862901718,1.02190048,0.252556126,-0.334673494,-0.125535578,-0.258105874
85827.272598,0.294207951,0.825057177,-0.291508081,-0.153537273,0.0050112484,-0.35425958
85827.282626,0.798801477,0.573857142,-0.677598233,0.0121145416,0.0996743739,-0.373056948
85827.292653,1.08106271,0.273116099,-0.797806913,0.178416699,0.148437127,-0.334934622
85827.302680,1.06403829,-0.0902750585,-0.733394939,0.300248057,0.144643456,-0.267224282
85827.312708,0.91493772,-0.336814811,-0.338354003,0.340571523,0.118247263,-0.212976754
85827.322735,0.714634782,-0.422307896,0.243400176,0.311728954,0.0864318088,-0.171414927
85827.332762,0.515710219,-0.51507583,0.735756407,0.251597434,0.0528267063,-0.120912597
85827.342790,0.443597535,-0.636958033,1.07129243,0.148805276,0.0218557417,-0.0685364753
85827.352817,0.442479929,-0.78424279,1.35471424,0.0178608447,-0.0079032192,-0.0130242147
85827.362845,0.467030725,-0.862823137,1.45365742,-0.138389215,-0.0441347249,0.0528000742
85827.372872,0.549299624,-0.939273485,1.334436,-0.248661116,-0.0854113251,0.11065165
85827.382899,0.58648581,-0.823284176,0.891274301,-0.296704829,-0.110957958,0.155933112
85827.392927,0.617889833,-0.624051717,0.409379258,-0.311147124,-0.123953387,0.197145537
85827.402954,0.581395428,-0.398072084,-0.033552141,-0.27931571,-0.138071612,0.227855235
85827.412982,0.453795615,-0.213821541,-0.4379729,-0.213843226,-0.15964134,0.231835604
85827.423009,0.364946169,0.0434384885,-0.782808081,-0.0898301974,-0.181254223,0.210700482
85827.433036,0.402160887,0.284753455,-0.949074748,0.0160759948,-0.183227628,0.19102478
85827.443064,0.452983276,0.342441674,-0.711219932,0.0780855715,-0.16718182,0.192832813
85827.453091,0.388934691,0.245943138,-0.431056252,0.109244555,-0.146500513,0.182280824
85827.463119,0.280382364,0.207346464,-0.243361013,0.131709918,-0.129662409,0.149705574
85827.473146,0.218725936,0.292563618,-0.191241534,0.168869004,-0.123875357,0.105812155
85827.483173,0.213491944,0.364062043,-0.141520348,0.198317707,-0.112195,0.0586009696
85827.493201,0.24678032,0.392551567,0.0302893398,0.227695599,-0.0944923237,0.0198101066
85827.503228,0.322160409,0.338888621,0.25733167,0.254715502,-0.0634177625,-0.00267309882
85827.513256,0.461807474,0.203044565,0.520011716,0.266548187,-0.0207512546,-0.00642735697
85827.523283,0.609701266,-0.0259371359,0.782007871,0.240662009,0.00784310605,0.0255351029
85827.533310,0.767196378,-0.348608599,0.950323287,0.163471073,0.00967376307,0.0860892609
85827.543338,0.947336672,-0.43160552,0.981471289,0.028844554,-0.0145807099,0.157126963
85827.553365,1.22473761,-0.24145116,0.953232452,-0.180039942,-0.069188036,0.235432684
85827.563393,1.50008483,0.0478215259,0.653826897,-0.344252348,-0.132527858,0.304090828
85827.573420,1.63243856,0.278389729,-0.0373386738,-0.402241081,-0.177439675,0.352125198
85827.583447,1.69471761,0.410990565,-0.695099987,-0.399074316,-0.185775101,0.372784406
85827.593475,1.64571597,0.467406974,-1.10271867,-0.293780655,-0.159862012,0.368794173
85827.603502,1.63371589,0.593437639,-1.43566526,-0.118629582,-0.108631581,0.349280924
85827.613530,1.62438925,0.631917409,-1.51620068,0.0768834576,-0.041953478,0.304000795
85827.623557,1.46897234,0.770965376,-1.3364491,0.262444258,0.0259994734,0.239968583
85827.633584,1.3075895,0.848632699,-0.925568785,0.367108881,0.09107887,0.177707866
85827.643612,1.1561965,0.769682642,-0.224316705,0.36635974,0.13989222,0.121315956
85827.653639,0.990658366,0.668585198,0.40935237,0.297195315,0.167608261,0.0760249048
85827.663667,0.903386033,0.55525813,0.880515591,0.13601096,0.176216409,0.0432443246
85827.673694,0.864648379,0.449562325,1.16162269,-0.0891811475,0.156032577,0.0244879499
85827.683721,0.870870103,0.212976432,1.03459907,-0.27917853,0.0981431678,0.0403284319
85827.693749,0.927819048,-0.00720795862,0.401689872,-0.356002748,0.0300240424,0.0557731688
85827.703776,1.03605869,0.150766681,-0.357339274,-0.319004506,-0.0139090605,0.0633173659
85827.713804,1.11843909,0.264153479,-0.883547506,-0.207981303,-0.0205176957,0.0679808334
85827.723831,1.07975463,0.241977778,-1.05807288,-0.0547496751,0.011703358,0.0673746914
85827.733858,1.03650856,0.177252537,-1.00929862,0.0975700915,0.0769313574,0.0704746172
85827.743886,1.03068891,0.10678203,-0.790695035,0.214522541,0.138658106,0.0794084519
85827.753913,0.958626859,0.0314940759,-0.494511364,0.26643312,0.16862905,0.0845949575
85827.763941,0.767562727,0.0360957976,-0.209642283,0.264124423,0.160368994,0.0754549876
85827.773968,0.503136678,0.121953332,0.0407008437,0.221464336,0.131480083,0.0491056778
85827.783995,0.288193951,0.145939918,0.248008546,0.154981717,0.099186331,0.0137663279
85827.794023,0.158928543,0.127170555,0.413816948,0.0995102078,0.0845650434,-0.0331737474
85827.804050,0.122450212,0.101952381,0.46285775,0.0656710118,0.0891094655,-0.0790941045
85827.814078,0.176881073,-0.0282469473,0.430322677,0.0637324974,0.11150185,-0.107674621
85827.824105,0.291377751,-0.109652142,0.347583019,0.0734146908,0.138323084,-0.111592658
85827.834133,0.38439102,-0.0993545101,0.223805248,0.101061493,0.157036051,-0.0959380642
85827.844160,0.427672528,-0.108560401,0.0866547856,0.123935387,0.163959742,-0.0676827282
85827.854187,0.428082862,-0.169785945,0.0515232665,0.107750289,0.152340367,-0.0318075456
85827.864215,0.374322083,-0.198038135,0.0823456903,0.0601673238,0.120786965,0.00522583723
85827.874242,0.306289598,-0.1638268,0.0805535461,-0.00648707058,0.0667397082,0.0349453837
85827.884270,0.26888248,-0.077816906,-0.0608253478,-0.026965715,0.00817573536,0.0617263988
85827.894297,0.222092088,0.0574217682,-0.183927411,-0.0251265354,-0.025580097,0.0709020495
85827.904324,0.170497491,0.198103967,-0.109998252,-0.0270322934,-0.0232370477,0.0555539913
85827.914352,0.0793781457,0.254645372,0.0332563729,-0.0178931244,-0.000255833031,0.027110897
85827.924378,-0.00289446107,0.213721095,0.0958142436,0.00442336779,0.0287406649,-0.0118444925
85827.934407,-0.00495135706,0.227511537,0.0745820705,0.0417073555,0.0540574715,-0.0513455607
85827.944434,0.0443002747,0.224148965,-0.0117465519,0.0801887065,0.0612658523,-0.0769923404
85827.954461,0.116586106,0.203336333,-0.0847895763,0.121208042,0.0630957037,-0.0817234442
85827.964489,0.225255611,0.197456755,-0.0027478374,0.135122254,0.0588322543,-0.0720071718
85827.974515,0.290004288,0.172371578,0.222597042,0.108260818,0.0539125986,-0.0581608601
85827.984544,0.302626399,0.104319275,0.398010892,0.07492017,0.0473250002,-0.044533994
85827.994570,0.305660269,0.0939288683,0.465125695,0.0418575592,0.0376217738,-0.0368736796
85828.004599,0.357002955,0.131680817,0.486202385,0.0108988434,0.0314086191,-0.0373437256
85828.014625,0.307636245,0.190451954,0.446311104,-0.000884312612,0.0249997228,-0.054261189
85828.024653,0.266149366,0.215434822,0.317545024,0.0240782946,0.0283268094,-0.0709917024
85828.034681,0.307619623,0.19565935,0.225088858,0.0572596826,0.0509676747,-0.0804749578
85828.044708,0.375682667,0.110375689,0.294361132,0.0875859037,0.0844393447,-0.0761728883
85828.054736,0.404039468,0.0211826532,0.390951036,0.0892280042,0.114013478,-0.05524363
85828.064762,0.403112964,-0.0026305129,0.477496516,0.0631263629,0.119578421,-0.0319492258
85828.074790,0.342218825,-0.00391341058,0.471317535,0.0204441454,0.0991612971,-0.0172094293
85828.084817,0.27184133,-0.0255629506,0.431020596,-0.0270014014,0.0621287152,-0.0132975141
85828.094845,0.215819054,-0.0804965918,0.35542438,-0.0659756958,0.0409914739,-0.0196121335
85828.104873,0.246576358,-0.132183269,0.325501536,-0.115704104,0.0424894989,-0.0239807814
85828.114900,0.305115568,-0.160666399,0.240727157,-0.136230156,0.0525621064,-0.0129627539
85828.124928,0.373389332,-0.184402299,-0.0522071571,-0.118251413,0.0566876121,-0.00528512709
85828.134955,0.41066959,-0.125492758,-0.423325366,-0.0594440289,0.0509178713,0.00606419984
85828.144982,0.456391477,-0.0745720971,-0.710463561,0.0298688058,0.0482842736,0.0190708116
85828.155009,0.439810709,-0.0617526553,-0.732388392,0.102641553,0.0533360243,0.0218796488
85828.165037,0.349772565,-0.0721899695,-0.52552025,0.156040862,0.0615446828,0.0209685806
85828.175064,0.245128899,-0.107909901,-0.320405674,0.14468354,0.044889275,0.0352140963
85828.185092,0.242027316,-0.0792321979,-0.0247696996,0.0613913126,0.0291582495,0.0540149473
85828.195119,0.142240342,-0.0904373364,0.236440273,0.00932518207,0.0188414287,0.0720900819
85828.205147,0.047078489,-0.0686494473,0.189583245,-0.0362148732,0.0078811897,0.0720687807
85828.215174,0.0416781278,0.0333442521,0.0890840586,-0.050274767,0.00111968967,0.0569854379
85828.225202,0.0285290887,0.143367474,-0.0637964726,-0.0443572216,0.00515863951,0.0359962657
85828.235229,0.0169169677,0.248516021,-0.153203772,-0.031092016,0.0181905515,0.0161205623
85828.245256,0.0231754253,0.312539032,-0.220566997,-0.00947913248,0.0358047001,6.67618588e-05
85828.255284,0.00573914644,0.319335487,-0.283674318,0.0178044196,0.0469817221,-0.0169854574
85828.265311,-0.0316701129,0.320354017,-0.329203313,0.0494978987,0.0550958402,-0.0336336754
85828.275339,-0.0878232814,0.345007908,-0.387822675,0.0950075984,0.0497261062,-0.0505245104
85828.285366,-0.119857547,0.358735952,-0.383649773,0.152568623,0.0436415821,-0.0665386319
85828.295394,-0.135269617,0.277943556,-0.239191618,0.185239762,0.0508864485,-0.0707909018
85828.305421,-0.0387752825,0.158674477,0.141378894,0.164659113,0.0645037219,-0.0550694577
85828.315449,0.0564711804,0.00546299638,0.519610149,0.105163828,0.0670038909,-0.0303782299
85828.325476,0.120504448,-0.135437923,0.712769499,0.0309580378,0.0507546216,-0.00735653285
85828.335503,0.185833081,-0.189723512,0.689262952,-0.0649839342,0.00876589119,0.0187853221
85828.345531,0.232614358,-0.180767431,0.55682432,-0.133267909,-0.0115814582,0.0335485563
85828.355558,0.172098296,-0.168180172,0.375677479,-0.144535214,-0.0136139821,0.042938862
85828.365586,0.197469706,-0.0858032468,0.146480017,-0.127471015,-0.00484126387,0.056870658
85828.375613,0.193194494,-0.0528226039,-0.0663514178,-0.0741630495,0.00474664848,0.0729774535
85828.385641,0.151920399,-0.128641705,-0.216530873,-0.0278674606,0.0200526342,0.0878565311
85828.395668,0.0728609504,-0.184863523,-0.19875264,-0.00860188715,0.0213650409,0.106098652
85828.405695,-0.0326591742,-0.158660485,-0.15805998,-0.00817311835,0.0140613215,0.114863649
85828.415723,-0.127789838,-0.0818105605,-0.151503398,-0.019682236,-0.00508973701,0.116642371
85828.425750,-0.194246798,-0.000911160028,-0.157531572,-0.0166241284,-0.0287910718,0.10522753
85828.435778,-0.249459001,0.0307513496,-0.197080323,-0.0107803531,-0.0479200259,0.082651116
85828.445805,-0.272878984,0.0781388679,-0.177646139,0.0133982208,-0.0521275513,0.0561561286
85828.455833,-0.234246325,0.102634774,-0.127490069,0.0299351178,-0.0401728898,0.0302449055
85828.465860,-0.135761008,0.0854248054,0.0364116221,0.029529253,-0.0244146977,0.0162409376
85828.475887,-0.0502889252,0.0491497606,0.136406366,0.0178992283,-0.0251060557,0.0166896805
85828.485915,-0.0023648614,0.000383647289,0.113670218,0.00797708984,-0.0430997014,0.0217116028
85828.495942,0.0673043711,0.00439264547,0.0326952319,0.000619364262,-0.0649339855,0.0279315598
85828.505970,0.124913561,0.0237483572,0.0263642753,-0.00411839923,-0.0712901577,0.0360006727
85828.515997,0.156561649,0.0260224396,0.0439706592,0.00116185029,-0.0654557049,0.0470485277
85828.526025,0.191238063,0.033661063,0.0617477234,0.0113782687,-0.0509254895,0.052976191
85828.536052,0.206784756,0.0597562025,0.0672872373,0.0247998014,-0.0347475857,0.0529650077
85828.546079,0.163093243,0.0955025473,0.027517537,0.034629263,-0.0282971431,0.0450269245
85828.556107,0.17159263,0.133776584,0.0462660766,0.0327677131,-0.030191984,0.0348613709
85828.566134,0.168603531,0.185357188,0.108391986,0.0216743145,-0.0313928016,0.0185114257
85828.576162,0.133527203,0.193198568,0.193081024,0.00419998448,-0.0285898261,0.00353487441
85828.586189,0.144911945,0.148111819,0.253207284,-0.0130631588,-0.0170665942,-0.011557526
85828.596217,0.221197806,0.130645921,0.303429405,-0.0327649564,-0.00847736653,-0.0160058029
85828.606244,0.238225933,0.111181982,0.233323603,-0.0383727737,-0.01018898,-0.0197920203
85828.616271,0.275865362,0.104297629,0.114869073,-0.0395331122,-0.0204184484,-0.0192567259
85828.626299,0.315900325,0.101083307,-0.0206353763,-0.0128106913,-0.0323858932,-0.0129370438
85828.636326,0.335936274,0.096699429,-0.13378537,0.0175490789,-0.0324223787,-0.00471240282
85828.646354,0.347623205,0.0922221922,-0.0861655408,0.0433780141,-0.0173065439,0.00383261591
85828.656381,0.341103959,0.0804421765,0.0298977101,0.0587633625,0.000418656389,0.0132447593
85828.666409,0.291166629,0.0659391655,0.167229375,0.0476159044,0.0170503631,0.0116673689
85828.676436,0.256891891,0.0561521319,0.305567001,0.00673131878,0.0123916967,0.0160181746
85828.686464,0.260902624,0.048745381,0.370780939,-0.0430458225,0.000770726299,0.0151646324
85828.696491,0.254626996,0.038286951,0.381436773,-0.0813021287,-0.000602399581,0.013790708
85828.706518,0.234475714,0.0442167794,0.275766322,-0.0987165421,-0.000491878367,0.014404566
85828.716546,0.24131714,0.107825913,0.132968793,-0.0885845423,0.00323415035,0.0108268755
85828.726573,0.207032977,0.159283256,-0.0708382078,-0.0541019365,0.000338495243,0.000610989518
85828.736601,0.146939432,0.21338189,-0.239239549,0.00574195478,-0.0024783304,-0.00654066261
85828.746628,0.0918672961,0.220365921,-0.237232301,0.0413566753,0.00672821747,-0.0163730532
85828.756656,0.0574713338,0.20980836,-0.0108738607,0.043727953,0.0200482849,-0.0310079232
85828.766683,-0.0351224316,0.130305894,0.179717685,0.0287173111,0.0262385365,-0.0432334319
85828.776710,-0.0803993694,-0.00568047506,0.269700153,-0.00515383622,0.0243141353,-0.0550115258
85828.786738,-0.0470015421,-0.111439135,0.312308877,-0.0464125909,0.0109394742,-0.0533142947
85828.796765,0.0112992648,-0.201278414,0.21912089,-0.0571959987,-0.0060922401,-0.0386027247
85828.806793,0.0618962559,-0.280043067,0.0187836109,-0.0404686816,-0.0192477219,-0.0195877552
85828.816820,0.121842328,-0.243410039,-0.161149762,-0.00266830809,-0.024119975,0.00307095191
85828.826848,0.107483365,-0.212965765,-0.210970901,0.0288821608,-0.0260172114,0.0173936971
85828.836875,0.0305092114,-0.178180301,-0.138329443,0.0512897335,-0.0209460203,0.0207769778
85828.846903,-0.0327724071,-0.1839524,-0.0376788655,0.0513981245,-0.0177765917,0.0179228671
85828.856930,-0.0817716989,-0.226778656,0.0985574049,0.0297860373,-0.0210576076,0.00651495159
85828.866957,-0.131826993,-0.279895877,0.152139357,0.00800271146,-0.0292175319,-0.00118185021
85828.876985,-0.0906524313,-0.2949753,0.0740074855,0.00525646051,-0.0348967239,0.00108876079
85828.887012,0.0107534401,-0.289176532,-0.0111614455,-0.00327257928,-0.0344210826,0.0168288425
85828.897040,0.0638575369,-0.281680679,-0.0731377169,0.00870924816,-0.0353827514,0.0399000719
85828.907067,0.0786520142,-0.296901154,-0.170099377,0.0279947948,-0.0409713946,0.0604663342
85828.917095,0.108404544,-0.295919193,-0.222438052,0.0597740337,-0.0451301858,0.077567026
85828.927122,0.090788698,-0.247009927,-0.277274388,0.0878203139,-0.0572393127,0.0928948447
85828.937150,0.060523214,-0.153696944,-0.236920166,0.107655801,-0.0689995661,0.0964837223
85828.947177,0.017306104,0.0149502798,-0.105150227,0.0985975936,-0.0708954707,0.0884305909
85828.957204,-0.0240313845,0.14627569,0.11365619,0.056804873,-0.0659185573,0.0718963519
85828.967232,-0.0804592372,0.16628002,0.268346401,0.0145053519,-0.0553071909,0.0410300493
85828.977259,-0.0747404759,0.28075001,0.238342892,-0.0129667521,-0.0434755646,0.00494768098
85828.987287,-0.0263285281,0.353648384,0.133208447,-0.0213762168,-0.0269413292,-0.0255332626
85828.997314,0.00657514061,0.350260641,-0.010482231,0.00821310095,-0.00201893505,-0.0424717665
85829.007342,0.0679071045,0.331902196,-0.18175942,0.0506556332,0.0154689793,-0.0499310158
85829.017369,0.0965906896,0.300686828,-0.237881704,0.0767929628,0.0298135635,-0.0526277311
85829.027397,0.125074734,0.278818293,-0.234258253,0.101663426,0.029182395,-0.049079068
85829.037424,0.109023872,0.253447632,-0.197547356,0.114944346,0.0271802302,-0.0423442014
85829.047451,0.109020292,0.246210228,-0.0712327601,0.0937482417,0.0133839902,-0.0328580216
85829.057479,0.0972613463,0.193317682,0.0967635072,0.0720828995,-0.00849014986,-0.0235239081
85829.067506,0.0843164515,0.184427579,0.188527014,0.0390226804,-0.0294710658,-0.0181653611
85829.077534,0.0951447834,0.187574791,0.333193259,0.000593531586,-0.0404707193,-0.0157986097
85829.087561,0.116565794,0.207297181,0.447882299,-0.0289955195,-0.0413109474,-0.0139940521
85829.097589,0.129574968,0.222779741,0.439850384,-0.045226153,-0.0316822864,-0.0167144723
85829.107616,0.164399868,0.224088888,0.404444724,-0.0494826846,-0.0109818028,-0.0156143187
85829.117644,0.197572856,0.250650841,0.285875043,-0.0325143524,0.00437105354,-0.0108171673
85829.127671,0.212377772,0.269028209,0.153141228,-0.00169998268,0.0129493624,-0.0070466632
85829.137699,0.200715392,0.334660044,0.0641384179,0.0123934653,0.0150969354,-0.0106957266
85829.147726,0.142265522,0.384592497,0.0837882903,0.0274464507,0.00984118693,-0.0158321671
85829.157753,0.0482631139,0.311117036,0.121243868,0.0218495522,0.00832318515,-0.0218682215
85829.167781,0.0388013668,0.272198528,0.273598914,-0.0093286084,0.0108401384,-0.0207470283
85829.177808,0.0481597631,0.233288422,0.359477455,-0.0466594659,0.0110752955,-0.0146635706
85829.187836,0.0299026055,0.199080849,0.300008198,-0.0737398192,0.00121733837,-0.0104935924
85829.197863,0.0270926627,0.176846915,0.121671738,-0.0803588405,-0.021870669,-0.0137210777
85829.207891,0.0656675089,0.198225657,-0.125977327,-0.0526664928,-0.0449123383,-0.0212453082
85829.217918,0.126366381,0.208829396,-0.317793446,-0.0132852662,-0.0509342775,-0.0219683535
85829.227946,0.244696992,0.176288368,-0.299456409,0.0280941315,-0.0354240276,-0.0153583894
85829.237973,0.32581999,0.121269058,-0.212790518,0.0722775757,-0.0131900962,-0.00134669989
85829.248001,0.353807921,0.0773105274,-0.108229489,0.104390502,0.00797590893,0.00986307766
85829.258028,0.346316579,0.108029673,0.0788245304,0.0963877067,0.019794751,0.0189029127
85829.268055,0.32158692,0.049847561,0.342457931,0.0491003506,0.0165331773,0.0344344676
85829.278083,0.254402448,-0.00562662598,0.508144752,-0.0120913712,0.00012464344,0.0447699279
85829.288110,0.189848308,0.0600600808,0.460943441,-0.0728902742,-0.0195169672,0.0500930548
85829.298138,0.152048921,0.11342387,0.351104179,-0.105009861,-0.0301823951,0.0481841005
85829.308165,0.13026695,0.161866459,0.206802676,-0.121011198,-0.0270313434,0.0409150012
85829.318193,0.118154743,0.178520803,0.0717810416,-0.10433235,-0.0123368194,0.0334400423
85829.328220,0.130802098,0.166971893,-0.0865279444,-0.0769092441,0.00691517117,0.0257139467
85829.338248,0.162888039,0.133059321,-0.205264798,-0.0459297597,0.0169180054,0.0225458499
85829.348275,0.174199433,0.120886653,-0.340707288,-0.00880263373,0.00862172525,0.0338485725
85829.358302,0.15857056,0.128896082,-0.446790412,0.0278113037,-0.0154609736,0.0422729477
85829.368330,0.116692763,0.154180636,-0.433757912,0.0381054878,-0.0334916413,0.0393783599
85829.378357,0.0580803052,0.183019649,-0.231909644,0.0237108339,-0.0345779434,0.0203655194
85829.388385,-0.0249093638,0.185585097,-0.0474251835,0.013910668,-0.0195811503,-0.00784028601
85829.398412,-0.113272944,0.185668848,0.0369680869,0.00151445274,0.00307515962,-0.0507874861
85829.408440,-0.215423332,0.199273869,0.0320563495,0.0031142137,0.0223593749,-0.0919650197
85829.418467,-0.245844116,0.162326277,-0.0588654459,0.0065843123,0.0315379575,-0.123560496
85829.428495,-0.189572669,0.115603305,-0.180292854,0.0181506872,0.0339366682,-0.145166174
85829.438522,-0.0967158139,0.0574167815,-0.355115753,0.0453977548,0.028443899,-0.145295605
85829.448550,0.0313293138,0.0190030898,-0.449248327,0.074385196,0.0267887451,-0.131035447
85829.458577,0.191477553,-0.0199714233,-0.381607454,0.0820601657,0.0221487191,-0.108190857
85829.468605,0.225952855,-0.0475635965,-0.360647083,0.113349907,0.0158378258,-0.0838117525
85829.478632,0.199326787,-0.0963813303,-0.374836937,0.134921774,0.00883611012,-0.0573668256
85829.488660,0.219719404,-0.139564511,-0.245990777,0.125112817,0.00831626076,-0.0261404626
85829.498687,0.238665749,-0.201452437,-0.0933919849,0.0958887711,-0.00039230648,0.0169111975
85829.508714,0.202898928,-0.223603588,0.00735503894,0.0246707909,-0.0188746452,0.0646829829
85829.518742,0.193978101,-0.179909992,0.0291267258,-0.0495294034,-0.0581770428,0.107690364
85829.528769,0.132539553,-0.0991520463,-0.117130588,-0.105808392,-0.10156633,0.131606892
85829.538797,0.000724259154,0.0325066779,-0.301518018,-0.136777759,-0.125049293,0.132739797
85829.548824,-0.0451055997,0.184680513,-0.409527726,-0.161688954,-0.128694624,0.111080572
85829.558852,-0.127978072,0.262057329,-0.563678424,-0.156653717,-0.120386355,0.072275117
85829.568879,-0.221254029,0.328110914,-0.848279209,-0.115994714,-0.0972338989,0.0229752138
85829.578907,-0.18905186,0.431025345,-1.02460024,-0.104751118,-0.0624618046,-0.0394010767
85829.588934,-0.190202455,0.484754269,-0.951428033,-0.174827129,0.00157284003,-0.111942127
85829.598962,-0.24886688,0.400175668,-0.784605486,-0.247755662,0.0894933715,-0.229540393
85829.608989,-0.330666408,0.761319815,-0.753362791,0.0956797153,0.390293688,-0.544476509
85829.619017,-0.232908245,1.63321349,-0.201256732,-0.22967653,0.780304849,-0.719646156
85829.629044,-0.444168832,0.230204777,0.949817676,-0.421913356,1.11491477,-0.751211822
85829.639071,-0.780258178,-0.43256768,-0.342561976,-0.111108616,1.36463964,-0.78657937
85829.649099,-0.806946132,0.289785896,-2.0591619,0.248739854,1.57875037,-0.869799197
85829.659126,0.0528374178,1.10323867,-2.74450797,0.514051676,1.72327161,-0.950609326
85829.669154,0.969439491,1.65811558,-3.01888371,0.57796061,1.79035389,-1.01856768
85829.679181,1.3243416,1.72658268,-2.64048353,0.388416499,1.71376967,-1.04159522
85829.689209,1.29085683,1.03894243,-2.17137139,0.0505162366,1.45944047,-0.994333446
85829.699236,0.871353357,0.0903279029,-2.29475169,-0.270002931,1.10256135,-0.960039318
85829.709264,0.751351963,-0.567515006,-2.32025847,-0.488497466,0.773673832,-1.02550018
85829.719291,0.572379032,-0.759479228,-1.74503574,-0.841492236,0.627617061,-1.11536217
85829.729319,0.0477197095,-0.547999574,-0.947221229,-1.16874468,0.655047059,-1.1666559
85829.739346,0.186513628,0.0433306807,-1.18189917,-1.20120811,0.74645102,-1.1924969
85829.749374,1.18895274,0.927157442,-2.33015151,-0.87288934,0.860358953,-1.14646995
85829.759401,1.66233598,1.11583811,-3.22975407,-0.3339068,0.875904083,-1.00656247
85829.769429,1.38030183,0.810537361,-3.91572617,0.148322165,0.749948263,-0.739112794
85829.779456,0.787977885,0.148928944,-3.41013285,0.196690232,0.528551459,-0.329163373
85829.789484,0.906201967,0.0440560724,-2.31935305,0.509453177,0.586422741,-0.058948949
85829.799511,0.860585879,-0.142278692,-2.50328806,0.474730074,0.567147076,0.252040625
85829.809538,1.09891489,-0.575383438,-1.11132224,0.208995357,0.623505652,0.401886046
85829.819566,0.226013864,-0.814556899,0.318010888,-0.274163842,0.723746002,0.540474832
85829.829593,0.220076291,-0.519735822,1.50296652,-0.587812841,0.868868828,0.647286236
85829.839621,-0.0775211927,-0.649416752,1.41374159,-0.648264229,1.024652,0.687007248
85829.849648,-0.548722847,-0.692392628,1.01424017,-0.642064929,1.13452148,0.668853045
85829.859676,-0.773319976,-0.39544126,0.653725774,-0.6880548,1.17789316,0.623333216
85829.869703,-0.910613354,0.0457744206,0.461589338,-0.682121277,1.15322542,0.541548371
85829.879731,-1.13750692,0.319454218,-0.117752519,-0.596514225,1.04932725,0.412855893
85829.889758,-1.21461486,0.601259674,-0.840295809,-0.437707514,0.871359944,0.253051549
85829.899786,-1.08428109,0.824384612,-1.55278474,-0.301284701,0.609991193,0.0687954351
85829.909813,-0.858366596,0.926167335,-1.84186121,-0.119775876,0.282127261,-0.108171359
85829.919841,-0.50336161,0.997636535,-2.11929459,0.145631835,-0.0776093304,-0.326295137
85829.929868,-0.273621126,1.01922782,-2.38665899,0.298888206,-0.462925851,-0.553765297
85829.939896,-0.0541746578,0.898422346,-1.9107816,0.262167215,-0.842855334,-0.609060287
85829.949923,-0.00615019319,0.391875238,-1.31814538,0.229961902,-1.14903629,-0.514476001
85829.959951,0.142793583,-0.181134639,-1.02161216,0.303362608,-1.3386364,-0.374456018
85829.969978,0.439198204,-0.314129151,-0.995270098,0.539023042,-1.47099602,-0.257692665
85829.980006,0.661376727,-0.127636711,-0.995754666,0.68316108,-1.55735934,-0.175186068
85829.990033,0.690376174,-0.0388598189,-0.807118347,0.939451933,-1.6017828,-0.0773580521
85830.000061,0.74445117,-0.120885776,-1.18518535,1.10589051,-1.60036922,-0.0170739349
85830.010088,0.691843616,0.505755044,-0.874862096,1.04370189,-1.55116355,0.100920878
85830.020115,0.984135102,0.535552947,-0.309459332,0.942066669,-1.43319166,0.231303111
85830.030143,0.547723168,0.77119027,-0.529779661,0.720300674,-1.19666803,0.307072192
85830.040170,-0.0731189392,0.585127929,-0.146760587,0.436417043,-0.867093027,0.342136711
85830.050198,-0.611907252,0.598781557,0.524316135,0.0212238617,-0.5197047,0.351166695
85830.060225,-0.852579829,0.821490936,1.41293904,-0.296987146,-0.2638354,0.294282377
85830.070253,-0.727552058,0.87886724,1.6089532,-0.491221339,-0.144556403,0.133253261
85830.080280,-0.738584397,1.30991619,1.1724381,-0.740682006,-0.141148895,-0.0385041237
85830.090308,-0.860106571,1.16133101,0.829796627,-1.0158478,-0.238411263,-0.138892785
85830.100335,-0.982764325,1.05107747,0.0488625228,-1.09500444,-0.422925979,-0.219856337
85830.110363,-0.889483545,1.33282798,-1.08217798,-0.950526595,-0.661025345,-0.322336882
85830.120390,-0.617475188,1.44184219,-2.00736449,-0.745393932,-0.930117249,-0.411351711
85830.130418,-0.313499036,1.66035854,-2.21659644,-0.536215186,-1.1903547,-0.470874161
85830.140445,-0.019058117,1.50675189,-1.9528964,-0.284161359,-1.39266121,-0.512733757
85830.150473,0.436695025,1.06828748,-1.67910635,0.0707240328,-1.46410406,-0.532372177
85830.160500,0.98461156,0.680045407,-1.09843587,0.3260189,-1.37269127,-0.42635411
85830.170528,1.04368532,-0.276029356,0.254902982,0.406561673,-1.18131495,-0.243122503
85830.180555,0.883946662,-0.589490764,1.57342245,0.00629844144,-0.9101457,-0.115287855
85830.190583,1.18085331,0.271914688,2.6064135,-0.278962344,-0.667985797,-0.227245554
85830.200610,0.863602231,-0.0542662816,1.99851717,-0.544000149,-0.522441089,-0.369256467
85830.210638,0.595921089,-0.359447498,1.66821203,-0.6446141,-0.481547207,-0.415966451
85830.220665,0.413161334,-1.58895671,0.883863148,-0.540225923,-0.505780876,-0.369808793
85830.230693,0.794638147,-1.64034466,0.0225321498,-0.20384787,-0.508897066,-0.335709691
85830.240720,1.16913599,-0.881603606,-0.718977706,0.218206704,-0.453616798,-0.195468172
85830.250748,1.17658484,-0.881503287,-0.459112134,0.439769715,-0.452448726,-0.163084939
85830.260775,0.391213779,-0.754576405,0.546235121,0.290940553,-0.449344277,-0.213301763
85830.270803,-0.264484392,-0.0965905618,2.05760415,-0.0799032897,-0.415594041,-0.348967433
85830.280830,-0.0266953339,0.241247966,2.20161456,-0.323726088,-0.307162642,-0.455796152
85830.290857,0.772247817,0.223067947,1.57900522,-0.369512737,-0.173838392,-0.501584172
85830.300885,1.37610481,-0.107837201,0.468732195,-0.114613071,-0.04024731,-0.49917984
85830.310912,1.6716043,-0.50080155,-0.554838699,0.29300797,0.0862839967,-0.397968799
85830.320940,1.5012131,-0.842161676,-0.976195395,0.713851035,0.262630522,-0.283890963
85830.330967,1.23809583,-0.683337215,-0.712845487,0.958267748,0.499063581,-0.222184747
85830.340995,1.14308677,-0.215362268,0.19776246,1.0951246,0.825249732,-0.259346485
85830.351022,0.89894542,0.120717068,0.924511385,1.0051173,1.17456019,-0.295058399
85830.361050,0.858262185,0.146111987,1.47491064,0.791566372,1.46527624,-0.453115672
85830.371077,0.714783689,0.632339287,1.24248311,0.314513266,1.51896286,-0.552982092
85830.381105,0.286875251,0.460348544,0.864108062,-0.10626246,1.25632703,-0.615249217
85830.391132,0.270674917,-0.488176608,-0.32301498,-0.205730453,0.816024542,-0.575213075
