t,ax,ay,az,gx,gy,gz
96709.759109,0.278161485,-0.471895375,0.295426451,0.443774237,0.0521145601,-0.0270272244
96709.769138,0.184669912,-0.49064786,0.110184449,0.464210286,0.00379203713,0.0625205029
96709.779166,-0.00522871906,-0.407827575,-0.0402597945,0.405749365,-0.0413077968,0.123599305
96709.789194,-0.131178811,-0.338748157,0.0440037121,0.321776434,-0.0660690676,0.156463771
96709.799223,-0.260126952,-0.250585962,0.0432648764,0.233123793,-0.0668341901,0.185866131
96709.809251,-0.272574564,-0.189407856,-0.0919601711,0.11092624,-0.0573866341,0.216739102
96709.819279,-0.268131431,-0.185392884,-0.0919023034,-0.0162298484,-0.0522826846,0.251444622
96709.829307,-0.328853282,-0.203616194,-0.311907575,-0.121248142,-0.0654996793,0.279543354
96709.839336,-0.355507444,-0.136859192,-0.489169099,-0.186534197,-0.090656967,0.293292179
96709.849364,-0.343740287,-0.0325578728,-0.575847265,-0.214510978,-0.116511733,0.297634198
96709.859392,-0.323865812,0.0466424687,-0.569344459,-0.237762765,-0.135041752,0.27694173
96709.869421,-0.468365469,0.164485333,-0.351580829,-0.25014861,-0.135961869,0.248049616
96709.879449,-0.659582599,0.249541122,-0.206629337,-0.254975037,-0.116772988,0.18024288
96709.889477,-0.230416033,0.274311443,-0.312991278,-0.204172046,-0.0922287639,0.114395684
96709.899506,-0.222852429,0.257156822,-0.314020622,-0.141058595,-0.0727741058,0.0615415227
96709.909534,-0.216530368,0.246681057,-0.314710942,-0.0691519165,-0.0612729836,0.0191999253
96709.919562,-0.0200420016,0.164866734,-0.37746112,-0.00739694059,-0.0655944879,-0.0114381455
96709.929590,0.103787956,0.160781254,-0.41795329,0.0408350332,-0.0746122237,-0.0237198446
96709.939619,0.181692741,0.0966918632,-0.381496075,0.0870470023,-0.0791137602,-0.0327772546
96709.949647,0.228779779,0.152414298,-0.319983914,0.120078987,-0.0703224029,-0.0420288119
96709.959675,0.294988866,0.229697883,-0.234985079,0.136890738,-0.0352379206,-0.0501756865
96709.969704,0.357889065,0.335329208,-0.237709535,0.177450418,0.0282377255,-0.0613798734
96709.979732,0.361607172,0.402847222,-0.320953636,0.198640659,0.0821917717,-0.0839235272
96709.989760,0.249517666,0.497341177,-0.488831245,0.247022836,0.101108736,-0.119238646
96709.999790,-0.00732309752,0.604610734,-0.71402824,0.290986552,0.0944297974,-0.153630168
96710.009818,-0.192090905,0.490003418,-0.542372281,0.305603041,0.090326934,-0.169540168
96710.019846,-0.16607537,0.385515491,-0.277931071,0.264374926,0.0944380526,-0.179627688
96710.029874,-0.131613165,0.286609126,-0.23594954,0.197524785,0.098693787,-0.184161187
96710.039903,-0.0989205637,0.186854602,-0.287630627,0.108603961,0.0984186818,-0.203394533
96710.049931,-0.0765084418,0.284137768,-0.379981579,0.0415146752,0.0924201746,-0.226166965
96710.059959,-0.0734910302,0.332186928,-0.573791502,0.00412336133,0.0985518385,-0.250648842
96710.069988,-0.171810389,0.369561039,-0.580301322,-0.00362377426,0.124679043,-0.276259408
96710.080016,-0.355132984,0.404719373,-0.622632397,0.011437201,0.167572982,-0.302590356
96710.090044,-0.622823624,0.442196797,-0.691347621,-0.0603291327,0.176323331,-0.337931858
96710.100072,-0.934756873,0.459679738,-0.8777914,-0.112466105,0.133430458,-0.362827883
96710.110101,-1.08625698,0.288236636,-1.09032999,-0.131123663,0.0767027353,-0.370560632
96710.120129,-0.973006743,0.178470933,-0.975719859,-0.128421889,0.0518567663,-0.354186461
96710.130157,-0.564815891,0.0925378853,-0.74576544,-0.136931495,0.0700823803,-0.31112288
96710.140186,-0.211463495,-0.0625967084,-0.679819681,-0.143117742,0.11232411,-0.252306388
96710.150214,-0.126313826,-0.124409058,-0.861455766,-0.110506819,0.159223965,-0.185677589
96710.160242,-0.287490851,-0.0510301162,-1.11706427,-0.00789974535,0.197295717,-0.148384811
96710.170271,-0.555947452,0.244867468,-1.31042528,0.138125106,0.228179864,-0.151638658
96710.180299,-0.812728357,0.473105475,-1.39349227,0.279285177,0.261899746,-0.188730107
96710.190327,-0.937194548,0.589359243,-1.35279785,0.399454727,0.277315444,-0.235042469
96710.200355,-1.03120883,0.563302865,-1.33726594,0.520199462,0.272970772,-0.280781494
96710.210384,-1.09343842,0.497717792,-1.07296384,0.593015357,0.259829677,-0.311640606
96710.220412,-1.10293412,0.393726489,-0.550109013,0.591134652,0.221296391,-0.321380005
96710.230440,-0.978840052,0.160919768,-0.302987771,0.513153001,0.131578228,-0.305961118
96710.240469,-0.775752963,-0.0952878669,-0.450740876,0.40338315,-0.0113821217,-0.264440582
96710.250497,-0.567378728,-0.186812396,-0.695268594,0.307521327,-0.166285151,-0.196067379
96710.260525,-0.294273588,-0.266158484,-0.682615449,0.237754493,-0.300817662,-0.0998838555
96710.270554,0.054357826,-0.279249381,-0.536574408,0.17482534,-0.3884274,0.0253893778
96710.280582,0.409514294,-0.19226878,-0.238040375,0.0880685961,-0.415722692,0.144569828
96710.290610,0.646214607,0.0952301018,0.195796448,0.000742212072,-0.380261623,0.225351765
96710.300638,0.724255074,0.348103423,0.51752431,-0.0729780802,-0.274508827,0.258976056
96710.310667,0.60347612,0.466746461,0.773664141,-0.118043297,-0.120941901,0.267232909
96710.320695,0.368824008,0.390189291,0.96774119,-0.165684582,0.028898456,0.26657696
96710.330723,0.121342199,0.0864203797,1.11573512,-0.254879967,0.117808892,0.261852219
96710.340752,-0.105218942,-0.243093634,1.08789025,-0.372101651,0.113436512,0.256058826
96710.350780,-0.341673564,-0.480880682,0.87443513,-0.464054749,0.0527129722,0.249322875
96710.360808,-0.599167074,-0.593705865,0.784403561,-0.499501155,-0.0278228793,0.246977701
96710.370837,-0.843420432,-0.566394335,0.768705057,-0.479812161,-0.116383904,0.258539273
96710.380865,-0.956920847,-0.600656159,0.775162855,-0.450206325,-0.191960686,0.282881929
96710.390893,-0.963425772,-0.492210068,0.978269598,-0.433561043,-0.239540734,0.328105583
96710.400921,-0.860427535,-0.188247379,1.15187611,-0.359355764,-0.259081685,0.33418931
96710.410950,-0.792343083,0.161492983,0.977753465,-0.271576927,-0.270559096,0.30160953
96710.420978,-0.768959431,0.411573001,0.816874921,-0.221025066,-0.253887438,0.259389891
96710.431006,-0.792912918,0.457037333,0.838412215,-0.152966649,-0.206199282,0.239524572
96710.441035,-0.749304151,0.394604842,0.801210319,-0.0687159607,-0.140689516,0.238649993
96710.451063,-0.738103616,0.344644259,0.681254737,-0.0531692253,-0.125481003,0.226686804
96710.461091,-0.924795158,0.111387986,0.349533304,-0.0879985774,-0.196092316,0.195035129
96710.471119,-1.17065215,-0.219684665,-0.0592357131,-0.0479052188,-0.282844537,0.167569159
96710.481148,-1.22669348,-0.418972179,-0.0496787802,0.00174995222,-0.315007799,0.151966228
96710.491176,-1.08220931,-0.431040875,0.389865314,0.0435301541,-0.291264647,0.131086512
96710.501204,-0.857187676,-0.25153603,0.634398878,0.106846272,-0.241583907,0.109222493
96710.511233,-0.649520054,-0.0139199174,0.589650804,0.18764153,-0.191245371,0.0930970524
96710.521261,-0.664388099,0.193562995,0.527096441,0.302440031,-0.159053349,0.0675394971
96710.531289,-0.900441638,0.439601557,0.382666927,0.428183033,-0.142981165,0.0335173447
96710.541318,-1.17974717,0.561075544,0.223651254,0.531332835,-0.128100493,-0.00677521636
96710.551346,-1.25250816,0.494017732,0.311735196,0.62157379,-0.1089409,-0.0317727115
96710.561374,-1.09624515,0.192089781,0.442274716,0.627561077,-0.102059827,-0.0394146528
96710.571402,-0.885403425,-0.239677304,0.694598787,0.526773735,-0.118582876,-0.0263654303
96710.581431,-0.736411133,-0.698230471,0.940672566,0.365948691,-0.161994004,0.00821438602
96710.591459,-0.621365388,-0.969577149,1.10369221,0.202830597,-0.199620479,0.044709279
96710.601487,-0.496315296,-0.968087861,1.19341165,0.0345768733,-0.220567041,0.0770333994
96710.611516,-0.341807237,-0.768148641,1.28523127,-0.121115782,-0.226356485,0.101478553
96710.621544,-0.316228303,-0.483851624,1.19096835,-0.169079305,-0.226411604,0.0998223338
96710.631572,-0.483969975,-0.065024068,0.73045336,-0.156845273,-0.22923989,0.0541938607
96710.641601,-0.808421526,0.311229188,0.498529103,-0.171949402,-0.21525217,-0.025225864
96710.651629,-0.934098701,0.340419517,0.652568741,-0.192799018,-0.189963051,-0.0987149935
96710.661657,-0.789365967,0.0713971442,0.70524936,-0.192614199,-0.165519231,-0.158299492
96710.671685,-0.544920593,-0.253791553,0.597405072,-0.202899591,-0.160164678,-0.20368375
96710.681714,-0.363052379,-0.472985509,0.55507575,-0.251955823,-0.188308695,-0.242792011
96710.691742,-0.315141896,-0.647206897,0.636375146,-0.292426274,-0.226833188,-0.289301441
96710.701770,-0.242559548,-0.744360281,0.818785139,-0.279486761,-0.239778289,-0.332918988
96710.711799,-0.0689834349,-0.712898171,0.83014123,-0.194442452,-0.225029969,-0.369788275
96710.721827,0.100508039,-0.457534367,0.449057508,-0.0703063989,-0.18281407,-0.392800437
96710.731855,0.131436189,-0.0784370507,0.0923337355,0.0541260718,-0.108058863,-0.404915677
96710.741883,-0.0104752779,0.176853615,0.0414335693,0.138460129,-0.0268340475,-0.410447584
96710.751912,-0.111220694,0.177767497,0.0240937275,0.189609407,0.0182917815,-0.407102422
96710.761940,-0.162028579,0.0186387191,-0.284270795,0.189752146,0.014330861,-0.393391953
96710.771968,-0.0923824306,-0.228768884,-0.406097432,0.124699651,-0.00949644124,-0.366444216
96710.781997,-0.069322896,-0.620623426,-0.209488818,0.0112194261,-0.0583832871,-0.335135834
96710.792025,-0.167393467,-1.03843237,-0.0349464905,-0.138051019,-0.125148201,-0.282295511
96710.802053,-0.102190489,-1.33090557,0.247864489,-0.32859324,-0.186426484,-0.206735508
96710.812082,0.236774486,-1.35979892,0.677501522,-0.479435221,-0.232013934,-0.135901557
96710.822110,0.658476926,-0.95335411,0.927973243,-0.546140806,-0.260546231,-0.102487148
96710.832138,0.849874162,-0.228657313,0.842933492,-0.518151478,-0.28965404,-0.123692029
96710.842166,0.725022771,0.332970114,0.468663541,-0.407601253,-0.289320343,-0.183730588
96710.852195,0.563570445,0.570723114,0.288127526,-0.268783466,-0.212211468,-0.23745294
96710.862223,0.600517635,0.380964842,0.526803595,-0.134953232,-0.0882021721,-0.261181967
96710.872251,0.7098111,-0.0707095069,0.680463879,-0.0226738276,0.0196121753,-0.260915385
96710.882280,0.588750552,-0.349838364,0.49386754,0.0461987136,0.0802038823,-0.246360944
96710.892308,0.324323078,-0.524869315,0.466949138,0.0990632614,0.0678737153,-0.235705109
96710.902336,0.0361003761,-0.465529165,0.343078429,0.156150251,-0.0123779812,-0.240077497
96710.912365,-0.129638614,-0.184619379,0.169128221,0.211995139,-0.10476304,-0.233432369
96710.922393,-0.0309247032,0.102788098,0.132381084,0.295972063,-0.171018758,-0.21273482
96710.932421,0.00340609402,0.407234534,0.0418848202,0.390091374,-0.201122605,-0.190234573
96710.942449,0.00225341686,0.670681655,0.100172174,0.453424557,-0.202652314,-0.153391333
96710.952478,0.0678060124,0.778416565,0.378017056,0.462186619,-0.19924108,-0.11603278
96710.962506,0.155184509,0.715204322,0.580140049,0.439552947,-0.203460583,-0.102755592
96710.972534,0.0807533184,0.595566683,0.723845924,0.426913573,-0.187145003,-0.121030473
96710.982563,-0.0113839903,0.416254218,1.01474201,0.366727217,-0.141973519,-0.140857161
96710.992590,0.159080055,0.125798131,1.34362091,0.299487724,-0.0759676109,-0.150696472
96711.002618,0.427473802,-0.0213943952,1.5480177,0.226538121,0.0188254778,-0.14088379
96711.012647,0.56449472,0.0310583251,1.74740513,0.162092566,0.123863212,-0.167208077
96711.022675,0.432132588,0.283982559,1.56759626,0.159385993,0.179006359,-0.174369053
96711.032703,0.0445721441,0.529819697,1.20325207,0.0957873082,0.187450713,-0.142463849
96711.042731,-0.230319587,0.621432763,1.21562406,0.0193540501,0.164919308,-0.0707340102
96711.052760,-0.220878828,0.689353257,0.979383112,-0.0474646622,0.120713494,0.0186611217
96711.062788,-0.13859422,0.793318293,0.762088854,-0.11528232,0.0645689954,0.0996339981
96711.072816,-0.0610948736,0.763173695,0.560496606,-0.203584493,0.00586999847,0.157860293
96711.082845,-0.128907596,0.708358913,0.477901325,-0.290521489,-0.0398676592,0.181400238
96711.092873,-0.309979983,0.710081061,0.39659433,-0.340283469,-0.0738011311,0.193151443
96711.102901,-0.358329077,0.597424769,0.298138048,-0.391667561,-0.0871057521,0.196948304
96711.112930,-0.340920115,0.508126263,0.349278452,-0.421025173,-0.0747580017,0.189390792
96711.122958,-0.305903016,0.593100402,0.138621439,-0.387222216,-0.0422557156,0.168501749
96711.132986,-0.293138154,0.81376443,-0.0510728649,-0.322011248,-0.00558186055,0.13554114
96711.143014,-0.37581673,0.963669599,0.0131520622,-0.25068833,0.0039602461,0.105144611
96711.153043,-0.448094907,0.870959166,0.0376803543,-0.160260723,-0.0030089802,0.0968736325
96711.163071,-0.346107674,0.756417572,0.164690531,-0.0654098401,-0.00566068956,0.107838399
96711.173099,-0.134795047,0.705831075,0.505081008,0.0286908271,0.00726416322,0.148061721
96711.183128,0.0969026353,0.57073696,0.71859458,0.130903482,0.00485480192,0.189140721
96711.193156,0.0857096987,0.600427384,0.632010521,0.240997224,-0.0254799343,0.197313695
96711.203184,-0.190665329,0.775334162,0.53352209,0.386008485,-0.0779165115,0.184045552
96711.213213,-0.366550158,0.952227583,0.312233208,0.489619835,-0.124544197,0.187700479
96711.223241,-0.310404639,0.791672571,0.573403434,0.510972782,-0.157341563,0.21694146
96711.233269,0.119340166,0.354950768,0.848349087,0.473390265,-0.183977434,0.251853361
96711.243297,0.373909385,0.161582378,0.823417475,0.422431215,-0.183973708,0.268364175
96711.253326,0.43602375,-0.0578881791,0.910332373,0.366177275,-0.134842643,0.26415263
96711.263354,0.426534987,-0.220847388,1.14230047,0.297524705,-0.0860964145,0.239946111
96711.273382,0.445896763,-0.171078217,1.18052352,0.190429657,-0.0904163282,0.22810836
96711.283411,0.532536936,-0.0230213205,0.960166955,0.0665761596,-0.114940041,0.219893305
96711.293439,0.503899455,-0.0799502317,0.595490763,-0.0509073296,-0.16879768,0.251060798
96711.303467,0.409193173,-0.181747331,0.389657224,-0.205045239,-0.229084456,0.295663967
96711.313495,0.490836998,-0.0575327898,0.546268759,-0.402355359,-0.287471586,0.33023633
96711.323524,0.718690353,0.118777877,0.369273193,-0.549812214,-0.320061767,0.346687211
96711.333552,0.916382816,0.209308335,-0.0157180584,-0.644998387,-0.307568335,0.323714777
96711.343580,0.862103383,0.414206309,-0.329888637,-0.707891599,-0.218548202,0.259944065
96711.353609,0.706902592,0.612184458,-0.326394365,-0.720539228,-0.0945239823,0.18243648
96711.363637,0.530060024,0.829665179,-0.545394259,-0.711286859,0.0173048124,0.102316602
96711.373665,0.440670991,0.898785623,-0.720075703,-0.651207284,0.100185848,0.0553472292
96711.383694,0.579402294,0.640475463,-0.922456471,-0.5656202,0.151634655,0.0423150499
96711.393722,0.693549774,0.347921125,-1.11029316,-0.428187476,0.195157892,0.0539229725
96711.403750,0.748579003,0.167650117,-1.16865417,-0.275940702,0.242250836,0.0527866025
96711.413778,0.682771775,0.03640486,-1.12059829,-0.084080995,0.288403696,0.0210824672
96711.423807,0.366483327,-0.0758777399,-1.23104428,0.104927807,0.31674186,-0.0517067846
96711.433835,-0.0185207103,-0.221859196,-1.35758216,0.258522703,0.314003087,-0.147572861
96711.443863,-0.423472434,-0.341886601,-1.65108814,0.367031082,0.281844593,-0.234333054
96711.453892,-0.777305526,-0.302324516,-1.80598936,0.450430079,0.235782823,-0.258472757
96711.463920,-0.813547053,-0.508910881,-1.80855074,0.551880284,0.180070019,-0.234588177
96711.473948,-0.569998993,-0.347443468,-1.69600631,0.641191228,0.12901882,-0.167181985
96711.483977,-0.170303436,-0.184601515,-1.2923957,0.61765848,0.101439929,-0.0634033914
96711.494005,0.1903945,-0.177770664,-0.481999353,0.542562946,0.099365062,0.0373557125
96711.504033,0.398501537,-0.190249841,0.080732145,0.467044487,0.101435131,0.10561972
96711.514061,0.626613688,-0.293921849,0.355951354,0.406446113,0.128356761,0.165738462
96711.524090,0.983544454,-0.413604989,0.594905656,0.430336549,0.184699929,0.213460966
96711.534118,1.17677848,-0.500423222,0.50348351,0.456306352,0.248577184,0.240626274
96711.544146,0.983305604,-0.668838445,0.50070177,0.440878405,0.295289582,0.27887754
96711.554175,0.729654522,-0.943512515,0.417258933,0.362920745,0.295269853,0.337835654
96711.564203,0.597268278,-1.07004316,0.204914405,0.245832725,0.256927526,0.376239224
96711.574231,0.386010961,-0.952141373,0.186586721,0.165754407,0.203572429,0.369280382
96711.584260,0.0961361079,-0.649907389,0.17256521,0.19106695,0.166270858,0.282214745
96711.594288,-0.288026656,-0.185939759,0.0600447463,0.287097349,0.15670105,0.117989569
96711.604316,-0.584695335,0.335623405,0.0532718912,0.452614947,0.181501469,-0.0869811561
96711.614344,-0.712012824,0.513150777,0.0359156827,0.590541109,0.243495337,-0.276367054
96711.624373,-0.79284336,0.31315833,0.363279505,0.631164952,0.335881478,-0.388079749
96711.634401,-0.691457746,-0.0452927416,0.90944916,0.614921256,0.41207639,-0.422606544
96711.644429,-0.49333807,-0.365479914,1.07310886,0.542133077,0.428862548,-0.409499274
96711.654458,-0.268130627,-0.489452878,1.15299897,0.456850722,0.423125303,-0.361615108
96711.664486,-0.177457546,-0.360394208,1.12701931,0.378164693,0.373540438,-0.314345048
96711.674514,-0.436512533,-0.122891018,0.396186334,0.296891137,0.284256882,-0.311016635
96711.684543,-1.28143352,0.0519003161,-0.884949455,0.215678825,0.183859966,-0.334592269
96711.694571,-2.32678545,-0.0418754805,-1.81844786,0.0084071262,0.0702633698,-0.35275449
96711.704599,-2.71412531,-0.530051687,-1.85491735,-0.271797881,-0.0499980572,-0.328120009
96711.714627,-2.03532735,-1.19525104,-1.54569475,-0.560672299,-0.103569941,-0.281309352
96711.724656,-0.773825137,-1.06266,-0.67422756,-0.834168033,-0.0679046224,-0.234741853
96711.734684,0.431433573,-0.358964796,0.185708769,-0.992941157,0.0230367341,-0.201025964
96711.744712,0.970210049,0.299417626,0.419349183,-0.99822034,0.114750943,-0.200888009
96711.754741,0.772653267,1.16026959,0.237295164,-0.991030351,0.153362146,-0.219065339
96711.764769,0.456651491,1.50494564,-0.0767871519,-1.00207295,0.126862085,-0.23954852
96711.774797,0.206111965,1.16378001,-0.343428502,-1.05357231,0.0836435248,-0.239062757
96711.784826,0.158330625,0.367798632,-0.203021084,-1.1788583,0.0223386203,-0.210956813
96711.794854,0.130703417,-0.402800979,-0.182999455,-1.2293873,-0.00810583973,-0.199856223
96711.804882,-0.0289339312,-0.596750091,-0.478277702,-1.17059316,-0.0147645419,-0.255885408
96711.814910,-0.302869311,-0.205060475,-1.01678135,-0.991006927,-0.00322506426,-0.366242514
96711.824939,-0.375249999,0.173898035,-1.59106125,-0.712188319,0.0175087106,-0.517901049
96711.834967,-0.37005623,0.557592451,-2.20070297,-0.394966141,0.0191199229,-0.672432588
96711.844995,-0.276372824,0.851886071,-2.48536922,-0.110897684,0.0520957176,-0.768986807
96711.855024,-0.00183779798,1.02204127,-2.15876644,0.17559348,0.123258046,-0.746166454
96711.865052,0.311434188,1.02786011,-1.75412766,0.412885918,0.188469267,-0.612276004
96711.875080,0.346505611,0.789123398,-1.39057316,0.601449176,0.192955351,-0.417444722
96711.885109,0.144721129,0.544257461,-1.27944328,0.688117488,0.10962665,-0.216216565
96711.895137,-0.152906421,0.329373588,-1.34457889,0.691627487,-0.045631108,-0.0531131189
96711.905165,-0.498042997,0.010171956,-1.4884309,0.67904435,-0.217665726,0.0247063086
96711.915193,-0.688800583,-0.348646706,-1.41521018,0.638283595,-0.354526633,0.0286083732
96711.925222,-0.742785563,-0.487350719,-1.04423868,0.53389196,-0.398180121,-0.013463448
96711.935250,-0.476081596,-0.605496292,-0.590646775,0.445211633,-0.330083096,-0.046106876
96711.945278,-0.118985702,-0.562628589,-0.429666524,0.411757543,-0.204268971,-0.0747387942
96711.955307,-0.203299697,-0.507354044,-0.0861798341,0.390704974,-0.0934806551,-0.0614866327
96711.965335,-0.0719901424,-0.45144237,0.274534469,0.383722438,-0.00870664896,-0.0029242534
96711.975363,0.230263789,-0.222843768,0.615057633,0.412332251,0.03667841,0.0677240852
96711.985392,0.407061787,-0.0166944647,0.687219783,0.403149142,0.022670715,0.122548445
96711.995420,0.417747504,0.136271886,0.728852354,0.280272736,-0.00929387578,0.180808826
96712.005448,0.288432119,-0.046730017,1.08733963,0.0809945231,-0.00778599375,0.25352992
96712.015476,0.200727167,-0.523292495,1.3197619,-0.108016671,0.0192064763,0.3290316
96712.025505,0.142685093,-0.725878575,1.26315972,-0.305246369,0.0669825216,0.393574907
96712.035533,0.0991208228,-0.623105306,1.1078733,-0.471520052,0.135856381,0.437530651
96712.045561,0.0517812717,-0.381303652,0.788653035,-0.569735304,0.201605043,0.447605654
96712.055590,-0.178305943,-0.139136425,0.219532128,-0.599014119,0.25631941,0.434965207
96712.065618,-0.56171197,0.223379073,-0.398012325,-0.532043056,0.299740112,0.393468632
96712.075646,-0.989430201,0.74010532,-0.900202553,-0.423396991,0.321708268,0.337237342
96712.085675,-1.29830253,1.0731062,-1.23981912,-0.391366617,0.250230647,0.282929345
96712.095703,-1.58958937,1.28547549,-1.7713617,-0.396045522,0.0959180285,0.256794139
96712.105731,-1.7832609,1.09108266,-1.82881494,-0.367517755,-0.0252576611,0.266373797
96712.115760,-1.60022898,0.629481045,-0.886278073,-0.330768243,-0.0890784498,0.262241914
96712.125788,-1.19946382,0.3948099,0.0358011164,-0.316436724,-0.124652685,0.221178888
96712.135816,-0.738671991,0.257826939,0.486250051,-0.336339847,-0.135110402,0.147817849
96712.145845,-0.479945176,0.231038374,0.744445645,-0.351502822,-0.0921205814,0.0743383084
96712.155873,-0.423250864,0.305052545,0.994035907,-0.373058991,-0.0359984572,0.0167756815
96712.165901,-0.518877074,0.506608991,0.960065249,-0.361013786,-0.0309056948,-0.0361706253
96712.175929,-0.53793647,0.887829929,0.78652596,-0.279273913,-0.0593953925,-0.0713515144
96712.185958,-0.468916015,1.2439173,0.616721767,-0.112281189,-0.101652832,-0.0927204575
96712.195986,-0.396211685,1.48187353,0.375965384,0.072274535,-0.115186752,-0.108484239
96712.206014,-0.0858020659,1.37849835,0.465059964,0.198228478,-0.0932375129,-0.0824776675
96712.216043,0.4010997,0.855748592,0.643817863,0.230755269,-0.04532325,-0.0427534219
96712.226071,0.564258427,0.367087744,0.661917584,0.180809273,0.00819483666,-0.0313851919
96712.236099,0.382311267,0.0369511688,0.621273439,0.0862438819,0.0165499718,-0.0471745368
96712.246128,0.126811196,-0.222100274,0.522357722,0.0333535029,-0.0163118366,-0.0891691308
96712.256156,-0.161855999,-0.256375469,0.631366378,0.0119576687,-0.0444960716,-0.141640322
96712.266184,-0.132931956,-0.334288584,0.866834592,0.0154701118,-0.0426728699,-0.167189629
96712.276212,0.330295577,-0.340193826,0.860395499,0.0352398222,0.00792452587,-0.130514176
96712.286241,1.04713919,-0.102047077,0.697161916,0.128661125,0.0717085664,-0.06349519
96712.296269,1.42828692,0.335596262,-0.141583741,0.308041259,0.112616851,-0.0265142686
96712.306297,1.33078136,0.761516064,-1.23578358,0.443948223,0.138217277,-0.0297614589
96712.316326,1.22671206,1.02649577,-1.94957717,0.526724025,0.197959176,-0.0581129428
96712.326354,1.09425896,1.09963107,-2.51436092,0.606588527,0.282618916,-0.0719083857
96712.336382,1.02041493,0.249573947,-3.78840354,0.645511969,0.329648233,-0.0415840309
96712.346411,0.98852217,0.31442908,-3.7851986,0.679375931,0.312450058,0.0627604861
96712.356439,0.961993936,-0.391722572,-4.16619932,0.691118821,0.250149942,0.240029811
96712.366467,0.900864637,-0.970709587,-3.95879634,0.687345131,0.157645843,0.456720306
96712.376496,1.0186553,-1.42932736,-3.37125014,0.694982572,0.0936697934,0.669909253
96712.386524,1.32580358,-1.57804829,-2.4393919,0.726660593,0.0931368907,0.827169194
96712.396552,1.55048078,-1.30466711,-1.68461339,0.820476814,0.112521245,0.897064104
96712.406581,1.3262953,-0.658426211,-1.45079645,0.898651286,0.136691547,0.912555172
96712.416609,0.912154677,-0.25272197,-1.1879995,0.903673216,0.138571746,0.885237529
96712.426637,0.373759529,-0.074771313,-1.03463148,0.803318365,0.11943934,0.827535881
96712.436665,-0.0547461987,-0.164278492,-0.849727335,0.618998869,0.0654429485,0.763882114
96712.446694,-0.177237473,-0.474398846,-0.677904787,0.355643674,-0.0159278094,0.698720648
96712.456722,-0.0991908686,-0.650883467,-0.504397647,0.0745374253,-0.0909229602,0.635363295
96712.466750,-0.0181880443,-0.603901059,-0.463167227,-0.206806363,-0.105880068,0.55244173
96712.476779,-0.0376999329,-0.471724366,-0.311344096,-0.448903159,-0.0591256145,0.466194763
96712.486807,0.0534192482,-0.355509359,-0.259156812,-0.601337985,0.00417772482,0.388502641
96712.496835,0.185298237,-0.21716311,-0.44803454,-0.692662553,0.0909586911,0.34311892
96712.506864,0.302564178,-0.211194904,-0.54494067,-0.760350303,0.160710341,0.301211669
96712.516892,0.0925939418,0.0635244472,-0.984699284,-0.801865772,0.130463756,0.204859032
96712.526920,-0.480692159,0.619706597,-1.61748339,-0.708112077,0.0519654889,0.0309040163
96712.536949,-1.13877379,1.01551114,-1.54190062,-0.626819924,-0.0353912573,-0.152969674
96712.546977,-1.23346531,0.957367138,-1.01069473,-0.507234112,-0.131335103,-0.277035163
96712.557005,-0.696985205,0.772158747,-0.655973526,-0.396254317,-0.15838457,-0.334227071
96712.567034,-0.097418379,0.553346667,0.0822028021,-0.276693032,-0.104824127,-0.345834182
96712.577062,0.257161294,0.1130596,0.45437315,-0.149172352,-0.0161094359,-0.338557915
96712.587090,0.291457933,-0.0808326954,0.540152906,0.0160216512,0.0676118274,-0.339028225
96712.597118,0.0560881021,-0.32381512,0.710782445,0.157153486,0.132075763,-0.34207301
96712.607147,-0.22723269,-1.01287283,0.856615395,0.27112691,0.11864145,-0.375556127
96712.617175,-0.43687753,-1.19759293,0.0883747687,0.327728136,0.0293957301,-0.446424441
96712.627203,-0.701474479,-0.851336116,-0.210908622,0.408207013,-0.0662530299,-0.525344835
96712.637232,-0.663860349,-0.846106252,0.223035168,0.488316759,-0.108806082,-0.559991227
96712.647260,-0.0857793426,-1.19495147,0.961660409,0.473439022,-0.0827457245,-0.53042029
96712.657288,0.643491466,-1.62067455,1.70987824,0.39750643,-0.0108102794,-0.463262812
96712.667317,0.950659545,-1.71946196,2.17126708,0.283846452,0.0871556987,-0.412400977
96712.677345,0.810371588,-1.59066812,2.39917626,0.173585727,0.134090177,-0.366742389
96712.687373,0.469177686,-1.57153043,2.17484494,0.0281536812,0.122423938,-0.303598599
96712.697402,0.0531371433,-1.63493615,2.05038913,-0.153641672,0.0726739605,-0.248812587
96712.707430,-0.173300645,-1.48815511,2.02570477,-0.314205782,0.00624247349,-0.231610165
96712.717458,-0.217540367,-1.24119446,1.98543705,-0.438523219,-0.0335558067,-0.236579091
96712.727487,-0.17197579,-1.06354788,2.02332635,-0.527593748,-0.0350751366,-0.240450786
96712.737515,-0.20320884,-0.90986495,2.01784353,-0.592759685,0.00188767246,-0.238377527
96712.747543,-0.141756958,-0.713380255,2.07464094,-0.608006016,0.0694613893,-0.242322208
96712.757572,-0.0679955564,-0.459070746,2.01037568,-0.616961733,0.112832806,-0.261501
96712.767600,-0.287373307,-0.362262157,1.78533885,-0.648281828,0.0886385207,-0.276332156
96712.777628,-0.597739014,-0.337744241,1.52527044,-0.678592877,0.0243700527,-0.27425249
96712.787657,-0.710278036,-0.242150325,1.44333801,-0.662624315,-0.0383079733,-0.253670798
96712.797685,-0.750026255,-0.0290974301,1.49024765,-0.564054565,-0.0892433311,-0.243000836
96712.807713,-0.881792687,0.324023422,1.46675162,-0.420415954,-0.140296393,-0.253629253
96712.817741,-0.927583255,0.644508153,1.44818311,-0.277396218,-0.206084185,-0.286892937
96712.827770,-0.801162203,0.825799736,1.36243024,-0.155053244,-0.27734586,-0.33401622
96712.837798,-0.534352693,0.881423131,1.30830293,-0.115331934,-0.303656005,-0.377471284
96712.847826,-0.0514165063,0.726368325,1.41674343,-0.160024838,-0.267131829,-0.397138999
96712.857855,0.707271791,0.401587285,1.27984841,-0.276403383,-0.194267743,-0.39527239
96712.867883,1.23157426,0.118951735,0.850317757,-0.382522897,-0.106067584,-0.398416803
96712.877911,1.13113733,-0.0160703734,0.419009576,-0.437448458,-0.01247904,-0.400787012
96712.887940,0.663227116,-0.0790438027,0.051397914,-0.408621089,0.0756713216,-0.399422125
96712.897968,0.139596735,-0.227851349,-0.128888511,-0.302122877,0.126399211,-0.389441655
96712.907996,-0.335743188,-0.282256491,-0.081529378,-0.111875148,0.125386677,-0.368118004
96712.918025,-0.742923657,-0.149483147,0.15529668,0.0859258166,0.0627999966,-0.345935212
96712.928053,-1.15601149,-0.0316234415,0.448272495,0.278383656,-0.0413423787,-0.340311662
96712.938081,-1.56565305,0.183474038,0.876020938,0.441446348,-0.13099184,-0.324743644
96712.948110,-1.58856543,0.312062789,1.65398041,0.50327675,-0.186051884,-0.284574376
96712.958138,-1.20407511,0.347651624,2.3253681,0.556408389,-0.203275346,-0.217649953
96712.968166,-0.827823196,0.371223382,2.45698489,0.541148766,-0.166888842,-0.143498765
96712.978195,-0.567122926,0.44637843,2.66962986,0.502769633,-0.127797642,-0.0638268303
96712.988223,-0.17957841,0.400490503,2.4887332,0.453688904,-0.125367769,0.0186518029
96712.998252,0.0670430652,0.404278059,2.01241742,0.370560988,-0.144544401,0.0996454571
96713.008281,0.0665267132,0.426413464,1.56332282,0.278125062,-0.145818182,0.176448091
96713.018309,0.0292861295,0.464942846,1.42757755,0.196553527,-0.141460725,0.243517666
96713.028337,-0.00304965799,0.495869351,1.25661425,0.0939733526,-0.12739683,0.30930148
96713.038366,0.000457254157,0.677804127,1.17182993,-0.0280452324,-0.11398516,0.37009321
96713.048394,0.0809508137,1.0746345,1.03786277,-0.171847136,-0.117241942,0.403520389
96713.058422,-0.0538324814,1.59345584,0.874415256,-0.319464848,-0.135429465,0.420889004
96713.068451,-0.14929477,1.74114553,0.943052739,-0.431424663,-0.165122637,0.44042836
96713.078479,-0.111363829,1.7243601,0.944020123,-0.530529932,-0.216489949,0.460046782
96713.088507,-0.0383677127,1.60792612,0.880685422,-0.654846803,-0.289964431,0.47277589
96713.098536,0.062514628,1.31662408,0.737901922,-0.77343841,-0.341278487,0.474364205
96713.108564,0.213145115,0.97864768,0.616196282,-0.795026557,-0.340081417,0.453945233
96713.118592,0.28448572,0.903518278,0.337472864,-0.710688488,-0.288796925,0.388251438
96713.128621,0.101451823,1.09164256,0.0731970733,-0.514976279,-0.173493215,0.293182715
96713.138649,-0.0662852088,1.22618642,0.0134554291,-0.232174666,-0.0159776352,0.201413362
96713.148678,-0.144847143,1.4028111,0.0742585651,0.0937344721,0.102224103,0.116780235
96713.158706,-0.272682957,1.45029299,0.0171630514,0.373877152,0.145726315,0.0768104483
96713.168734,-0.405872772,1.35199949,-0.051289138,0.622012957,0.1193168,0.0637969066
96713.178763,-0.54432986,1.19293479,-0.0615241163,0.746530934,0.0268726264,0.0789236639
96713.188791,-0.419078729,0.7186861,0.107620736,0.746025189,-0.0989888992,0.138258888
96713.198819,-0.10350201,0.207974821,0.318951119,0.720319851,-0.192584896,0.19764684
96713.208848,0.219668306,-0.042896348,0.360859,0.650805756,-0.220637568,0.252027257
96713.218876,0.38937788,-0.226904643,0.300772488,0.546316846,-0.169569054,0.305957897
96713.228904,0.52386665,-0.386039156,0.237142019,0.461616858,-0.063866065,0.346579357
96713.238933,0.454486605,-0.14579907,0.0819906207,0.385218247,0.0384975922,0.354960843
96713.248961,0.140370386,0.300578834,-0.163168381,0.307790293,0.0642985616,0.356717481
96713.258989,-0.136992484,0.454526556,-0.51536737,0.196496799,0.0281416223,0.395934655
96713.269018,-0.0683684448,0.26554135,-0.693453654,0.1271369,-0.032230639,0.484960123
96713.279046,0.113381038,0.0183591167,-0.978414505,0.120181522,-0.0642128076,0.583399846
96713.289074,0.228748854,-0.0590378469,-1.00904521,0.0644335738,-0.071852618,0.66216655
96713.299103,0.444842651,-0.0525806884,-1.24982438,-0.0117437569,-0.0823116537,0.70694895
96713.309131,0.580911091,-0.133982394,-2.05622611,-0.0500621171,-0.0305725589,0.746307566
96713.319159,0.583659878,-0.292824647,-2.14386698,-0.0383596541,0.100932202,0.779185309
96713.329188,0.504249291,-0.23811654,-1.98485014,0.0552603109,0.195088542,0.805004968
96713.339216,0.225248152,-0.48163172,-2.24484665,0.23105584,0.215586624,0.81302531
96713.349245,0.0480681695,-0.806768441,-2.14531075,0.37763141,0.198853186,0.811302258
96713.359273,0.137024656,-0.980327457,-1.95081226,0.498567953,0.148501596,0.79679574
96713.369301,0.224040969,-1.03057734,-1.95526515,0.612138494,0.0860003893,0.801485075
96713.379330,0.197474887,-1.07734684,-1.79114426,0.665866955,0.0449134138,0.79888369
96713.389358,0.101255278,-1.02639253,-1.59223848,0.648395046,0.0399143946,0.781537725
96713.399386,0.163085638,-0.803612826,-1.60457598,0.580264195,0.0351340201,0.735853865
96713.409415,0.264510122,-0.542717582,-1.73722212,0.499033495,0.0644974996,0.659717812
96713.419443,0.499864427,-0.445975592,-1.59678372,0.411633863,0.0986264412,0.59361787
96713.429471,0.708456324,-0.592830726,-1.34655867,0.284424766,0.0780085091,0.531645312
96713.439500,0.498072064,-0.420126171,-1.20686553,0.196196391,0.0396973443,0.390827252
96713.449528,-0.125118141,-0.0557504592,-0.994134637,0.17322637,0.0189206925,0.165707826
96713.459556,-0.710623196,0.129351951,-0.692970839,0.143971278,-0.0103671533,-0.0910776194
96713.469585,-1.03816559,0.315842892,-0.640837916,0.0789169064,-0.0615744117,-0.307444529
96713.479613,-1.20156138,0.425418316,-0.682470488,0.00369458787,-0.117056587,-0.446376846
96713.489642,-1.2309903,0.481877723,-0.305487186,-0.0984562794,-0.140923032,-0.498113052
96713.499670,-0.91013703,0.245341753,0.451665645,-0.229029999,-0.135110417,-0.447350518
96713.509698,-0.199187147,-0.481398824,1.03510558,-0.368418262,-0.131140166,-0.325394497
96713.519727,0.463202338,-1.10680163,1.35209648,-0.514369027,-0.133303189,-0.167897583
96713.529755,1.02580831,-1.51148849,1.36119573,-0.64142342,-0.155293175,0.0053879291
96713.539783,1.30272344,-1.70229981,0.756520114,-0.708926574,-0.196642214,0.141749232
96713.549812,1.0240223,-1.69597485,0.0132298036,-0.718928591,-0.223038399,0.191375105
96713.559840,0.295087193,-1.30662701,-0.351601287,-0.630046145,-0.208330565,0.128992422
96713.569869,-0.547732801,-0.411552514,-0.811175193,-0.467142181,-0.193183296,-0.0225709986
96713.579897,-0.985387355,0.464890056,-1.11436494,-0.255559907,-0.202479863,-0.173017503
96713.589925,-0.647969245,0.719366702,-1.18300418,-0.064905771,-0.224053332,-0.242067934
96713.599954,0.114491483,0.561411571,-0.843641877,0.0512815481,-0.226807305,-0.232209982
96713.609982,0.685332346,0.430703343,-0.221511265,0.094440206,-0.186826863,-0.184040592
96713.620010,1.10146882,0.283325392,0.508520335,0.149448602,-0.142970198,-0.143511803
96713.630039,1.31916078,0.190129331,0.789060447,0.184260367,-0.129007244,-0.119417125
96713.640067,1.17892616,0.0299655386,0.663384149,0.196127682,-0.124270559,-0.116794177
96713.650096,0.70935057,-0.185230442,0.428392906,0.225520997,-0.108785608,-0.140546383
96713.660124,0.280589735,-0.288153513,0.116916388,0.272211268,-0.0934844102,-0.188176216
96713.670152,0.150960462,-0.321358338,-0.187995364,0.316768332,-0.0701862808,-0.231956185
96713.680181,0.399651437,-0.306288652,-0.22403523,0.308877929,-0.0222600336,-0.241447152
96713.690209,0.644435395,-0.207876738,0.168674632,0.217752813,0.0406904396,-0.234604434
96713.700237,0.823614589,-0.166152159,0.496861462,0.0688637411,0.0844088857,-0.226202698
96713.710266,0.871597334,0.0117189891,0.439979298,-0.0854318226,0.0789773677,-0.233555422
96713.720294,0.753264603,0.301517393,0.20726769,-0.269173429,0.0488005642,-0.255072669
96713.730323,0.761297834,0.466863438,0.159445616,-0.457210199,0.0134731977,-0.272329972
96713.740351,0.958899331,0.36863048,0.135937315,-0.612409846,-0.0167741879,-0.270090507
96713.750379,1.07686937,0.184627446,-0.00153638834,-0.74873604,-0.0345601078,-0.264532761
96713.760408,1.05670402,0.134036492,-0.0813756487,-0.85243322,-0.0292850185,-0.262875335
96713.770436,1.14952215,0.18375207,-0.145151663,-0.913597242,-0.00592190505,-0.246278794
96713.780465,1.28701792,0.306843447,-0.28161239,-0.942167358,0.070975541,-0.21408783
96713.790493,1.32548896,0.432766267,-0.0196022064,-0.973868326,0.17401377,-0.194808678
96713.800521,1.23005217,0.590715772,0.0969765929,-0.967091099,0.234853155,-0.187971533
96713.810550,1.08230038,0.773242012,-0.332252444,-0.901647882,0.243482596,-0.186502279
96713.820578,0.924162145,0.8851309,-0.966708285,-0.852387444,0.226094029,-0.190690891
96713.830606,0.772532856,0.775093412,-1.27565616,-0.796357946,0.211929998,-0.222301022
96713.840635,0.732288305,0.698189109,-1.67352794,-0.683463649,0.205587155,-0.308112309
96713.850663,0.616540549,0.707888738,-2.1389266,-0.518708781,0.214064783,-0.44378014
96713.860692,0.204285079,0.602896624,-2.35739107,-0.283976451,0.252935744,-0.602318929
96713.870720,-0.15274418,0.331086712,-2.15811996,-0.0332608456,0.301000482,-0.726092504
96713.880748,-0.228688844,0.167976317,-1.59712216,0.170587092,0.31979788,-0.768213616
96713.890777,-0.211574554,-0.000760831812,-1.03469929,0.341535105,0.30842138,-0.688641296
96713.900805,-0.00963911938,-0.246749124,-0.61226181,0.477290823,0.252787686,-0.509388969
96713.910834,0.143229283,-0.214495645,-0.457517238,0.592748984,0.145763225,-0.306867019
96713.920862,-0.0260696644,0.00112052496,-0.386344099,0.705763145,0.0111087438,-0.126852797
96713.930890,-0.0973089273,-0.00824512315,-0.19987811,0.807009324,-0.117964552,0.0239676208
96713.940919,0.137437913,-0.220469897,-0.0259805092,0.875435277,-0.202418708,0.126710503
96713.950947,0.414421575,-0.499540009,0.270660843,0.905117019,-0.214958468,0.17622213
96713.960976,0.673449235,-0.726738334,0.676175826,0.885238334,-0.133631655,0.194958269
96713.971004,0.945266892,-0.686586649,0.962119258,0.862540229,-0.0123233452,0.190209045
96713.981032,1.01040879,-0.415732284,0.95970869,0.845918103,0.0842591216,0.153868883
96713.991061,0.817452559,-0.0733267585,0.661559272,0.817645474,0.124536774,0.095019697
96714.001088,0.610806317,0.371289689,0.318595729,0.77282445,0.143570921,0.0605727684
96714.011117,0.554823002,0.471260066,0.209808607,0.659970327,0.178315318,0.0977955077
96714.021145,0.529361228,0.377665471,0.439437447,0.480698063,0.213235474,0.168457686
96714.031173,0.358069061,0.347255866,0.573796233,0.241784572,0.206270254,0.250357344
96714.041202,0.152324736,0.350004251,0.43563747,-0.0392654771,0.1607294,0.328226312
96714.051230,-0.00652968212,0.358337049,0.0573582837,-0.30056207,0.111969045,0.389940544
96714.061259,-0.164025087,0.509187463,-0.369815574,-0.499264793,0.0966430892,0.427448525
96714.071287,-0.33822335,0.63873841,-0.606954936,-0.609938041,0.0979994376,0.411603226
96714.081315,-0.604196885,0.809669854,-0.786882464,-0.638399259,0.101904428,0.330814644
96714.091344,-0.852728286,1.0606333,-0.910427595,-0.609387294,0.123498401,0.221503331
96714.101372,-0.8166901,1.25865997,-0.789643745,-0.516387061,0.172362885,0.125541373
96714.111401,-0.636980745,1.34226165,-0.617707216,-0.434615211,0.229664794,0.0592324015
96714.121429,-0.47456151,1.38332461,-0.342244845,-0.374739096,0.265865928,0.0167914655
96714.131458,-0.385102517,1.39058247,-0.25857346,-0.330837951,0.257956601,-0.00393778009
96714.141486,-0.419120194,1.48918313,-0.323609119,-0.288070516,0.221675298,-0.000653037035
96714.151514,-0.57810306,1.41225084,-0.262822349,-0.26626669,0.151383034,0.00974687266
96714.161543,-0.777020937,1.20762076,-0.199126999,-0.243247629,0.0871358727,0.00600593055
96714.171571,-0.733811326,0.958940963,-0.203408037,-0.210933642,0.0536729795,-0.012331797
96714.181600,-0.526836947,0.701785087,-0.181485544,-0.176903502,0.0548884486,-0.0177143115
96714.191628,-0.211907805,0.370932619,-0.0800142972,-0.14129144,0.0926928212,-0.00464005598
96714.201656,0.137323237,0.0553564114,0.0979071517,-0.104848483,0.162639952,0.012046513
96714.211685,0.337842047,-0.144465867,0.235292592,-0.0245094346,0.236135743,0.0120182827
96714.221713,0.27336625,-0.184326095,0.0966124357,0.0666146195,0.310376949,0.00159573585
96714.231742,0.0582089302,-0.25815406,-0.0267678602,0.131281494,0.361648119,0.00574547315
96714.241770,-0.196511352,-0.41311874,-0.193062,0.11476004,0.341796643,0.0200501111
96714.251799,-0.604331946,-0.310408599,-0.432413192,0.12703748,0.274475134,0.0173986674
96714.261827,-0.855402692,0.00598272416,-0.616099196,0.10540755,0.22252006,0.0157853242
96714.271855,-0.682502725,0.208436265,-0.444195984,0.0327570504,0.206251881,0.0378693219
96714.281884,-0.365994205,0.240491518,-0.387165937,-0.0846662456,0.194111324,0.0921759669
96714.291912,-0.207055214,0.133164093,-0.614518064,-0.216292188,0.16874232,0.19104795
96714.301941,-0.0509234438,-0.0680968402,-1.02384822,-0.374536709,0.12936934,0.316391512
96714.311969,-0.10221418,-0.312667156,-1.24503014,-0.496712671,0.0814907689,0.440560057
96714.321998,-0.323993311,-0.503222716,-1.40376407,-0.534852044,0.024239459,0.519887342
96714.332026,-0.454099299,-0.407225663,-1.52876466,-0.441378579,-0.0231229971,0.530711545
96714.342054,-0.458531545,-0.190750393,-1.55467067,-0.233356119,-0.0443100418,0.491703137
96714.352083,-0.345634905,-0.152678144,-1.36443919,0.0260309717,-0.0464317809,0.42629589
96714.362111,-0.255316336,-0.24553668,-1.0636565,0.301847084,-0.040373088,0.353346064
96714.372140,-0.195971345,-0.238364961,-0.796084592,0.569354459,-0.0370585184,0.272739096
96714.382168,-0.243383012,-0.186991771,-0.589913784,0.784499212,-0.0404537852,0.169712036
96714.392197,-0.312845419,-0.116880197,-0.340850176,0.973692044,-0.0177410144,0.0775941003
96714.402225,-0.242522614,-0.310748499,-0.0841521277,1.15102719,0.05793457,0.0274797965
96714.412253,-0.0414350826,-0.382038761,0.281742209,1.20017205,0.109445966,0.0221494798
96714.422282,0.109876628,-0.447472955,0.35858521,1.19370161,0.116460203,0.0381220568
96714.432310,0.118517615,-0.631872185,0.257958013,1.1302018,0.0681813572,0.0864973132
96714.442339,0.127485222,-0.807331262,0.293890327,1.00220226,-0.0104314351,0.148944168
96714.452367,0.016075058,-0.865050826,0.211623547,0.791260703,-0.0906311955,0.174380018
96714.462396,-0.121394042,-0.758680556,0.366551659,0.549353286,-0.139385679,0.154227613
96714.472424,-0.188750162,-0.598220164,0.535195576,0.321439966,-0.154383817,0.107454791
96714.482452,-0.294213656,-0.437193297,0.568366024,0.123686693,-0.150732079,0.0597767521
96714.492481,-0.26792599,-0.592105553,0.540012037,-0.0263193184,-0.168442899,0.0212378808
96714.502509,-0.349913971,-0.860770007,0.380488414,-0.11064645,-0.201498055,-0.0180645186
96714.512538,-0.534671805,-0.994209048,0.406115023,-0.152755559,-0.215786451,-0.06282054
96714.522566,-0.485169925,-1.17836515,0.628831307,-0.201387004,-0.21779474,-0.0838315498
96714.532595,-0.120682094,-1.18928833,0.822642983,-0.280807004,-0.178833493,-0.050976393
96714.542623,0.192871996,-1.1151771,1.00055274,-0.361358301,-0.111585484,-0.00419371033
96714.552652,0.160373895,-0.952961457,1.02653883,-0.416850076,-0.0310509625,0.0283415977
96714.562680,0.0485517152,-0.600495232,1.07814685,-0.433185087,0.0501594719,0.0416195866
96714.572708,0.0218145515,-0.342876854,0.972376449,-0.368848459,0.0920669798,0.0190716654
96714.582737,-0.21977262,-0.0609625222,0.447273547,-0.259060697,0.0494851608,-0.0372965347
96714.592765,-0.552491247,0.272030383,-0.117529497,-0.148575992,-0.0359719481,-0.0892271112
96714.602794,-0.649012982,0.202618591,-0.22356469,-0.0520076351,-0.103789606,-0.0997383382
96714.612822,-0.541074439,-0.134336413,0.073334436,0.0129559152,-0.131854796,-0.0801127117
96714.622851,-0.286397411,-0.380906725,0.420854327,0.0232559564,-0.154988089,-0.061647677
96714.632879,-0.0811122276,-0.521641476,0.62506757,0.00713158261,-0.169709765,-0.0750606891
96714.642908,-0.0583936883,-0.513197875,0.903468917,-0.0130256181,-0.159530365,-0.103608982
96714.652936,-0.00498384092,-0.509284939,1.32349349,-0.042296418,-0.129558095,-0.113140167
96714.662964,0.111878926,-0.517977766,1.56752085,-0.0737179899,-0.0956043835,-0.1109095
96714.672993,0.0347940793,-0.48420789,1.4450641,-0.0997423986,-0.0581297177,-0.11469146
96714.683021,-0.248312047,-0.395269012,1.32295982,-0.114132524,-0.00394930191,-0.116876313
96714.693050,-0.361799274,-0.381192191,1.16316732,-0.10562639,0.0189110067,-0.106087581
96714.703078,-0.331089516,-0.31902332,0.876762696,-0.136380048,-0.00480284461,-0.095373952
96714.713107,-0.290612545,-0.275810731,0.741002226,-0.168239177,-0.0450525294,-0.0850102614
96714.723135,-0.227798726,-0.283053961,0.69125123,-0.217347057,-0.0619036827,-0.0919709664
96714.733164,-0.128376302,-0.189416496,0.71473089,-0.267620639,-0.0469670753,-0.123809063
96714.743192,-0.0997170479,-0.021416091,0.686146601,-0.285419063,-0.0176019977,-0.18130085
96714.753221,-0.185803094,0.155764139,0.541226673,-0.267807857,0.0222335652,-0.25543739
96714.763249,-0.294042665,0.282568052,0.521721762,-0.215082602,0.0545066361,-0.330907838
96714.773277,-0.381723141,0.353425495,0.456141329,-0.124228076,0.0577769977,-0.390198873
96714.783306,-0.450432629,0.252056704,0.290714035,-0.038875089,0.0367462811,-0.429773168
96714.793334,-0.452511226,0.162039273,0.174346833,0.0461364752,-0.0211529724,-0.453231351
96714.803363,-0.40425719,0.159349724,-0.164945912,0.147163226,-0.0819108646,-0.4556828
96714.813391,-0.170657949,0.00957576195,-0.411068206,0.253255828,-0.106549093,-0.436602579
96714.823420,0.358788644,-0.227193743,-0.446997013,0.349390074,-0.0739552017,-0.406819658
96714.833448,1.01511295,-0.373088343,-0.436024368,0.474600478,-0.0171414531,-0.384392099
96714.843477,1.28807707,-0.268361474,-0.634506959,0.669334575,0.0487451543,-0.409179495
96714.853505,0.967624782,-0.0788747525,-0.801819336,0.838229044,0.107835903,-0.445295409
96714.863534,0.537801323,-0.1043672,-0.692244863,0.952345236,0.150350875,-0.466070996
96714.873562,0.200131831,-0.174099629,-0.599725569,0.979005857,0.15424814,-0.472590403
96714.883591,-0.0650797054,-0.278130314,-0.48697948,0.935225352,0.114238678,-0.447665618
96714.893619,-0.224391,-0.233198299,-0.428154366,0.815180167,0.0652122785,-0.395817326
96714.903647,-0.14282751,-0.109905536,-0.169687554,0.628893956,0.0496394437,-0.36099358
96714.913676,-0.129905923,-0.0331047661,-0.0762090597,0.353654875,0.00898442312,-0.284546212
96714.923704,0.0141347741,0.13277871,-0.152347712,0.11638826,-0.097501808,-0.197874428
96714.933733,0.293802999,0.199365069,-0.273773951,-0.098190614,-0.190727883,-0.103531414
96714.943761,0.740292528,0.159257771,0.0166001569,-0.299389497,-0.218108379,-0.0181704473
96714.953790,1.03981579,0.0913910534,0.124159199,-0.461448447,-0.162787073,0.049917261
96714.963818,1.10421914,0.203938442,0.0487617203,-0.567008928,-0.0849569823,0.0719639722
96714.973847,0.826899237,0.625000685,-0.269401143,-0.621064738,-0.0152583328,0.0427983653
96714.983875,0.461979664,1.14861715,-0.531678453,-0.647069947,0.0293938246,-0.0140713082
96714.993904,0.0854851327,1.62167933,-0.70337299,-0.656418697,0.0301461675,-0.0510849852
96715.003933,-0.0679311493,1.86175723,-0.828743583,-0.632460372,-0.00147221192,-0.0585679348
96715.013962,-0.0472812331,2.00089288,-0.811666776,-0.57830234,-0.0223359476,-0.0510700729
96715.023990,0.0735496706,2.13210007,-0.439501105,-0.501171307,-0.00931522169,-0.0553289961
96715.034019,0.314427159,2.07339727,0.00155631698,-0.447889761,0.00790184817,-0.0450878117
96715.044047,0.624104336,1.66875147,0.208000096,-0.441831873,0.0309962471,-0.0118054917
96715.054076,0.749158264,1.23527033,0.255721632,-0.483642177,0.0441842218,0.0429632168
96715.064104,0.555251274,0.898784893,0.215372671,-0.550972179,0.0369396274,0.117533325
96715.074133,0.298845669,0.644911911,0.0338891453,-0.602096097,-0.00839030569,0.175688236
96715.084161,0.0474350592,0.618915081,-0.165899852,-0.603954689,-0.0667343076,0.205133213
96715.094189,-0.141490526,0.747153704,-0.132478059,-0.559847192,-0.092491069,0.227445437
96715.104218,-0.122790903,0.790869731,0.114180241,-0.472157554,-0.0741219159,0.242763414
96715.114246,0.145193423,0.827707908,0.399872913,-0.335778938,-0.0287373877,0.242388978
96715.124275,0.364589074,0.761725908,0.585636893,-0.196390674,0.0246704434,0.22185999
96715.134303,0.297387506,0.70989036,0.673067339,-0.0455268668,0.0647014816,0.194367914
96715.144332,0.0416248386,0.63974145,0.59881903,0.140797212,0.100978262,0.160271465
96715.154360,-0.158116849,0.679375249,0.498251455,0.345311447,0.135572991,0.132978051
96715.164389,-0.201779794,0.695531288,0.516043132,0.469267203,0.144024006,0.136118992
96715.174417,-0.120265111,0.565208041,0.471335391,0.557761713,0.108130186,0.173186465
96715.184446,-0.00353952386,0.388682394,0.285191472,0.62473671,0.0408997451,0.225812926
96715.194474,0.180815173,0.145268135,0.083387628,0.661293968,-0.0200325801,0.263791724
96715.204503,0.247052244,0.0303134296,0.0263482284,0.683987006,-0.032064208,0.266941978
96715.214531,0.209536679,0.0376705006,0.301862037,0.692856952,-0.00269566815,0.231629534
96715.224560,0.0712687932,0.0328405825,0.672247839,0.599331482,0.0354216237,0.182664125
96715.234588,-0.0288903843,-0.184103393,0.833309923,0.376188948,0.0581527677,0.155141159
96715.244617,-0.0705110828,-0.434685223,0.725438162,0.0798883056,0.052822451,0.154230087
96715.254645,-0.143513483,-0.451004599,0.425356899,-0.284635589,0.010433982,0.186438351
96715.264674,-0.0413388374,-0.343950657,-0.0300289078,-0.650362388,-0.0552531529,0.253339096
96715.274702,0.31318063,-0.139415233,-0.638195292,-0.983667926,-0.144289279,0.312733724
96715.284731,0.556769314,0.255642965,-1.33844842,-1.22645237,-0.207093277,0.331490083
96715.294759,0.612132597,0.673828721,-1.64349403,-1.38415231,-0.207441622,0.296993627
96715.304788,0.488201973,0.917094968,-1.44895229,-1.41673531,-0.14048762,0.214495017
96715.314816,0.343290741,0.918661267,-1.0469684,-1.30433895,-0.0158101396,0.127226158
96715.324845,0.436776761,0.692946751,-0.158416803,-1.08037724,0.116754032,0.0734952901
96715.334873,0.62253146,0.325520018,0.684277884,-0.789606051,0.211295715,0.0674150277
96715.344902,0.688811859,0.0237519704,0.90345255,-0.455243037,0.242875478,0.108643695
96715.354930,0.581752729,-0.151908256,0.549505841,-0.0820728997,0.183003357,0.092578708
96715.364959,0.264809726,-0.173088845,0.177929952,0.166011482,0.0527713214,0.0674219493
96715.374987,0.0614776131,-0.0615523504,-0.000830870416,0.390415533,-0.0530208881,0.0483036515
96715.385016,-0.159026146,-0.0456070317,-0.0277995414,0.568020984,-0.0719501089,0.0170626424
96715.395044,-0.326103216,-0.0397976878,0.360189138,0.657365783,-0.0422843556,-0.0553026359
96715.405073,-0.208396728,-0.0406238364,0.604370235,0.688046976,-0.0130684144,-0.130872757
96715.415101,0.0437042752,-0.201970071,0.742113987,0.605797633,-0.000699362726,-0.165979074
96715.425130,0.242340668,-0.620976989,0.994143459,0.448190971,-0.0129725413,-0.171015919
96715.435158,0.269332647,-1.16195463,1.01917619,0.312651231,-0.017272479,-0.185497926
96715.445187,0.141521712,-1.3864068,1.0290663,0.211136087,0.0102957635,-0.227107153
96715.455215,0.0904101315,-1.39149404,1.12449769,0.1320948,0.0272904605,-0.272520975
96715.465244,0.197946596,-1.46333236,1.08597419,0.050733625,0.0353459892,-0.292539166
96715.475272,0.405504474,-1.48881839,1.12390147,-0.0215118108,0.0380610813,-0.290611015
96715.485301,0.586610325,-1.31244388,1.02947956,-0.116254301,0.0261500952,-0.271931336
96715.495329,0.63195125,-1.04483646,0.927665785,-0.216286347,0.0101559478,-0.261579917
96715.505358,0.488997763,-0.716202838,0.857510298,-0.310851232,0.0168585916,-0.25359814
96715.515386,0.41540949,-0.386725056,1.02840638,-0.400900141,0.0292614669,-0.234103278
96715.525415,0.547428946,-0.116076297,1.10406046,-0.520156221,0.0332024124,-0.225125224
96715.535443,0.622292464,0.161223116,1.17232911,-0.59569116,0.0428414558,-0.234988512
96715.545472,0.708980275,0.32480259,1.08582455,-0.586003915,0.0441496026,-0.270293222
96715.555501,0.805731727,0.357634089,0.77745535,-0.531370238,0.0322279622,-0.334000305
96715.565529,0.778774673,0.190227312,0.34488051,-0.40869923,0.026465413,-0.444971041
96715.575558,0.596102449,-0.114115481,0.147431938,-0.244919599,0.0995007445,-0.554969714
96715.585586,0.617398189,-0.413540107,0.627527238,-0.103122787,0.239028281,-0.603911922
96715.595615,0.622020077,-0.643292793,0.905233004,-0.00391683912,0.347304947,-0.592820154
96715.605643,0.305050734,-0.76082955,0.72215841,0.0596845066,0.38018725,-0.543673084
96715.615672,-0.139105786,-0.697288002,0.793446115,0.0638997546,0.342175967,-0.464152173
96715.625700,-0.386012472,-0.584438964,1.0474425,-0.0542425932,0.238691917,-0.349810437
96715.635729,-0.399941555,-0.631746074,1.25493959,-0.224962936,0.0989971374,-0.212016345
96715.645757,-0.375202251,-0.702385545,1.29910373,-0.358782277,-0.0508690561,-0.0997222971
96715.655786,-0.527080364,-0.702955965,1.14357064,-0.413786666,-0.163559117,-0.0429402414
96715.665814,-0.687446026,-0.630500604,1.13659437,-0.409991399,-0.221563303,-0.0412715014
96715.675843,-0.766612648,-0.635468602,1.24155696,-0.346698717,-0.227809751,-0.0690397482
96715.685871,-0.696138598,-0.759003577,1.23440651,-0.23381661,-0.208244302,-0.106815093
96715.695900,-0.280587264,-0.747992207,0.905979438,-0.10008146,-0.195572981,-0.141535253
96715.705928,0.100503473,-0.57078541,0.272135007,0.0391049301,-0.189813891,-0.190894545
96715.715957,0.362750607,-0.431327035,-0.507274664,0.177211403,-0.184283578,-0.265440957
96715.725985,0.520116357,-0.26989999,-1.05505643,0.280740186,-0.141896703,-0.352996902
96715.736014,0.623371345,-0.154303772,-1.19306614,0.388118311,-0.0317832466,-0.416233138
96715.746043,0.655389555,-0.28227841,-0.811349965,0.45568855,0.113169416,-0.437370644
96715.756071,0.559957698,-0.405659218,-0.415965331,0.445615157,0.222329995,-0.433187888
96715.766100,0.195678542,-0.275922246,-0.0804234626,0.418587371,0.26430837,-0.406061844
96715.776128,-0.0998150283,0.00710683282,0.183424458,0.374387666,0.224548421,-0.352874802
96715.786157,-0.172304255,0.180458124,0.425166929,0.315098002,0.133481628,-0.262703912
96715.796185,-0.0973868879,0.423584451,0.531705396,0.242164134,0.0151906711,-0.165565626
96715.806214,-0.142558411,0.648483486,0.308083688,0.125814348,-0.0854842748,-0.082578079
96715.816242,-0.319481277,0.625686402,0.0727101666,0.00405170258,-0.129175299,-0.0210332211
96715.826271,-0.248392127,0.68248644,-0.0237897212,-0.113671199,-0.134054476,0.0110876968
96715.836299,-0.0270979845,0.786019806,-0.187797211,-0.226101086,-0.121888355,0.0252077773
96715.846328,0.271536989,0.875275787,-0.45132306,-0.366956458,-0.10995979,0.0405089695
96715.856356,0.566012468,0.913999413,-0.7545321,-0.445814804,-0.101768972,0.0592922408
96715.866385,0.7692013,1.05286684,-1.25094608,-0.457607285,-0.0763714697,0.060284539
96715.876414,0.793267747,1.37090761,-1.56029377,-0.354130671,-0.0310684341,0.0332007248
96715.886442,0.750663992,1.65798706,-1.77493898,-0.167966933,0.0118566601,-0.0210840881
96715.896471,0.634998655,1.80898835,-1.95826199,0.0332026659,0.0296665513,-0.0768453564
96715.906499,0.429562336,1.70093276,-1.97794577,0.191603481,0.0287544177,-0.108086632
96715.916528,0.268316894,1.43554988,-1.70285808,0.309475794,0.0327619415,-0.115334422
96715.926556,0.367079466,1.24387113,-1.32923461,0.373581811,0.0298074324,-0.0839978095
96715.936585,0.679528555,1.10863709,-1.3737366,0.38750641,4.90032755e-05,-0.0270445078
96715.946613,0.718975965,0.959087897,-1.87001146,0.371885641,-0.0358440142,0.0286821377
96715.956642,0.581869999,0.81728822,-2.22365773,0.340769812,-0.0541873361,0.0728578482
96715.966670,0.474630069,0.660487009,-2.53385239,0.347318514,-0.0361010108,0.10793168
96715.976699,0.413443195,0.521360862,-2.54810712,0.404648109,0.0232970685,0.106873876
96715.986728,0.398932037,0.613306009,-2.18885062,0.495705589,0.0885341306,0.0573143129
96715.996756,0.356103607,0.648045899,-1.83292881,0.545885964,0.124701983,-0.0135007363
96716.006785,0.244162769,0.518149608,-1.33378394,0.595092936,0.127923599,-0.075068229
96716.016813,0.0579805282,0.413943493,-1.02845075,0.618334576,0.121048129,-0.113953845
96716.026842,0.0226676612,0.434930862,-0.72147914,0.579827948,0.109255656,-0.107879439
96716.036870,0.254013351,0.496335872,-0.629044602,0.523502334,0.100801713,-0.0598977964
96716.046899,0.43950688,0.508845189,-0.821821675,0.48045285,0.0976458703,0.0164763376
96716.056927,0.456430359,0.473047278,-1.17567252,0.391619398,0.113949208,0.108342073
96716.066956,0.37002721,0.271231451,-1.38696316,0.221834882,0.143719084,0.227592318
96716.076985,0.360725933,-0.0129896873,-1.43753658,0.0339952214,0.168953857,0.357881351
96716.087013,0.30949058,-0.295842844,-1.40255586,-0.179346354,0.163857109,0.458999439
96716.097042,0.0480450261,-0.329854035,-1.38301939,-0.367995904,0.135735727,0.512622132
96716.107070,-0.309340845,-0.257977296,-1.37662823,-0.504142002,0.109553127,0.523030831
96716.117099,-0.551458105,0.00422324021,-1.28534403,-0.553112463,0.0904846255,0.493267133
96716.127127,-0.530521115,0.349318461,-1.30952044,-0.539471463,0.0812250812,0.452773495
96716.137156,-0.33420374,0.529384594,-1.19776336,-0.510389225,0.0686384503,0.43706645
96716.147184,-0.155407389,0.647207913,-1.04233256,-0.458849118,0.0424894047,0.432972356
96716.157213,-0.124116581,0.773768812,-1.19467942,-0.376008556,0.00290950468,0.444200798
96716.167242,-0.133520186,0.950655219,-1.28615476,-0.265777127,-0.0193183023,0.469446762
96716.177270,0.020224378,1.00367245,-1.07521659,-0.120925919,-0.0159816287,0.490649774
96716.187299,0.199187463,1.0403718,-0.983951681,0.0126811434,0.00353614648,0.489851369
96716.197327,0.334259293,1.0376312,-0.920643284,0.13710375,0.0430808914,0.465848281
96716.207356,0.422751523,1.01535434,-0.814666543,0.251649513,0.0960572947,0.416190727
96716.217384,0.237737321,0.95162684,-0.690043553,0.326560511,0.128031722,0.341643258
96716.227413,-0.0726294815,0.736735843,-0.744335115,0.368424072,0.124606109,0.260636552
96716.237442,-0.280960828,0.490455911,-0.800449217,0.384436323,0.106811135,0.198477044
96716.247470,-0.304432286,0.227860804,-0.739988026,0.383627518,0.107836983,0.166831761
96716.257499,-0.154151617,-0.0553814067,-0.492496197,0.375054522,0.122253745,0.184362276
96716.267527,0.0670910873,-0.286947279,-0.272665113,0.401892795,0.118762872,0.250492557
96716.277556,0.346559168,-0.293243292,-0.253232099,0.462933525,0.106792494,0.335276975
96716.287584,0.577547715,-0.0873049053,-0.203526111,0.496580704,0.0806972448,0.420046701
96716.297613,0.45907649,-0.00438225545,-0.238747062,0.504256471,0.0462700267,0.467170819
96716.307641,0.108711631,-0.185992567,-0.209036398,0.461120977,0.0215375171,0.486440911
96716.317670,-0.166795976,-0.405368272,0.122945147,0.390238001,0.0280425557,0.479790999
96716.327699,-0.330715313,-0.429329103,0.454872916,0.3306434,0.0425282855,0.44306974
96716.337727,-0.527355637,-0.401374453,0.758966338,0.226965739,0.0332761992,0.385959043
96716.347756,-0.64979383,-0.375228826,1.0656375,0.124322183,-0.00379660133,0.340194746
96716.357784,-0.680261449,-0.303400639,1.30070999,0.058446235,-0.0416899222,0.314003094
96716.367813,-0.600485244,-0.0732352123,1.74852156,0.0182556724,-0.066244797,0.297248079
96716.377842,-0.39140549,0.125284089,2.15096781,0.00975352993,-0.0810612972,0.294568672
96716.387870,-0.1845701,0.284261595,2.25740691,0.0235063611,-0.0970807384,0.281873389
96716.397899,-0.211839744,0.432927668,2.23378229,0.0548624201,-0.110978977,0.248929023
96716.407927,-0.381734137,0.436608257,2.0971538,0.0853859773,-0.120709905,0.204255297
96716.417956,-0.473351952,0.262375634,1.9501559,0.105069666,-0.142751032,0.143264382
96716.427984,-0.507076819,0.0228298506,1.701934,0.10463903,-0.166080051,0.0712959085
96716.438013,-0.449939074,-0.207439881,1.52773245,0.0716382032,-0.158782193,-0.00462708359
96716.448042,-0.238247567,-0.443096639,1.63055336,0.0266017532,-0.109029011,-0.0833059188
96716.458070,0.0166853354,-0.591592781,1.57517692,-0.0432822564,-0.0509553227,-0.171666936
96716.468099,-0.0168388216,-0.609160258,1.46111274,-0.170317174,-0.0277509365,-0.263092444
96716.478127,-0.139235879,-0.678194595,1.25862792,-0.269028054,-0.0352341506,-0.323655651
96716.488156,-0.0281299214,-0.740488846,1.12936851,-0.336053685,-0.0559929583,-0.358394996
96716.498184,0.137015724,-0.659441598,1.12355134,-0.376377122,-0.0648671474,-0.382375435
96716.508213,0.255483698,-0.544762641,1.12372261,-0.38137962,-0.0536887917,-0.403647171
96716.518242,0.290589462,-0.413105077,1.03146635,-0.384245441,-0.032772326,-0.402633832
96716.528270,0.304335937,-0.453214165,1.05279088,-0.433996485,-0.0250688653,-0.360220866
96716.538299,0.284244696,-0.63136935,1.11435798,-0.500763492,-0.0470711041,-0.282475994
96716.548327,0.225089583,-0.773341972,1.12415983,-0.562365905,-0.0629930805,-0.204043777
96716.558356,0.119441617,-0.811856046,1.20802353,-0.593386368,-0.0655904572,-0.153203235
96716.568385,-0.00769419586,-0.715977871,1.30129685,-0.561630026,-0.0522525507,-0.130269424
96716.578413,-0.123498303,-0.712966779,1.44202927,-0.519764916,-0.0387567143,-0.113927477
96716.588442,-0.152916741,-0.763185758,1.59053231,-0.457097814,-0.0267815451,-0.118136876
96716.598470,-0.136240843,-0.671100545,1.63569306,-0.372782395,-0.00188844652,-0.138581679
96716.608499,-0.0323596496,-0.585480363,1.72988993,-0.278718219,0.0227431309,-0.154765175
96716.618528,0.0729961649,-0.475639932,1.95623259,-0.197543205,0.0407924381,-0.168568344
96716.628556,0.0209797994,-0.402991789,2.16416514,-0.126687945,0.0535873313,-0.182578967
96716.638585,-0.0708344696,-0.468649306,2.37519859,-0.105566137,0.0406305183,-0.178526432
96716.648613,-0.164603453,-0.61106737,2.39650733,-0.0921488637,0.0126353687,-0.17131433
96716.658642,-0.318736633,-0.672659684,2.25475142,-0.0699556777,-0.0148915966,-0.170266376
96716.668671,-0.454802515,-0.623377913,2.0564553,-0.0584825137,-0.0453166153,-0.185950802
96716.678699,-0.502425925,-0.471781357,1.81553057,-0.0397362569,-0.057157294,-0.198107855
96716.688728,-0.343920685,-0.305707582,1.73984609,0.00517262706,-0.0431772965,-0.203985722
96716.698756,-0.163174699,-0.193945462,1.75419727,0.0756425327,-0.0355630528,-0.225972251
96716.708785,-0.273634668,-0.202824861,1.62392137,0.172907828,-0.0417013738,-0.269660876
96716.718813,-0.529524907,-0.330742618,1.49632492,0.29350908,-0.0533092927,-0.323455916
96716.728842,-0.707075075,-0.530828516,1.40114021,0.43815334,-0.0606369797,-0.368421004
96716.738871,-0.67886561,-0.704138526,1.40783649,0.531870826,-0.086933301,-0.388379262
96716.748899,-0.549335377,-0.88681886,1.43939073,0.612915858,-0.133348742,-0.390020297
96716.758928,-0.251694127,-1.01604342,1.31821116,0.660937174,-0.17500911,-0.378199057
96716.768957,0.165884255,-1.07250729,1.17344146,0.69378446,-0.18524062,-0.344583676
96716.778985,0.618646655,-1.07258174,0.90349522,0.672693594,-0.206282788,-0.307128177
96716.789014,0.887395499,-0.860155309,0.209131146,0.67870967,-0.236426034,-0.275540427
96716.799042,0.95716637,-0.575081463,-0.492378708,0.684833868,-0.232827568,-0.259928451
96716.809071,0.858783737,-0.325260059,-0.430103162,0.651111587,-0.185841688,-0.263696806
96716.819100,0.677082623,-0.193177017,0.0569643159,0.571352824,-0.107386285,-0.268367992
96716.829128,0.562433112,-0.202786484,0.594357375,0.439265921,-0.0354258131,-0.263699488
96716.839157,0.436784944,-0.173001897,0.966067119,0.288185312,-0.0206788249,-0.257908956
96716.849185,0.29154605,0.131464714,0.905916894,0.15479581,-0.0637075167,-0.237012477
96716.859214,0.264961994,0.477294524,0.653400515,0.0225293888,-0.100164325,-0.178893776
96716.869243,0.487616611,0.634244971,0.775085113,-0.157029719,-0.104679183,-0.0950188499
96716.879271,0.869374616,0.780657256,0.796095753,-0.360410259,-0.120598496,-0.0304427903
96716.889300,1.00259161,0.986293592,0.300764304,-0.519169525,-0.161008516,-0.00853083392
96716.899328,0.834435039,1.05704171,-0.23761192,-0.60214539,-0.194319868,-0.0224152256
96716.909357,0.63716935,1.01414504,-0.497766247,-0.675367133,-0.223268428,-0.0768081557
96716.919386,0.512583879,0.906674404,-0.856929229,-0.675292329,-0.205999949,-0.154884846
96716.929414,0.42016516,0.836522863,-1.12617755,-0.583329634,-0.151132711,-0.225419463
96716.939443,0.24532984,0.968916706,-1.29872432,-0.487747447,-0.0818899806,-0.291012601
96716.949471,-0.01667848,1.27556449,-1.4012214,-0.361340777,-0.00502396574,-0.331907288
96716.959500,-0.151623615,1.52880553,-1.38436963,-0.229550795,0.0613183033,-0.345827119
96716.969529,-0.0910034339,1.66029709,-1.25175272,-0.145083846,0.0805042525,-0.342578844
96716.979557,0.0221502863,1.67413331,-1.24506696,-0.0571558522,0.0589933646,-0.33128144
96716.989586,0.210304047,1.5004077,-1.34524291,0.0313196844,0.030066111,-0.298674778
96716.999614,0.574823039,1.19527208,-1.15838061,0.0804376966,-0.00492462901,-0.232881651
96717.009643,0.89342097,0.718527256,-0.982527201,0.133133127,-0.0457591462,-0.157095001
96717.019672,0.948240282,0.25472364,-0.987666317,0.172870426,-0.0678442057,-0.109305651
96717.029700,0.83905437,-0.0121726536,-0.799253869,0.209692358,-0.042034981,-0.0770339977
96717.039729,0.768683706,-0.144401168,-0.60896686,0.276026114,0.0210262769,-0.0480217833
96717.049758,0.740321243,-0.04651231,-0.730134741,0.339361682,0.105259134,-0.037204289
96717.059786,0.645575359,0.064978482,-0.805854875,0.378645434,0.206420368,-0.0248826418
96717.069815,0.563489489,0.252403709,-0.665904553,0.360071762,0.264456249,0.00966121985
96717.079843,0.495331935,0.472956458,-0.62363719,0.284016921,0.257141865,0.063018455
96717.089872,0.2851832,0.550075755,-0.702472242,0.184526279,0.229470557,0.105933427
96717.099901,0.0891696299,0.51547016,-0.527985444,0.0431161551,0.212121389,0.143712236
96717.109929,-0.00315235118,0.441576035,-0.115806911,-0.149963022,0.20693729,0.162555425
96717.119958,-0.107189758,0.434443188,0.292075971,-0.362468884,0.205761767,0.170218675
96717.129986,-0.148787003,0.316343828,0.549283138,-0.57953246,0.191791094,0.187997668
96717.140015,-0.186079938,0.192302584,0.503260223,-0.799535171,0.163767449,0.217040508
96717.150044,-0.269094212,0.177713758,0.452403311,-0.987509326,0.138883135,0.250079407
96717.160072,-0.301864481,0.271455908,0.328126943,-1.10978843,0.0934368287,0.276617004
96717.170101,-0.170071673,0.39585097,-0.0415095023,-1.16435208,0.0472951633,0.297873302
96717.180130,-0.0486747698,0.510828654,-0.406225442,-1.17589285,0.0168600277,0.301778032
96717.190158,0.0198269579,0.608954024,-0.667649935,-1.13045587,0.0224950117,0.298989697
96717.200187,0.239425183,0.666176087,-0.771591371,-0.983110861,0.0830616866,0.319148763
96717.210215,0.574156137,0.693503289,-0.557655775,-0.76171215,0.160802013,0.361229642
96717.220244,0.680240649,0.661009644,-0.279296514,-0.508715586,0.217532939,0.403090789
96717.230273,0.54912121,0.59395965,-0.36924625,-0.179508925,0.255700297,0.424369468
96717.240301,0.487787036,0.533995814,-0.905594768,0.15934795,0.289149082,0.418634339
96717.250330,0.251505424,0.618120131,-1.40015056,0.47631581,0.296512163,0.380349262
96717.260359,-0.194815617,0.689686069,-1.99219583,0.751783594,0.275578118,0.339835389
96717.270387,-0.566900223,0.679894743,-2.36548378,0.93289028,0.198622635,0.331660821
96717.280416,-0.804648511,0.316105416,-2.49084034,1.0135145,0.102211146,0.369668676
96717.290444,-0.949614762,-0.280282634,-2.20888803,1.03553532,0.023900627,0.453600569
96717.300473,-0.920131331,-0.619290497,-1.7903423,1.03937541,-0.0235760781,0.546380891
96717.310502,-0.762837221,-0.747192947,-1.51673403,1.01879178,-0.0425692099,0.623701705
96717.320530,-0.687046944,-0.75432236,-1.20893649,1.00433241,-0.0403449397,0.657664194
96717.330559,-0.760266348,-0.625192415,-0.96783349,1.00496016,-0.042669614,0.652802124
96717.340588,-0.814597292,-0.474607228,-0.978572326,0.957323714,-0.0662287335,0.613274946
96717.350616,-0.747912916,-0.323697851,-1.04797203,0.884284898,-0.0919303681,0.559913172
96717.360645,-0.582639279,-0.243073705,-1.00152533,0.832265898,-0.0958175148,0.480619415
96717.370674,-0.476429131,-0.135576951,-0.788174842,0.810833856,-0.0819933127,0.365095748
96717.380702,-0.521604453,0.0247798248,-0.557476911,0.778780087,-0.0728951554,0.218053042
96717.390731,-0.669885089,0.0673196748,-0.322065396,0.71129851,-0.0804358955,0.0836952318
96717.400759,-0.709249862,-0.0430213808,0.0607005799,0.620213314,-0.0863547708,0.00626915118
96717.410788,-0.565630423,-0.247701091,0.496315518,0.520044907,-0.0778768669,-0.0228077743
96717.420817,-0.294177471,-0.317186533,0.881940391,0.405736192,-0.0384192068,-0.0114206292
96717.430845,0.0562586364,-0.322072149,1.27616943,0.300266757,0.0259976004,0.0270777613
96717.440874,0.248926586,-0.392703254,1.44774881,0.207775681,0.104007712,0.0676084075
96717.450903,0.172142019,-0.559420952,1.37167037,0.0745118996,0.167251385,0.109049327
96717.460931,0.111734915,-0.758677706,1.06673991,-0.0793098891,0.173296771,0.135876684
96717.470960,-0.0838857474,-0.835710531,0.385730991,-0.283567683,0.113629452,0.139209895
96717.480989,-0.414100283,-0.833434183,-0.353111107,-0.478932098,-0.00236080436,0.126290901
96717.491017,-0.702886611,-0.797876402,-1.07453855,-0.581837968,-0.0674093078,0.0904708494
96717.501046,-0.887367126,-0.412579226,-1.19202102,-0.617173091,-0.0726181875,0.0299044389
96717.511074,-0.698126995,-0.0239202649,-1.21659548,-0.614043311,-0.0522708419,-0.0463466543
96717.521103,-0.420775523,0.217831778,-1.39712565,-0.615776495,-0.0147759292,-0.114792288
96717.531132,-0.188074601,0.356610956,-1.35918668,-0.588891641,0.0284977768,-0.14138049
96717.541160,-0.0455197946,0.310003775,-1.36480159,-0.555045501,0.0601116259,-0.146278308
96717.551189,-0.152690385,0.333447304,-1.5064178,-0.50240709,0.0709802572,-0.156506718
96717.561218,-0.327305212,0.371537599,-1.83609984,-0.488305108,0.0449886013,-0.170006276
96717.571246,-0.389628324,0.21509817,-2.17299546,-0.483553753,-0.0381286565,-0.176413314
96717.581275,-0.39556356,-0.104143401,-2.70143248,-0.397635386,-0.115319842,-0.167006494
96717.591304,-0.31829773,-0.306574629,-2.89439543,-0.315083251,-0.170323187,-0.134175048
96717.601332,-0.013121098,-0.486395427,-2.71767926,-0.250161783,-0.194468462,-0.057424606
96717.611361,0.511037344,-0.785985619,-2.43140031,-0.213844539,-0.151830995,0.0493942525
96717.621389,1.04473096,-1.01085674,-1.73585551,-0.193947257,-0.0510354015,0.144156976
96717.631418,1.26739493,-1.07451614,-1.19406509,-0.190525101,0.0423965444,0.192937567
96717.641447,1.00822195,-1.02768199,-0.996652172,-0.240881206,0.10741949,0.182563229
96717.651475,0.44737038,-0.992002843,-0.770004979,-0.395814047,0.168839699,0.113491214
96717.661504,-0.152358048,-0.721822651,-0.187393891,-0.577209131,0.243234313,-0.00931912956
96717.671533,-0.482892628,-0.42210233,0.231858526,-0.615519539,0.248594723,-0.177763806
96717.681561,-0.746911923,-0.287014937,-0.530302489,-0.547649936,0.198837808,-0.38928722
96717.691590,-1.34341929,0.112444765,-0.935982307,-0.489004985,0.167542211,-0.553984867
96717.701619,-1.53258153,0.426342408,-0.631801208,-0.397368536,0.145573533,-0.573484288
96717.711647,-0.552953385,0.343156103,-0.530148175,-0.281838761,0.100247598,-0.44156243
96717.721676,0.634011909,0.391160949,-0.555114858,-0.0493328171,0.00253302056,-0.262473629
96717.731705,1.18985445,0.682157719,-1.14784577,0.256764009,-0.10393829,-0.148015754
96717.741733,1.17763334,0.859627771,-1.69880149,0.550275489,-0.17680692,-0.145340608
96717.751762,0.848787828,0.613003519,-2.00911131,0.810646935,-0.187201762,-0.225710825
96717.761791,0.331034997,0.303679248,-2.10008921,1.03626512,-0.129749664,-0.368911908
96717.771819,-0.251614925,0.101825956,-2.02039784,1.21042071,-0.0106266766,-0.519006119
96717.781848,-0.67461694,-0.132110645,-1.68045744,1.23777614,0.106695152,-0.614864991
96717.791877,-0.799599484,-0.103071671,-0.916161755,1.20002459,0.177499554,-0.592847035
96717.801905,-0.60949605,0.0441769553,-0.381362219,1.12944232,0.134724385,-0.47460054
96717.811934,-0.383872903,0.287909194,-0.116879508,1.0972905,-0.0339506428,-0.303844796
96717.821963,-0.210080352,0.524136464,0.100376757,1.08302341,-0.241908633,-0.1371056
96717.831991,-0.256654161,0.736281085,0.628689852,1.04643951,-0.365912312,-0.00402238516
96717.842020,-0.374870681,0.540868513,1.33748519,0.93203996,-0.389947617,0.116852104
96717.852048,-0.20792975,0.0542344216,1.9593475,0.762638195,-0.3598459,0.22233273
96717.862077,0.0363709914,-0.589314827,2.32167275,0.538260981,-0.301677936,0.298499419
96717.872106,0.0914039283,-1.10985166,2.45944924,0.292677029,-0.258461231,0.334479227
96717.882134,-0.0966027518,-1.10080392,2.2410666,0.0872780746,-0.213555553,0.315481557
96717.892163,-0.438540276,-0.51684098,1.98787451,-0.00416475766,-0.164633819,0.244213252
96717.902192,-0.659592536,0.296668675,1.52878634,-0.070153893,-0.127359145,0.150858535
96717.912220,-0.759316792,1.00095873,1.08154293,-0.107763589,-0.109067761,0.0573312517
96717.922249,-0.691119893,1.53376125,0.84516052,-0.103988559,-0.0830769102,-0.0156257778
96717.932278,-0.45853677,1.74878683,0.854135269,-0.0846489454,-0.0872644644,-0.0617557253
96717.942306,-0.359343588,1.79568288,0.683938861,-0.0659279907,-0.0991666626,-0.0946476247
96717.952335,-0.337134861,1.74338702,0.747255442,-0.0818299958,-0.107590244,-0.111852714
96717.962364,-0.146974437,1.35330941,1.03968999,-0.11695549,-0.0873504813,-0.104905055
96717.972392,0.017942167,0.832916874,1.10250037,-0.170353473,-0.0598786447,-0.0891268935
96717.982421,0.0144942551,0.458552012,1.15233963,-0.261222915,-0.0422104347,-0.0911184039
96717.992450,0.0011463324,0.249908714,0.927699687,-0.361444608,-0.0451676111,-0.115496718
96718.002477,-0.0484418378,0.298317648,0.461725266,-0.416256175,-0.0343860696,-0.152015851
96718.012506,0.125651029,0.522291713,0.250263951,-0.434854642,0.00870627525,-0.168911741
96718.022535,0.421706288,0.527165383,0.217890206,-0.461792246,0.0516361621,-0.163945214
96718.032563,0.496485197,0.501669744,-0.00415913806,-0.497371272,0.0667559941,-0.142439113
96718.042592,0.468774914,0.616608046,-0.347731168,-0.490835861,0.0518580069,-0.0964322101
96718.052621,0.542629875,0.792322633,-0.432679734,-0.447851644,0.0365197946,-0.0361472975
96718.062649,0.703178165,0.804797207,-0.295511151,-0.392948733,0.0291369826,0.0319372107
96718.072678,0.884945622,0.646020749,-0.200545634,-0.335363463,0.0303495199,0.0768567536
96718.082707,0.940973433,0.473739717,-0.140959472,-0.293601618,0.0352990021,0.100700295
96718.092735,0.956027575,0.179432508,-0.138245537,-0.235281602,0.0385667001,0.120533659
96718.102764,1.052794,-0.0307401832,-0.286978885,-0.141882137,0.0446927686,0.131168722
96718.112793,1.00434795,-0.0889000747,-0.364561307,-0.0422136085,0.0838668038,0.116378597
96718.122821,0.805108845,0.0522553036,-0.153113436,0.0264133914,0.138929791,0.0862840776
96718.132850,0.634544262,0.126518289,0.0870005578,0.0507022171,0.168033606,0.0781100307
96718.142879,0.582162516,0.0970826252,0.0271846792,-0.0275800684,0.185053608,0.0965708036
96718.152907,0.563973656,-0.0302474587,-0.0249926672,-0.200198443,0.177743769,0.147544234
96718.162936,0.576252597,-0.176446411,-0.201583744,-0.41970043,0.141517854,0.2495995
96718.172965,0.669601255,-0.371549151,-0.355394834,-0.68043615,0.103959023,0.392037048
96718.182994,0.77112635,-0.486716951,-0.507790797,-0.957890884,0.0577430603,0.518006994
96718.193022,0.642348068,-0.284398837,-0.918853478,-1.14226689,0.0188132384,0.58572103
96718.203051,0.45350954,0.0712438625,-1.40328301,-1.20756544,-0.00283985993,0.586429729
96718.213080,0.333833176,0.374788783,-1.50996293,-1.14815463,0.0142360626,0.533264234
96718.223108,0.226504527,0.422328606,-1.15924629,-0.942449109,0.0513464127,0.435633554
96718.233137,0.183022035,0.315422731,-0.824104818,-0.660690919,0.0814174925,0.308243348
96718.243166,0.0930875157,0.198508379,-0.557454115,-0.3243417,0.107126585,0.183109416
96718.253194,-0.0209740765,-0.00888670899,-0.331169909,0.0390594108,0.145935229,0.0857860659
96718.263223,-0.0412294953,-0.213093231,0.00872080178,0.421444609,0.174543983,0.0511002567
96718.273252,0.0630648458,-0.33399424,0.0730737392,0.760506316,0.16003508,0.0711948712
96718.283280,0.011672293,-0.460769695,0.0592731774,0.964625879,0.0941671122,0.12970744
96718.293309,-0.112083723,-0.552785058,0.128304044,1.0832908,-0.0183453161,0.203390716
96718.303338,-0.262073958,-0.604107687,0.0633145618,1.17862771,-0.11878644,0.267858102
96718.313366,-0.347114805,-0.594479991,0.288462457,1.21226583,-0.185558536,0.319851531
96718.323395,-0.180685148,-0.576736975,0.624732639,1.18193792,-0.218439796,0.358091607
96718.333424,0.0885619463,-0.588250595,0.892237913,1.07726823,-0.214927622,0.359606935
96718.343452,0.324226815,-0.582491264,1.19270204,0.942016169,-0.182735332,0.323926701
96718.353481,0.41755779,-0.67292228,1.52991681,0.784616156,-0.143444651,0.253905847
96718.363510,0.452233163,-0.843741642,1.80893482,0.634706839,-0.129252934,0.168724089
96718.373538,0.501381225,-0.877645519,1.88457722,0.47084464,-0.1384395,0.0907557894
96718.383567,0.482606236,-0.876758361,1.84070593,0.303267612,-0.163722494,0.032035752
96718.393596,0.450622148,-0.876646133,1.78837193,0.141257419,-0.186967352,-0.00714654026
96718.403624,0.570712097,-0.792274855,1.97873083,-0.013293541,-0.196589359,-0.0358463611
96718.413653,0.84156416,-0.581381476,2.14459184,-0.150254057,-0.189708286,-0.0415311467
96718.423682,1.06343515,-0.422940717,2.23691591,-0.244903074,-0.161494487,-0.0390610631
96718.433711,0.99791814,-0.236674378,2.24676685,-0.330816106,-0.129699,-0.0406453769
96718.443739,0.877825341,-0.0205503318,2.21537628,-0.407545255,-0.0962089534,-0.0606443893
96718.453768,0.802071524,0.131390836,2.14437849,-0.475607918,-0.0824220415,-0.0986439671
96718.463797,0.731371701,0.110206539,1.98586025,-0.550358311,-0.0933210264,-0.126680927
96718.473825,0.642690963,0.00612956702,1.85112445,-0.602445737,-0.0892743479,-0.157712073
96718.483854,0.638584696,0.0164754218,1.8127687,-0.676359371,-0.0539019789,-0.187668652
96718.493883,0.757725163,-0.0328821545,1.91899737,-0.769894616,-0.00809241285,-0.222475902
96718.503911,0.766541726,-0.154948418,1.93796862,-0.847107665,0.0173149434,-0.257178472
96718.513940,0.710045201,-0.176163686,1.83734902,-0.905495898,0.0182374631,-0.28397815
96718.523969,0.664792612,-0.0572080194,1.6810087,-0.906499878,0.0187581115,-0.309869633
96718.533997,0.648909764,0.097928401,1.46182468,-0.885450796,0.0255688791,-0.320830987
96718.544026,0.653679024,0.152155465,1.21064043,-0.877071933,0.0175168113,-0.306172119
96718.554055,0.7075764,0.113898872,0.860595405,-0.829990999,0.00901094067,-0.29124348
96718.564084,0.716113707,0.175077198,0.611773204,-0.74057217,0.011474098,-0.274272249
96718.574112,0.742956779,0.323537246,0.600752044,-0.638022617,0.0428288233,-0.245009692
96718.584141,0.876406049,0.412024435,0.705059975,-0.526769594,0.0876815159,-0.198228614
96718.594170,0.941181157,0.416868514,0.589243393,-0.403661833,0.096551976,-0.162067951
96718.604198,0.827162564,0.397611002,0.188142134,-0.255244122,0.0648678158,-0.169460611
96718.614227,0.617708059,0.332463261,-0.305343394,-0.131588758,-0.00140707929,-0.202284605
96718.624256,0.604338217,0.0836040893,-0.752039114,-0.0256095948,-0.0789617907,-0.244559885
96718.634284,0.762112584,-0.276884735,-0.993997274,0.107916503,-0.0959666084,-0.297547744
96718.644313,1.00066386,-0.524227583,-0.86098055,0.258054866,-0.062724502,-0.356488274
96718.654342,1.19024243,-0.675612396,-0.848793853,0.461188271,0.0280083351,-0.402004109
96718.664370,1.15215527,-0.708497159,-0.688849375,0.673560782,0.155613161,-0.424043642
96718.674399,0.911632699,-0.428834999,-0.27881253,0.847125872,0.242324895,-0.416465865
96718.684428,0.643343801,-0.102011969,-0.137577428,0.984722122,0.242082543,-0.360492871
96718.694457,0.301193766,0.15273805,-0.0766357607,1.05615602,0.17638076,-0.264760778
96718.704485,-0.0243288851,0.303031415,0.272873843,0.992641016,0.0689190169,-0.175878839
96718.714514,-0.284092605,0.501218603,0.815392574,0.813768192,-0.028981981,-0.125227899
96718.724543,-0.242268347,0.451408059,1.41724963,0.552292152,-0.0864996027,-0.0689321395
96718.734571,-0.0196395583,0.285001106,2.00842922,0.266451552,-0.092664824,-0.0367443796
96718.744600,0.0945275767,0.283296147,2.2035023,0.0251185624,-0.08335095,-0.0352016102
96718.754629,0.150169932,0.250186051,2.0643288,-0.165889473,-0.0512651849,-0.0564309966
96718.764657,0.286859244,0.266962816,1.89080471,-0.325379268,-0.0239379547,-0.0794702705
96718.774686,0.358131276,0.312956925,1.5669375,-0.463714377,-0.0221468966,-0.100094781
96718.784715,0.299231599,0.282136986,1.2406568,-0.529934422,-0.0352722864,-0.115381331
96718.794744,0.360131364,0.333191648,0.813896198,-0.529175178,-0.052607068,-0.106324718
96718.804772,0.549440761,0.436668974,0.595702944,-0.513369874,-0.0632559817,-0.076068015
96718.814801,0.650265344,0.713443157,0.449922016,-0.45106198,-0.0509226184,-0.0338854056
96718.824830,0.806616766,1.02502021,0.222866241,-0.367240832,-0.0218651324,0.0178651389
96718.834858,0.988758536,1.32713466,0.163613842,-0.304981724,-0.00456044556,0.0791724462
96718.844887,1.00427723,1.51253346,0.191821115,-0.187892945,-0.0176317721,0.117217823
96718.854916,0.884334796,1.57775558,0.182749919,-0.0218229992,-0.0345034312,0.120396047
96718.864945,0.773621017,1.52284267,0.423036347,0.164187341,-0.0300386391,0.0909934182
96718.874973,0.724989014,1.26272488,0.598363103,0.337460085,-0.00462036685,0.0354622442
96718.885002,0.659313742,0.963610489,0.720187402,0.501154943,0.0381601181,-0.029118349
96718.895031,0.695990445,0.638292274,0.892848154,0.608335479,0.0768803571,-0.0722445112
96718.905059,0.897269389,0.380226736,0.992423796,0.618709012,0.100472233,-0.0838071566
96718.915088,1.07768872,0.203204812,0.807983759,0.594315811,0.118406488,-0.0657983284
96718.925117,1.10251095,0.0758500685,0.487465272,0.524132176,0.129602141,-0.0109947372
96718.935146,1.08433904,-0.0471965248,0.215536921,0.386830284,0.126871071,0.0774730731
96718.945174,1.08639042,-0.172975868,-0.111456314,0.21615067,0.0988461067,0.179690256
96718.955203,0.832143567,-0.234095212,-0.365774774,0.085941813,0.0750797902,0.255293681
96718.965232,0.508639306,-0.0479671073,-0.391992919,-0.0103279985,0.0565425892,0.28517942
96718.975260,0.363344371,0.109249731,-0.472617777,-0.0956258485,0.0335192931,0.292782738
96718.985289,0.485585325,0.0696977016,-0.698792092,-0.193851487,0.0161240593,0.296852841
96718.995318,0.602496717,0.033850682,-0.948531408,-0.318126545,0.0315203246,0.322563811
96719.005348,0.728598145,0.0282468159,-1.09524757,-0.418382601,0.0523041662,0.38402076
96719.015376,0.909019448,0.0972985695,-1.31010379,-0.4603564,0.0475363088,0.44569452
96719.025405,0.915809619,0.265335233,-1.49261958,-0.43548514,0.0208692801,0.465820028
96719.035434,0.77841015,0.516212028,-1.55303635,-0.326488362,0.00640405423,0.428916885
96719.045462,0.767953273,0.660072583,-1.43820702,-0.200797812,0.032052691,0.371233596
96719.055491,1.08235094,0.541454606,-1.03104602,-0.11172972,0.101523912,0.3449703
96719.065520,1.48282603,0.29104035,-0.760197286,-0.0640823031,0.195863462,0.360820635
96719.075549,1.66666459,0.108978148,-0.666666185,-0.0612223381,0.263005501,0.383278801
96719.085577,1.49258068,0.134890771,-0.871596052,-0.0850059623,0.293757266,0.381744846
96719.095606,1.12209441,0.258306503,-1.05889265,-0.126411737,0.28316269,0.363710715
96719.105635,0.699511167,0.310773846,-1.2901447,-0.16692561,0.252110756,0.360104783
96719.115663,0.406635743,0.271979931,-1.43439302,-0.239931376,0.195473037,0.34679003
96719.125692,0.089506625,0.348707124,-1.61947369,-0.287559316,0.137663803,0.315674468
96719.135721,-0.101442593,0.330958154,-1.66268856,-0.29388328,0.108070499,0.284118666
96719.145750,-0.1093431,0.258727432,-1.49181236,-0.243962065,0.100897006,0.252957537
96719.155778,-0.123397327,0.272193355,-1.48221392,-0.175671951,0.108152791,0.223631873
96719.165807,-0.163322418,0.328375882,-1.36138916,-0.0759541476,0.124224431,0.199098839
96719.175836,-0.191591249,0.350247266,-1.19001552,0.0184463924,0.110899842,0.17801912
96719.185865,-0.197126342,0.36200339,-1.17584028,0.107212215,0.0598520999,0.152872219
96719.195893,-0.234785389,0.323233368,-1.34938717,0.161906078,-0.00268211857,0.113939999
96719.205922,-0.268503735,0.306953593,-1.19583151,0.217789321,-0.0434915993,0.0867675085
96719.215951,-0.0247509739,0.215837773,-1.01090515,0.237071662,-0.048482896,0.0795431573
96719.225979,0.253922422,0.121982372,-0.742846338,0.210768952,-0.0359343487,0.0781314064
96719.236008,0.328051049,0.0799653309,-0.614576516,0.155675872,-0.017193948,0.0794949521
96719.246037,0.343776405,0.0650376648,-0.533832416,0.07496187,-0.00858528179,0.0990838248
96719.256066,0.54844364,0.0387451761,-0.403121047,-0.0195422685,-0.018922872,0.117895602
96719.266094,0.678773791,0.0372410551,-0.393643024,-0.103952759,-0.0264913096,0.109680547
96719.276123,0.755054629,0.0638716167,-0.547980184,-0.163164155,-0.0217082735,0.0742272128
96719.286152,0.777963649,0.123368712,-0.710719261,-0.193275989,-0.012653526,0.0223949094
96719.296180,0.813602387,0.137469827,-0.819501123,-0.185978652,0.00606849591,-0.0247323897
96719.306209,0.865100227,0.0560019428,-0.7926213,-0.149416656,0.0295969926,-0.0709960174
96719.316238,0.934068403,0.0542539301,-0.743274793,-0.104465679,0.0473179322,-0.112948538
96719.326267,0.941812149,0.0631723093,-0.664230482,-0.0530160712,0.0578366172,-0.150553436
96719.336295,0.874670311,0.0540560329,-0.534554885,-0.0067702811,0.052308428,-0.164732904
96719.346324,0.845667723,-0.0642345753,-0.400949548,0.0325438371,0.0435160015,-0.149349154
96719.356353,0.844983906,-0.247051614,-0.294819662,0.0325118778,0.0219260239,-0.123515965
96719.366382,0.803997596,-0.401908524,-0.259450827,0.064997918,0.00407485372,-0.0908536177
96719.376410,0.8579071,-0.505226677,-0.281200302,0.122485443,-0.00256600453,-0.0588437516
96719.386439,0.88133598,-0.468936197,-0.285226489,0.181889637,-0.00174362062,-0.0239781823
96719.396468,0.90107733,-0.444223598,-0.296054757,0.251309737,0.00472280091,0.00898403006
96719.406497,0.890110311,-0.359838839,-0.37552986,0.307218268,-0.000508979087,0.0340885844
96719.416525,0.69019586,-0.221810352,-0.49564677,0.346365406,-0.00362274692,0.0377427068
96719.426554,0.558154338,-0.160413524,-0.449063883,0.381157233,0.000272925004,0.0181945738
96719.436583,0.669626535,-0.100521238,-0.38338525,0.397275998,0.00949278834,-0.0163178641
96719.446611,0.798290617,-0.0750176707,-0.223736539,0.373498513,0.0136774135,-0.0524942439
96719.456640,0.862155405,-0.194198615,-0.0734056928,0.343120351,0.0207478412,-0.0803152185
96719.466669,0.821061471,-0.297314871,0.0601505448,0.314672991,0.0180865441,-0.10340722
96719.476698,0.736812723,-0.340602699,0.0334548455,0.275279804,0.0257095758,-0.12103443
96719.486726,0.718553648,-0.43299738,0.0419526248,0.19827181,0.0382501323,-0.117918001
96719.496755,0.665159107,-0.580258829,0.0961220219,0.0981382942,0.0219092452,-0.103367538
96719.506784,0.474594742,-0.680686265,0.0810349274,-0.0261732722,-0.0219644691,-0.0831640076
96719.516813,0.331429696,-0.722034467,0.0985916268,-0.119832122,-0.0630913983,-0.0657203059
96719.526841,0.297997455,-0.699848135,0.209106011,-0.210309834,-0.081056283,-0.0488292027
96719.536870,0.328780423,-0.697552279,0.38516985,-0.283844755,-0.0867956589,-0.0372636255
96719.546899,0.3356601,-0.575975599,0.346087547,-0.300788567,-0.0569831739,-0.0204244584
96719.556928,0.455762397,-0.353195017,0.418001275,-0.27747579,-0.0211356926,0.0178558182
96719.566956,0.604984223,-0.17938009,0.401663889,-0.228919999,0.0137032465,0.0655391801
96719.576985,0.619245571,0.100050398,0.291466315,-0.152521358,0.0303304259,0.0924943675
96719.587014,0.419197776,0.545144802,0.0899518088,-0.106117376,0.011390291,0.0909686376
96719.597043,0.207391173,0.732594944,-0.175121854,-0.0751890177,-0.0196842711,0.0821061719
96719.607071,0.0761527932,0.684690745,-0.266279796,-0.0415314557,-0.0343012969,0.0557299655
96719.617100,0.0551758461,0.675834069,-0.144285402,-0.00722568201,-0.0329830322,0.00912517758
96719.627129,0.171540856,0.621116244,-0.116604198,0.0301078418,-0.0152634234,-0.041424283
96719.637157,0.166894145,0.567008551,-0.0901452306,0.0848597726,-0.00207358611,-0.0972814273
96719.647186,0.0893565673,0.542074199,-0.078633072,0.151508301,0.0179912028,-0.142818556
96719.657215,0.108171313,0.45463082,-0.0222372311,0.204754203,0.0394173962,-0.161854298
96719.667244,0.187396214,0.444032781,0.027780307,0.219218372,0.0395966273,-0.145847635
96719.677272,0.227333964,0.265257674,0.0320829727,0.203363507,0.0124462339,-0.109731437
96719.687301,0.154652704,0.122983256,0.0753364235,0.191633075,-0.0153459815,-0.0786568682
96719.697330,0.135292289,0.00308292934,0.151282184,0.171472414,-0.0162216286,-0.0641623448
96719.707359,0.195655234,-0.193706758,0.280436971,0.126103609,-0.00739325037,-0.0545925472
96719.717387,0.227043164,-0.374471504,0.233560654,0.0915669417,-0.00820018829,-0.0531448547
96719.727416,0.0674005552,-0.480608441,0.0975956015,0.0551412916,-0.0206206377,-0.0443087529
96719.737445,0.00399582181,-0.502259132,0.0461167587,0.0166327795,-0.0362997326,-0.0212745398
96719.747474,0.119522838,-0.486394843,-0.0199283696,-0.00933170969,-0.0422439101,0.0135683956
96719.757502,0.236743433,-0.403872444,-0.0713318091,-0.0369649352,-0.0349516432,0.0535352517
96719.767531,0.302658505,-0.247247228,-0.0587102279,-0.0527878376,-0.0346400525,0.0915984798
96719.777560,0.338166456,-0.136199897,-0.102349463,-0.0358834723,-0.0237711846,0.127072542
96719.787589,0.381986017,-0.0466102448,0.0195525769,-0.0165473269,-0.00853896899,0.159490405
96719.797617,0.428295238,-0.0178064582,0.142994248,-0.00971898342,0.0167530709,0.17989847
96719.807646,0.40682016,0.0449351716,0.161265817,-0.0174280358,0.0157975283,0.187209918
96719.817675,0.193477963,0.140621825,-0.020113663,-0.0215514069,-0.0130242651,0.1776212
96719.827704,-0.0267113233,0.124644129,-0.0779304767,-0.0188554888,-0.0299750205,0.154280721
96719.837732,-0.0767033616,0.131414829,-0.026522361,-0.0179026099,-0.0272806987,0.127577214
96719.847761,0.0406430062,0.127819079,0.00605772005,-0.00318731389,-0.00419162506,0.10540293
96719.857790,0.0881833405,0.175228991,-0.0347606125,0.0283964453,0.0264677507,0.0919566367
96719.867819,0.0174280618,0.124590216,0.00560062394,0.0591168096,0.0424368632,0.0835985679
96719.877847,0.0014356616,0.14453129,-0.00848986074,0.0518828621,0.033879063,0.0843173553
96719.887876,0.0364546146,0.121651286,-0.0278720221,0.023796632,0.00703120219,0.0927260209
96719.897905,-0.0217361926,0.142933609,-0.107926387,0.00132168412,-0.0191708404,0.0944887687
96719.907934,-0.104135357,0.193610579,-0.130708712,-0.0200379332,-0.0162946276,0.0861940894
96719.917962,-0.058168273,0.215543028,-0.052196316,-0.0354475127,-0.0046257201,0.0594940324
96719.927991,-0.0350513181,0.25683285,-0.0486441765,-0.0414854334,0.00703972379,0.0176547047
96719.938020,-0.0842108786,0.273916416,-0.0314580639,-0.0218944223,0.0146795342,-0.0312028482
96719.948049,-0.163438811,0.235779651,-0.0136336534,0.00692231117,0.02043143,-0.0735492419
96719.958077,-0.115052582,0.258612537,0.080543929,0.0371470628,0.0192425948,-0.108606295
96719.968106,-0.063975297,0.272194889,0.0897460571,0.0443096338,0.0174393681,-0.123697625
96719.978135,-0.0330419237,0.231399554,0.182141432,0.0337826898,0.0177520242,-0.119820059
96719.988164,0.0569242789,0.170015933,0.252362969,0.0001288542,0.0136640713,-0.105273345
96719.998192,0.0659965336,0.104236415,0.259846603,-0.0349937128,0.0173139338,-0.0857640963
96720.008221,0.0496104762,0.0604143615,0.251596661,-0.0498877065,0.021732916,-0.0770662065
96720.018250,0.0373327035,0.0669568694,0.203547208,-0.0448418157,0.0329466899,-0.0777775433
96720.028279,0.0217366,0.0996491878,0.123799133,-0.035997455,0.0480215129,-0.0804857101
96720.038307,-0.0027868058,0.110838307,0.0210267411,-0.0244515901,0.0482465502,-0.0899849396
96720.048336,-0.0233914216,0.108321547,-0.136064101,-0.015374206,0.03498667,-0.0935530375
96720.058365,-0.0631027245,0.0497383432,-0.2982397,0.00877187682,0.0219560888,-0.0925141435
96720.068394,-0.140553199,0.0543390237,-0.363882677,0.0350761851,0.011642998,-0.0970649507
96720.078422,-0.118447358,0.0677545225,-0.326116718,0.0432193345,0.00194163468,-0.0938502487
96720.088451,-0.0474171253,0.000467011217,-0.306618236,0.043036907,-0.00819861715,-0.085461558
96720.098480,-0.0166927734,-0.0607337093,-0.251518865,0.0429817802,-0.0152139153,-0.0700658273
96720.108509,0.0550488039,-0.0964623175,-0.172787273,0.0368996551,-0.0159886304,-0.0447266485
96720.118537,0.117426879,-0.101264457,-0.0882332595,0.0216250913,-0.0183607071,-0.0202071901
96720.128566,0.129536154,-0.102688088,-0.0535185045,0.0129274735,-0.0046331772,0.00195217395
96720.138595,0.169640028,-0.103952664,0.0650166895,0.0106909508,0.0180622813,0.0122373019
96720.148624,0.203858999,-0.081083437,0.0882455894,0.0132111004,0.0219012283,0.0101182245
96720.158653,0.119274078,-0.0409273403,-0.0456414875,0.0189438211,0.014218009,0.00155909157
96720.168681,-0.0404685391,-0.00760205774,-0.101586078,0.00103566052,0.000966385232,0.00154790638
96720.178710,-0.0225046562,-0.101511518,-0.0321741032,-0.0279347384,-0.0143435943,0.0104934646
96720.188739,0.0428433749,-0.202374816,0.000685963887,-0.0596585767,-0.013089779,0.0152682465
96720.198768,0.0573558479,-0.172681433,0.0511833945,-0.0742817307,-0.00631203422,0.00456526766
96720.208796,0.0797340127,-0.0919912639,0.0292509641,-0.0757525945,0.00286948017,-0.0174612041
96720.218825,0.0874538207,-0.029815981,0.0185471993,-0.076904417,0.0148190836,-0.0323967423
96720.228854,0.177727655,-0.0257388587,0.125016108,-0.0849990928,0.0308696896,-0.0409374993
96720.238883,0.235742001,0.0151165637,0.219222332,-0.0905717546,0.0471975309,-0.0521219831
96720.248911,0.222760939,0.0726832842,0.226327195,-0.0992280925,0.0519281019,-0.0648385744
96720.258940,0.237016734,0.102548499,0.194663645,-0.094039456,0.0525909652,-0.0810289915
96720.268969,0.168821624,0.136480597,0.0606415432,-0.0851953635,0.0379062955,-0.113428743
96720.278998,0.07393593,0.136406344,-0.0404678843,-0.0739222029,0.0270781469,-0.138558866
96720.289027,0.0879375126,0.0210311671,-0.0217082388,-0.0621148096,0.0195730933,-0.155909361
96720.299055,0.0901973564,0.019187439,0.0997226767,-0.0437043803,0.0220037595,-0.153613181
96720.309084,0.171276853,-0.0915623253,0.210106128,-0.0358720207,0.027893341,-0.131698297
96720.319113,0.229345359,-0.131175757,0.229677675,-0.0250888849,0.0327080701,-0.106216372
96720.329142,0.197802804,-0.110517694,0.172509096,-0.0165688982,0.0393057865,-0.0698817979
96720.339170,0.221068163,-0.152157792,0.14051003,0.00633641614,0.0493842502,-0.0395864781
96720.349199,0.221257201,-0.0779965221,0.0963131605,0.0490085138,0.0577223439,-0.0237353474
96720.359228,0.147087584,-0.0288419758,0.0200225325,0.0855598664,0.066137663,-0.0121580522
