t,ax,ay,az,gx,gy,gz
101793.553431,-0.377856577,1.24455919,-3.09394918,0.642297566,-2.20756507,-0.278804094
101793.563459,-0.0692629213,1.12804461,-2.94880597,0.750758827,-2.14012337,-0.435804635
101793.573487,0.346116454,0.888287248,-2.74150469,0.815217137,-2.08101797,-0.534509659
101793.583515,0.968959598,0.537368984,-2.46788181,0.831900775,-2.03349543,-0.560748458
101793.593543,1.68905959,0.186205275,-2.14076174,0.814510107,-1.99082243,-0.518580735
101793.603571,2.46884335,-0.077972882,-1.82577926,0.75793606,-1.96428084,-0.432720155
101793.613599,3.11388956,-0.308361966,-1.02544896,0.664426029,-1.94740629,-0.342198253
101793.623627,3.28360666,-0.242156203,-1.11026134,0.536812961,-1.91334867,-0.271675885
101793.633655,3.19271146,-0.21271442,-0.513592496,0.408756196,-1.8240484,-0.251539707
101793.643683,2.93341171,-0.120249122,0.149216163,0.286936283,-1.67742884,-0.279165477
101793.653711,2.61936212,-0.0375922102,0.775056737,0.193158418,-1.47732687,-0.343753546
101793.663739,2.29002379,-0.154248385,1.36819974,0.108322881,-1.2333467,-0.412585855
101793.673767,2.05968797,-0.420910779,1.84951143,-0.0140107544,-0.990755916,-0.480859727
101793.683795,1.97759654,-0.627404973,2.33444774,-0.171839267,-0.761719048,-0.53120786
101793.693823,2.19260123,-0.561979145,2.21752232,-0.295065612,-0.580875993,-0.551721632
101793.703851,2.49643746,-0.551744094,1.76962716,-0.296752185,-0.414198607,-0.528972387
101793.713879,3.99950101,-0.272815144,-1.88977271,-0.0507362783,-0.316704005,-0.418544948
101793.723907,4.02291404,-0.24383053,-1.90686647,0.313274145,-0.324151009,-0.272213042
101793.733935,4.6110851,-0.121249275,-3.66679408,0.590262055,-0.489774078,-0.127390876
101793.743963,4.64352022,-0.179250506,-4.67599158,0.679461181,-0.830528438,-0.0443535149
101793.753991,4.02747448,0.0980928561,-4.93390134,0.571948349,-1.21358657,-0.048929356
101793.764019,3.20893516,0.5157572,-4.30191627,0.457739204,-1.47425449,-0.079630807
101793.774047,2.32395382,0.442863156,-3.05264336,0.430973887,-1.47922766,-0.0770755038
101793.784075,1.50120594,0.0876449657,-1.42685476,0.506089926,-1.2821281,-0.0410626456
101793.794103,0.861439719,-0.213302413,-0.16330431,0.595814764,-0.988473058,-0.012532467
101793.804131,0.475623124,-0.427866443,0.597325842,0.649110496,-0.720573187,0.00724070426
101793.814158,0.369076473,-0.627459187,0.696449648,0.684788048,-0.539746702,0.0420112014
101793.824186,0.833315449,-0.879950286,0.240157833,0.759145617,-0.455436319,0.127975643
101793.834214,1.59817403,-1.23946405,-0.390779771,0.868277431,-0.44633472,0.305031121
101793.844242,2.48156722,-1.75020744,-0.649231385,0.902926803,-0.500656784,0.542139292
101793.854270,3.19841259,-2.17374645,-0.500520249,0.757665455,-0.622999489,0.866167426
101793.864298,3.77802392,-2.5697558,0.0840811357,0.413719267,-0.805011392,1.23548579
101793.874326,3.97219566,-2.63148774,0.69642276,-0.0398290344,-1.00539112,1.59047663
101793.884354,3.74861253,-2.36380345,1.24557932,-0.506056666,-1.16806304,1.88637888
101793.894382,3.2060862,-1.85715084,1.67426066,-0.878441393,-1.26664376,2.09663534
101793.904410,2.54944717,-1.11394916,1.87592305,-1.08714139,-1.2750684,2.20471716
101793.914438,1.84429925,-0.28071693,1.94375448,-1.13541031,-1.19653201,2.20397305
101793.924466,1.08336573,0.490723954,1.90290283,-1.04339767,-1.04752386,2.0897944
101793.934494,0.390618443,1.15520537,1.72657771,-0.839506567,-0.851420403,1.90300047
101793.944522,0.175903679,1.60574958,1.36631524,-0.534809232,-0.661101878,1.70048547
101793.954550,0.293326528,1.61779468,0.885545402,-0.219066963,-0.484070122,1.51424766
101793.964578,0.626526217,1.38382138,0.611295915,0.0226362068,-0.392913043,1.35510004
101793.974606,1.10289344,1.17221057,0.389096348,0.133771524,-0.398897409,1.21725881
101793.984634,1.58703831,0.889925663,0.450735351,0.11539863,-0.488538355,1.10310352
101793.994662,1.99672619,0.74491908,0.597588877,-0.00661435723,-0.600640416,0.999746263
101794.004690,2.12706814,0.730889605,0.975814871,-0.151788592,-0.678247571,0.923245609
101794.014718,2.19956931,0.663851009,1.47877959,-0.254902482,-0.682442605,0.873035967
101794.024746,2.37255506,0.773650158,1.95812495,-0.257920355,-0.617782652,0.84612608
101794.034774,2.48060861,1.02949985,2.08337045,-0.141815051,-0.48783049,0.845941246
101794.044802,2.62349849,1.08522919,2.01896549,0.0209672041,-0.324978471,0.855458319
101794.054830,2.65036078,1.0521801,1.91949448,0.161944032,-0.20422861,0.84697479
101794.064858,2.59669933,1.06422585,1.68162622,0.249595329,-0.158007309,0.798811555
101794.074886,2.40933552,1.10199232,1.42564187,0.268826514,-0.157159895,0.72332263
101794.084914,2.13285666,1.04674726,1.29487322,0.261891395,-0.211452961,0.635422885
101794.094942,1.8176129,0.989564872,1.17041741,0.23956719,-0.258502752,0.566695988
101794.104970,1.66145788,0.770416363,1.31925071,0.212814674,-0.295824558,0.524893165
101794.114998,1.47963708,0.56935172,1.44406133,0.202616632,-0.339123577,0.479245514
101794.125026,1.32572955,0.526336681,1.56631408,0.189572737,-0.381694198,0.429772794
101794.135053,1.26597329,0.551417054,1.73183256,0.174194843,-0.41838032,0.370201856
101794.145081,1.23789403,0.656324851,1.92580147,0.140909851,-0.43609938,0.297420055
101794.155109,1.15401864,0.790032187,2.28752525,0.0728232041,-0.408962846,0.20105119
101794.165137,0.953125485,1.01077483,2.82687061,-0.0052678627,-0.304972798,0.0786610916
101794.175165,0.523294391,1.20039227,3.41929173,-0.0439526737,-0.0977282599,-0.0519443229
101794.185193,-0.0654687897,1.20979255,3.92630484,-0.0534130186,0.212308168,-0.175793558
101794.195221,-0.80799513,1.17093982,4.12972197,-0.0616373941,0.522659123,-0.318209827
101794.205249,-1.61473588,1.1908216,3.70829338,-0.102842093,0.79291296,-0.458479583
101794.215277,-2.17167593,1.09191794,2.96359379,-0.145736992,0.97998482,-0.590677917
101794.225305,-2.47153683,0.877391468,1.82353002,-0.180975944,1.08101285,-0.708726227
101794.235333,-2.59902105,0.546854057,0.638399026,-0.178440347,1.12211454,-0.80093205
101794.245361,-2.53903157,0.23219796,-0.701816728,-0.121682256,1.08855367,-0.845257998
101794.255389,-2.07564775,-0.16060002,-2.14217336,-0.0697775185,0.947650313,-0.81817311
101794.265417,-1.24743226,-0.441538118,-3.38443961,-0.0644503981,0.696355999,-0.751850545
101794.275445,-0.612177958,-0.887144727,-4.23703434,-0.0349164717,0.384626657,-0.646702826
101794.285473,-0.0702700525,-1.40256524,-4.68539887,-0.0349984951,0.0861390084,-0.494082898
101794.295501,0.495785622,-1.65032975,-4.43712846,-0.0801015273,-0.143911764,-0.303545952
101794.305529,0.561364301,-2.04766435,-3.49064022,-0.169059888,-0.292051941,-0.112920091
101794.315557,0.260041514,-2.23340232,-2.45400526,-0.292963982,-0.355690062,0.0633638576
101794.325585,-0.154566877,-2.19486099,-1.40062434,-0.442935109,-0.350804478,0.190843254
101794.335613,-0.573425326,-1.94014228,-0.475856932,-0.597763062,-0.301479012,0.267271727
101794.345641,-0.908351108,-1.58622144,0.25820027,-0.736109495,-0.205945849,0.305709928
101794.355669,-1.14733931,-1.24036977,0.940726607,-0.864103377,-0.0703118518,0.305198342
101794.365697,-1.3230162,-1.04439273,1.57650171,-0.974080265,0.111698695,0.277474284
101794.375725,-1.38407652,-0.962656845,2.06899531,-1.01004803,0.345685124,0.255756468
101794.385753,-1.103703,-0.937538186,1.94985104,-0.892246366,0.566482425,0.243775964
101794.395781,-0.804198075,-1.02405415,1.06528062,-0.756033659,0.736353755,0.237797976
101794.405809,-0.520388148,-1.19068439,0.224720025,-0.631741285,0.793450892,0.235160917
101794.415837,-0.302926131,-1.4863493,-0.852304811,-0.596727908,0.732851148,0.240010798
101794.425865,-0.122419342,-1.67414873,-1.76948688,-0.621674001,0.558303356,0.257736266
101794.435893,0.202731481,-1.66391185,-2.53545722,-0.693326592,0.316973835,0.284347922
101794.445921,0.393576124,-1.48486622,-2.97724705,-0.75653249,0.0658028424,0.319459558
101794.455949,0.535593316,-1.43868022,-3.03210793,-0.79927063,-0.156177223,0.373752624
101794.465977,0.778111448,-1.35111986,-2.72529824,-0.830553412,-0.345786542,0.410142601
101794.476005,0.796005417,-1.16940677,-2.13904324,-0.842367232,-0.477135003,0.424449891
101794.486033,0.692337537,-1.01709746,-1.30313485,-0.865712225,-0.524907053,0.423736155
101794.496061,0.510569349,-1.00883291,-0.150026895,-0.907388031,-0.491344273,0.41402787
101794.506089,0.294057765,-1.06563367,0.955231517,-0.930847824,-0.367343515,0.412185222
101794.516117,0.128256378,-1.25133526,1.8012457,-0.905848205,-0.171513572,0.443648368
101794.526145,0.162542678,-1.39990508,2.21421802,-0.849720478,0.0421137623,0.48330602
101794.536173,0.227234054,-1.41251088,2.31531926,-0.773321033,0.242914513,0.527956784
101794.546201,0.376294734,-1.29615859,2.11202839,-0.672340333,0.40101254,0.567335367
101794.556229,0.676624419,-1.03888128,1.59605572,-0.535925269,0.51220721,0.587110162
101794.566257,0.921095439,-0.777875009,0.886405234,-0.416440904,0.553611398,0.580478609
101794.576284,0.976145711,-0.463015279,0.243186825,-0.33799085,0.520045161,0.552738309
101794.586312,1.06688806,-0.180283794,-0.379781407,-0.285011262,0.43409726,0.526448131
101794.596340,1.1822002,-0.0632856005,-0.753453392,-0.273011059,0.333076894,0.501638651
101794.606368,1.11908294,0.0169563955,-0.734018624,-0.293361068,0.244787782,0.48140052
101794.616396,0.903033128,-0.00177227037,-0.582343961,-0.320213437,0.20723933,0.469873577
101794.626424,0.675346654,-0.0769642895,-0.221471252,-0.358426869,0.221403897,0.459841698
101794.636452,0.412220034,0.0510720156,0.130554133,-0.342876136,0.287486523,0.459007591
101794.646480,0.325969153,0.0409340679,0.238225403,-0.27471441,0.381978393,0.479494512
101794.656508,0.398052393,-0.0662780603,0.209337162,-0.170994416,0.468615294,0.520678639
101794.666536,0.608075784,-0.082399174,-0.0347732072,-0.0609821603,0.501776397,0.550449848
101794.676564,0.660301061,-0.0664469871,-0.440523753,-0.00266612298,0.458183706,0.558510184
101794.686592,0.715475836,0.0217722713,-0.740580466,0.0268627405,0.333926201,0.571245193
101794.696620,0.843658564,0.160286424,-1.04629535,0.00818306301,0.185629115,0.575716317
101794.706648,0.8207342,0.272815655,-1.11767892,-0.0147438245,0.0320126601,0.58301419
101794.716676,0.702946025,0.408159945,-1.2541981,-0.0358994454,-0.113443077,0.596149981
101794.726704,0.620610271,0.629527737,-1.29572955,-0.234318525,-0.364286721,0.624703884
101794.736732,0.493341151,0.979072119,-0.790544228,-0.808807909,-0.737667263,0.605276644
101794.746760,0.134871412,2.23199011,0.926744259,-1.51605451,-1.02224731,0.542383969
101794.756788,-0.640038025,3.74853654,2.79670519,-2.07643104,-1.11382759,0.503468275
101794.766816,-0.997462639,5.03103134,3.99612832,-2.37645054,-1.0150094,0.553536713
101794.776844,-0.54291153,5.26404924,4.54965769,-2.37661958,-0.796642184,0.649324
101794.786872,-0.143293203,4.20390101,4.18752183,-2.06253529,-0.463886559,0.760212183
101794.796900,-0.0705827717,3.12080475,3.0951305,-1.38552928,-0.0147607066,0.825799942
101794.806928,-0.49993222,2.33923059,1.80088213,-0.612064481,0.479540646,0.832718313
101794.816956,-1.08521983,1.94251529,1.01510585,0.0368732959,0.883928597,0.764318466
101794.826984,-1.68108379,1.63021372,0.500351907,0.264964014,1.04341114,0.559438825
101794.837012,-2.07932206,1.75412009,0.105001759,0.0806535333,0.850726128,0.256912023
101794.847040,-1.90346572,1.8375337,-0.87525431,-0.353368461,0.412017256,-0.0366745889
101794.857068,-1.20897948,1.29847943,-1.51040222,-0.761597514,-0.0108983237,-0.211694598
101794.867096,-0.305428469,0.381641648,-1.73373226,-0.975331128,-0.295789957,-0.225337446
101794.877124,0.662997461,-0.413904042,-1.88496853,-0.959670663,-0.476809561,-0.10137023
101794.887152,1.53074476,-0.988544589,-2.27866448,-0.757522106,-0.595028102,0.100102164
101794.897180,2.10012811,-1.25294021,-2.68316298,-0.502733767,-0.706571937,0.277401596
101794.907208,1.96226804,-1.08823597,-2.75042216,-0.244815379,-0.777719617,0.370695591
101794.917236,1.35972885,-0.801176682,-2.46937585,-0.0320770107,-0.78555119,0.375138789
101794.927264,0.735001205,-0.543718755,-2.03699098,0.0975430384,-0.816837192,0.3004888
101794.937292,0.155676299,-0.405753469,-1.55574943,0.165827543,-0.78173697,0.206990808
101794.947320,0.0489542928,-0.583138326,-0.915664062,0.266577065,-0.713745713,0.128867775
101794.957348,0.0334247152,-0.956983329,-0.558151769,0.364529729,-0.604696155,0.0947691873
101794.967376,0.351859966,-1.29491472,-0.0635322687,0.449853688,-0.500698686,0.0964459106
101794.977403,0.830750567,-1.62011172,0.125662269,0.525470674,-0.460100085,0.143742323
101794.987431,1.49227152,-1.86039406,0.00559738162,0.569885015,-0.497290045,0.235589147
101794.997459,2.15665664,-1.98452079,-0.205184134,0.581457257,-0.61892277,0.35885039
101795.007487,2.58363351,-1.99124513,-0.463758498,0.538039744,-0.792215466,0.472626477
101795.017515,2.69177006,-1.75678931,-0.496291233,0.437657207,-0.989133298,0.533940375
101795.027543,2.43028244,-1.219519,-0.42825347,0.325227618,-1.14021981,0.545301199
101795.037571,2.04782568,-0.846065625,-0.197346865,0.255238414,-1.19512558,0.534417391
101795.047599,1.82189394,-0.627459699,-0.0480453612,0.283731043,-1.1749115,0.523569524
101795.057627,1.83625506,-0.467300701,-0.184230778,0.371826798,-1.12299919,0.518468261
101795.067655,2.08345463,-0.276798003,-0.352884633,0.465182573,-1.10774684,0.508662462
101795.077683,2.46146493,0.00379296254,-0.670442516,0.573849082,-1.15027726,0.497601599
101795.087711,2.97836875,0.205648829,-1.02863344,0.669896841,-1.2517277,0.480553627
101795.097739,3.40320568,0.430610846,-1.17662503,0.754415452,-1.39485443,0.470129758
101795.107767,3.65660703,0.568270428,-1.07208153,0.839441359,-1.54208338,0.481282026
101795.117795,3.64950626,0.700548316,-0.718381494,0.91060102,-1.6372596,0.495772272
101795.127823,3.2190433,0.826300017,-0.0822036514,0.955879807,-1.66964149,0.505243242
101795.137851,2.4987206,0.869572757,0.696802115,0.922751188,-1.64472985,0.494330972
101795.147879,1.60962248,0.822104319,1.64344642,0.790831506,-1.56220376,0.466504931
101795.157907,0.663352265,0.782442755,2.51492501,0.62471813,-1.43181193,0.425186247
101795.167935,-0.0782838476,0.722528677,2.99447145,0.477325261,-1.27048242,0.386735529
101795.177963,-0.631440293,0.66658584,3.26449864,0.336831003,-1.05914974,0.349727452
101795.187991,-1.0781892,0.686895053,3.59617623,0.225654125,-0.800336778,0.312573701
101795.198019,-1.47078041,0.781089587,3.652639,0.189055368,-0.519225717,0.266778231
101795.208047,-1.63847623,1.06387017,3.40005219,0.2346178,-0.224936306,0.232859671
101795.218075,-1.46449621,1.26763626,2.9469279,0.317984581,0.0264371783,0.197373897
101795.228103,-1.17437111,1.41051269,2.2612618,0.395593345,0.185661972,0.158202261
101795.238131,-0.784021549,1.51043379,1.40827719,0.432510883,0.214120522,0.113504022
101795.248159,-0.338283276,1.38652918,0.476433855,0.437749326,0.108632714,0.0634808093
101795.258187,-0.00267944834,1.17028063,-0.481292694,0.408319801,-0.122905701,0.0214835554
101795.268215,0.14582126,0.943556277,-1.47715754,0.400057346,-0.441518843,-0.00489585474
101795.278243,0.205515558,0.703847357,-2.24116857,0.415465325,-0.777282238,-0.00814890675
101795.288271,0.184219088,0.650370034,-2.23562233,0.447630465,-1.05171347,-0.00515737757
101795.298299,-0.22582594,0.700948713,-1.80789639,0.473961115,-1.19380748,0.00477994187
101795.308327,-0.873531724,0.608056495,-1.1532085,0.470704615,-1.19350517,0.0345354378
101795.318355,-1.35133687,0.701538496,-0.0637082098,0.415352941,-1.10133803,0.0648848265
101795.328383,-1.83192901,0.8335703,0.757757811,0.360478252,-0.953301966,0.078019008
101795.338411,-2.11688285,0.911063874,1.30544196,0.313174903,-0.79305774,0.0807434171
101795.348439,-2.11329505,0.938566214,1.40257576,0.320496738,-0.670622885,0.0279134903
101795.358466,-2.05658649,1.31204209,1.31079852,0.300276965,-0.55294019,-0.0202202164
101795.368494,-1.50492292,1.30703712,1.48590287,0.328085691,-0.479626268,-0.0546096154
101795.378522,-0.697250443,1.1694471,1.25179308,0.357834518,-0.447602808,-0.0929615349
101795.388550,-0.0415238505,1.18689537,1.19040104,0.381930262,-0.436065733,-0.137182519
101795.398578,0.543636922,1.09053168,1.16991998,0.408556551,-0.433701396,-0.168229386
101795.408606,0.957977601,0.942244318,1.20685679,0.470976263,-0.410895675,-0.163131028
101795.418634,1.37279467,0.728148855,1.2953724,0.546247602,-0.367450982,-0.129770145
101795.428662,1.57891053,0.575763706,1.5379826,0.581461728,-0.318248034,-0.0865499675
101795.438690,1.48187522,0.425105819,1.95104756,0.559076846,-0.264784545,-0.0489005968
101795.448718,1.2905273,0.268074598,2.32743757,0.514776468,-0.221047193,-0.003251886
101795.458746,1.13567752,0.0736643711,2.5391134,0.43969956,-0.178795874,0.0600879379
101795.468774,1.09731125,-0.160526954,2.75836172,0.346479595,-0.15205054,0.163120851
101795.478802,1.21594348,-0.371490549,2.80223067,0.240032807,-0.162338331,0.296865851
101795.488830,1.46952661,-0.5298764,2.69260125,0.113391496,-0.224106625,0.440750867
101795.498858,1.68664668,-0.451559526,2.47287568,-0.0410667881,-0.33469066,0.56851548
101795.508886,1.79535723,-0.269238381,2.30732008,-0.221309528,-0.488226414,0.670554519
101795.518914,1.80345461,-0.0128325936,2.18877261,-0.421352088,-0.651803374,0.733963013
101795.528942,1.69690738,0.235661398,2.18363642,-0.590006351,-0.791363418,0.755885124
101795.538970,1.54174487,0.548856702,2.17511789,-0.710309565,-0.895777166,0.728708863
101795.548998,1.39792677,0.838170488,2.10754044,-0.758779943,-0.954888701,0.65105325
101795.559026,1.30611942,1.1131214,1.92081609,-0.717875898,-0.964090466,0.519448876
101795.569054,1.21915075,1.27358786,1.72826026,-0.602822542,-0.912674129,0.364709079
101795.579082,1.21549983,1.23287532,1.53180245,-0.409722596,-0.817651987,0.213998675
101795.589110,1.24306471,1.12314887,1.14574591,-0.181251854,-0.700149894,0.0642477944
101795.599138,1.1053987,1.02652215,0.895770736,0.000609286013,-0.58269918,-0.092706129
101795.609166,0.962995722,0.816886292,0.907482801,0.0899514183,-0.515782714,-0.232353777
101795.619194,0.963889456,0.60295128,0.928195042,0.076749064,-0.498930186,-0.346142918
101795.629222,0.829563403,0.436859385,1.09964817,-0.0350949168,-0.498461217,-0.44036451
101795.639250,0.492136451,0.367911521,1.31401105,-0.177016094,-0.488090336,-0.511441052
101795.649278,0.15399463,0.326606867,1.33612469,-0.300639778,-0.45461598,-0.556014121
101795.659306,-0.169913499,0.322396555,1.31058517,-0.386865467,-0.391680688,-0.605149209
101795.669334,-0.484209166,0.461129319,1.26843033,-0.41527316,-0.301832825,-0.666361392
101795.679362,-0.728951403,0.565088875,1.05095984,-0.34831357,-0.200539514,-0.72813797
101795.689390,-0.809792534,0.667723905,0.728674048,-0.232509181,-0.0809276253,-0.805004239
101795.699418,-0.935686859,0.826402601,0.545546847,-0.091859661,0.047497455,-0.911099494
101795.709445,-1.03882282,0.946528863,0.411855,0.0521473102,0.180039778,-1.02932203
101795.719473,-1.02125268,0.95242815,0.331584655,0.217953861,0.299606949,-1.147192
101795.729501,-0.851134599,0.742697312,0.0828422416,0.38935703,0.389430821,-1.23783422
101795.739529,-0.56135378,0.458138905,-0.0697533352,0.550285697,0.474358499,-1.29692924
101795.749557,-0.225815419,0.119987146,-0.0841711521,0.706413567,0.554188848,-1.30280626
101795.759585,0.219817055,-0.280781227,-0.140196698,0.866463125,0.599238634,-1.25469577
101795.769613,0.667251026,-0.578873655,-0.226299695,0.93748486,0.626245737,-1.15811408
101795.779641,0.958852046,-0.921609818,0.00128390233,0.923702478,0.621099472,-1.02347696
101795.789669,1.14754857,-1.20095283,0.0410942269,0.838369191,0.560395598,-0.867857754
101795.799697,1.27715344,-1.30924895,-0.173737441,0.721172512,0.460796624,-0.699218452
101795.809725,1.31556471,-1.35725252,-0.494172926,0.606227815,0.333091915,-0.535948277
101795.819753,1.33010119,-1.32170219,-0.818610047,0.505171537,0.182416111,-0.388573468
101795.829781,1.17254214,-1.17358493,-1.04889063,0.430372357,0.0423442386,-0.265676588
101795.839809,1.03197866,-1.07075496,-1.11474228,0.398629606,-0.0641180202,-0.160303816
101795.849837,0.896399389,-1.00514209,-1.08992699,0.407409519,-0.147811592,-0.0617578067
101795.859865,0.664722969,-0.968138345,-0.978581998,0.418143123,-0.195963144,0.0220390894
101795.869893,0.31785482,-0.915966552,-0.648664692,0.413028806,-0.189269289,0.0775087327
101795.879921,-0.0811965202,-0.82190412,-0.338088046,0.416766286,-0.128882378,0.120025843
101795.889949,-0.470680406,-0.696526805,-0.185414435,0.47767809,-0.0439198092,0.142841682
101795.899977,-0.722472563,-0.576591389,-0.391944431,0.584761381,0.0276427921,0.152125195
101795.910005,-0.813375654,-0.411777259,-0.661204732,0.697213113,0.0598787591,0.131103531
101795.920033,-0.865251387,-0.217321439,-0.805462981,0.7555089,0.0562576577,0.0934038162
101795.930061,-0.922521088,-0.0767383718,-0.774241913,0.761408091,0.0190823264,0.0432346575
101795.940089,-0.970480524,0.00228197346,-0.785258397,0.722747743,-0.0327630267,-0.00149047095
101795.950117,-0.992000282,0.0413660296,-0.720752315,0.648973405,-0.0640349314,-0.0261841007
101795.960145,-1.0551076,0.0038239422,-0.633754415,0.55890131,-0.0876616985,-0.0217866879
101795.970173,-1.06568336,0.00810176565,-0.54215399,0.447424591,-0.078351818,-0.011764681
101795.980201,-0.971515128,0.0643523529,-0.441079341,0.364895105,-0.0653148443,0.00386195024
101795.990229,-0.713933867,0.175759595,-0.651390902,0.33743152,-0.071643047,0.0272791255
101796.000257,-0.40246904,0.273740661,-0.94604634,0.329254538,-0.0907525644,0.0509636812
101796.010285,-0.139325469,0.314305311,-1.00785602,0.313381821,-0.122016206,0.074578464
101796.020312,0.06994915,0.390940807,-1.00205026,0.268749923,-0.168276921,0.0945851952
101796.030340,0.0798620567,0.430530767,-0.887407981,0.182237148,-0.203306809,0.109688252
101796.040368,0.0105681558,0.421356696,-0.655983198,0.0435679369,-0.220140919,0.123995274
101796.050396,-0.124747493,0.472462029,-0.496217583,-0.0963995531,-0.232924625,0.126559377
101796.060424,-0.229391524,0.513131309,-0.60717562,-0.203162476,-0.253311098,0.151166186
101796.070452,-0.384168244,0.413059992,-0.804263834,-0.28033796,-0.286834449,0.17366004
101796.080480,-0.609630612,0.321407837,-0.9082608,-0.314275682,-0.340990901,0.194367185
101796.090508,-0.697289022,0.205741476,-1.02528647,-0.312255681,-0.415973246,0.218826458
101796.100536,-0.683281539,0.125237907,-1.08224228,-0.310498536,-0.508189261,0.24038288
101796.110564,-0.741587598,0.10543372,-1.02494627,-0.326907337,-0.608934999,0.252990007
101796.120592,-0.75035718,0.163130123,-0.905440189,-0.353676617,-0.702890038,0.259365618
101796.130620,-0.536536734,0.198883573,-0.727610218,-0.402160823,-0.777713358,0.268044323
101796.140648,-0.385540117,0.26146687,-0.415840563,-0.445251822,-0.80987823,0.271190315
101796.150676,-0.328945539,0.295802271,-0.0911395298,-0.493971437,-0.778942943,0.269192964
101796.160704,-0.109050742,0.409297717,0.292030059,-0.514610648,-0.7125144,0.249436557
101796.170732,-0.000758709413,0.594102203,0.433480264,-0.516110003,-0.627380311,0.216093257
101796.180760,-0.0083206691,0.759802176,0.528803217,-0.509856105,-0.510879278,0.169235736
101796.190788,0.0155593882,0.786760618,0.60365446,-0.449745387,-0.394949198,0.132668138
101796.200816,0.116748895,0.767560828,0.273046249,-0.343780577,-0.310728073,0.108417392
101796.210844,0.234785492,0.769521606,-0.185930276,-0.216903582,-0.279589593,0.0829722136
101796.220872,0.294079392,0.79808573,-0.646035512,-0.116486758,-0.314027727,0.0515024625
101796.230900,0.272629193,0.835962456,-0.963768752,-0.0558583029,-0.398133278,0.0117127048
101796.240928,0.232194306,0.771893012,-1.02782241,-0.0649969354,-0.490030974,-0.0294792056
101796.250956,0.261808523,0.643750324,-0.780334969,-0.117047615,-0.555157244,-0.0605897196
101796.260984,0.336937122,0.452693499,-0.454981902,-0.166882023,-0.578152835,-0.064399913
101796.271012,0.392988095,0.205585409,-0.194737851,-0.195860147,-0.555224657,-0.0281673335
101796.281040,0.425056719,-0.0264966695,0.055220952,-0.222960204,-0.506567359,0.0266549028
101796.291067,0.308133052,-0.17180472,0.265032162,-0.253104001,-0.453203708,0.0795998722
101796.301095,0.128972417,-0.201754744,0.343658247,-0.280395001,-0.404769599,0.1142492
101796.311123,-0.0674608403,-0.201353178,0.397042631,-0.299820364,-0.371125102,0.131452695
101796.321151,-0.254753929,-0.164065942,0.335281756,-0.283988684,-0.333107948,0.145170093
101796.331179,-0.219037303,-0.284978679,0.315453312,-0.266211003,-0.307510704,0.152224809
101796.341207,-0.243146493,-0.347635626,0.319844533,-0.260315835,-0.288147926,0.147136033
101796.351235,-0.164177001,-0.438375635,0.362149889,-0.257710189,-0.268095374,0.145969048
101796.361263,0.0394295086,-0.549223197,0.306883929,-0.246561408,-0.256054968,0.149924368
101796.371291,0.27164252,-0.586041354,0.141389123,-0.24594675,-0.234769106,0.141516507
101796.381319,0.419660998,-0.524268204,0.153717713,-0.238259807,-0.202537924,0.135310277
101796.391347,0.655028089,-0.523197652,0.0667490388,-0.203596637,-0.171970695,0.136283919
101796.401375,0.788204387,-0.514381893,-0.103103085,-0.153541461,-0.144250661,0.131022319
101796.411403,0.677238167,-0.485724831,-0.258304022,-0.0970451459,-0.131095707,0.12844944
101796.421431,0.495641829,-0.47132718,-0.363741834,-0.0510057546,-0.126976863,0.118961126
101796.431459,0.226031692,-0.475742658,-0.391103596,-0.0158283245,-0.134526387,0.108878136
101796.441487,-0.0445469977,-0.515793806,-0.42541547,-0.00202196604,-0.143941998,0.0996281803
101796.451515,-0.28145898,-0.481070868,-0.393142847,-0.00344489305,-0.146230713,0.0869890898
101796.461543,-0.36984512,-0.464173509,-0.413666726,0.0108088776,-0.156277224,0.0805756599
101796.471571,-0.227701671,-0.425875342,-0.580901799,0.0376271755,-0.172940359,0.0794685781
101796.481599,-0.000519055438,-0.345926484,-0.735012165,0.07213296,-0.205823734,0.0821895301
101796.491627,0.200150816,-0.205604698,-0.914329452,0.090645656,-0.260210842,0.077115953
101796.501655,0.310168357,-0.0429763874,-1.09589671,0.120127112,-0.32673499,0.0656571612
101796.511683,0.336335064,0.0995639516,-1.24213225,0.155130625,-0.387221247,0.0448381677
101796.521711,0.212599379,0.236537596,-1.1501684,0.176057756,-0.410193413,0.012763055
101796.531738,0.0483434674,0.301191563,-0.938402401,0.210311055,-0.407827199,-0.0174624901
101796.541766,-0.0984416695,0.324740196,-0.804957808,0.251219332,-0.382074952,-0.0409366563
101796.551794,-0.227367325,0.296397314,-0.690645346,0.282780468,-0.348965734,-0.0575318821
101796.561822,-0.299131415,0.210256615,-0.552089985,0.301659077,-0.318757504,-0.0613777526
101796.571850,-0.231323369,0.173689218,-0.503433944,0.318482012,-0.305237949,-0.0624246411
101796.581878,-0.138018478,0.167951259,-0.5514191,0.311168432,-0.311577886,-0.0644326657
101796.591906,-0.0644675037,0.162714527,-0.478572475,0.280116498,-0.333735913,-0.0548351593
101796.601934,0.0470820692,0.12445114,-0.398252299,0.236759707,-0.36865741,-0.0372548364
101796.611962,0.171011816,0.160879129,-0.336732539,0.191314206,-0.406421036,-0.0144888051
101796.621990,0.265860429,0.167975224,-0.242047592,0.143558934,-0.428228855,0.00691022631
101796.632018,0.324789588,0.200989605,-0.0606444383,0.112094492,-0.434984505,0.0195703618
101796.642046,0.337113063,0.265878257,0.00256400527,0.107314646,-0.434003919,0.0305729453
101796.652074,0.391687534,0.308162571,0.0121466571,0.110859849,-0.427118331,0.0285654552
101796.662102,0.387702848,0.367653455,0.0779630913,0.130355507,-0.404761612,0.0162962712
101796.672130,0.400198172,0.394261768,0.115963882,0.163431168,-0.393118799,-0.00799282268
101796.682158,0.383953725,0.465469394,0.0701965489,0.188563958,-0.390664428,-0.0397022814
101796.692187,0.447230557,0.504022996,0.0957756652,0.20661433,-0.386294454,-0.0697342157
101796.702215,0.508577299,0.517157203,0.139422499,0.237161055,-0.38357538,-0.0866048038
101796.712243,0.545558245,0.558088349,0.0989597021,0.26812616,-0.379572898,-0.101000533
101796.722271,0.564050764,0.555166908,0.0591198591,0.286083043,-0.379829645,-0.110416934
101796.732299,0.563606527,0.48907005,0.0905664061,0.280937016,-0.381621689,-0.116237015
101796.742326,0.573154108,0.402526908,0.106350835,0.259800315,-0.379062384,-0.114073187
101796.752354,0.620033933,0.320806948,0.0532511132,0.233376428,-0.38850382,-0.101344079
101796.762382,0.622821517,0.242127671,-0.0964974036,0.20600979,-0.41172713,-0.0923359394
101796.772410,0.598481441,0.234589385,-0.186621911,0.171725854,-0.451053739,-0.0895113796
101796.782438,0.49426528,0.255334067,-0.223565448,0.141347438,-0.487273008,-0.0832441598
101796.792466,0.38956455,0.20298341,-0.158899061,0.117957436,-0.493814528,-0.0736850202
101796.802493,0.257335177,0.13246815,0.0389770886,0.114304915,-0.472540677,-0.0514750518
101796.812522,0.115806646,0.0612786446,0.131112936,0.118403785,-0.435393035,-0.0194484107
101796.822550,-0.0114928694,0.00846475375,0.225603238,0.104030967,-0.391485751,0.0160062537
101796.832578,-0.162442725,-0.00425561162,0.290572261,0.0700972378,-0.361182451,0.0378092863
101796.842606,-0.254224936,0.0662637395,0.238939251,0.0326667689,-0.349966019,0.0491130725
101796.852634,-0.250687994,0.187768597,0.102975221,0.0141386278,-0.343556583,0.0495916419
101796.862662,-0.217364986,0.291214358,-0.0267420226,0.0274853259,-0.334972948,0.0467476547
101796.872689,-0.0903553937,0.395245811,-0.190164991,0.061072845,-0.33379662,0.0406719185
101796.882718,-0.0125812492,0.459722082,-0.272236832,0.0956215039,-0.340053469,0.0172116011
101796.892746,0.0119704238,0.549326365,-0.30189445,0.113634862,-0.352260321,-0.0202367064
101796.902774,0.0263134219,0.593330927,-0.186264914,0.114479348,-0.354412705,-0.0646052361
101796.912802,0.0647749622,0.604528905,-0.0286216258,0.11955294,-0.331859976,-0.108927161
101796.922830,0.170279994,0.589254179,0.159053667,0.134976625,-0.280508369,-0.146104619
101796.932858,0.22199323,0.521676726,0.339028541,0.161828741,-0.202138722,-0.178064421
101796.942886,0.285043269,0.410285559,0.495484154,0.179848492,-0.10852249,-0.198559046
101796.952913,0.379623586,0.255484873,0.613718612,0.195390701,-0.0307986643,-0.210917711
101796.962941,0.421862307,0.138432027,0.55397894,0.227700442,0.0222951788,-0.213728681
101796.972969,0.523390837,0.0308010887,0.411670584,0.255910248,0.0446897037,-0.225739002
101796.982997,0.50152095,-0.0123389648,0.299481544,0.295111179,0.0444992855,-0.236836657
101796.993024,0.605845248,-0.0853203221,0.189234432,0.341619551,0.039489083,-0.235643297
101797.003053,0.726493489,-0.144102766,0.13596571,0.376312822,0.0344439894,-0.220157817
101797.013081,0.802176214,-0.261774329,0.192159672,0.388338864,0.0404560752,-0.187479228
101797.023109,0.866040491,-0.390754637,0.323262452,0.366597325,0.0629469976,-0.141416132
101797.033137,0.840475257,-0.463080745,0.490220535,0.321040779,0.0961691365,-0.0920504481
101797.043165,0.793900553,-0.500811341,0.59126508,0.274488181,0.123622864,-0.0426607877
101797.053193,0.707056967,-0.469093137,0.543816224,0.229419768,0.14980787,0.00658372324
101797.063221,0.635835313,-0.437192563,0.48869464,0.197624296,0.167635605,0.058364097
101797.073249,0.56485039,-0.410840855,0.398987774,0.159718722,0.186706498,0.103556871
101797.083277,0.518550411,-0.353091846,0.367048767,0.120591305,0.203098789,0.151703626
101797.093305,0.50253568,-0.279400586,0.22066885,0.0851134732,0.210756168,0.193045467
101797.103333,0.457082674,-0.160779468,0.0744020378,0.0492912866,0.206160083,0.226168007
101797.113361,0.364523632,-0.0498255227,-0.0593983838,0.0194945112,0.1912653,0.243818909
101797.123389,0.20138182,0.114469552,-0.198410549,-0.0104412828,0.178135112,0.243529961
101797.133417,0.0178033677,0.284148073,-0.304767521,-0.011492433,0.164199054,0.230201364
101797.143444,-0.0789624776,0.407893695,-0.504900071,0.0096024666,0.149214774,0.202873603
101797.153472,-0.0941886883,0.548524986,-0.692311672,0.0311367866,0.120015882,0.16467908
101797.163500,-0.0975754081,0.677403879,-0.8043822,0.0408802256,0.084951371,0.114614323
101797.173528,-0.108542792,0.739000211,-0.841302794,0.0475274771,0.0604295172,0.0652236044
101797.183555,-0.068238839,0.759414638,-0.804928728,0.076557003,0.0287504159,0.0280605182
101797.193584,-0.123342887,0.751597827,-0.844746359,0.0834857449,0.0211044792,-0.00777071528
101797.203612,-0.164635266,0.642666036,-0.57357321,0.0685592592,0.0331662036,-0.0389384888
101797.213640,-0.293998728,0.558709403,-0.404573903,0.0392772704,0.0490391776,-0.0630369037
101797.223668,-0.365212784,0.486732254,-0.291187178,0.00589614036,0.071344465,-0.0862928182
101797.233696,-0.415957467,0.456528255,-0.254384365,-0.00885138009,0.0962167904,-0.101881631
101797.243724,-0.40073944,0.376761767,-0.30179099,-0.015630722,0.11810185,-0.111665815
101797.253752,-0.330700858,0.335944604,-0.34292964,-0.0104684513,0.13328667,-0.114763603
101797.263780,-0.231219908,0.298605345,-0.39691126,-0.0101552643,0.144886598,-0.114436567
101797.273808,-0.11905308,0.248418881,-0.404825686,-0.0186611339,0.149218768,-0.112152644
101797.283836,0.0376478859,0.211186005,-0.43692909,-0.0272194687,0.14079386,-0.105595939
101797.293864,0.22767303,0.225956873,-0.544350769,-0.0168509837,0.1237102,-0.0988530815
101797.303892,0.442672456,0.246110604,-0.76497841,0.0140581969,0.0878291652,-0.0930519179
101797.313920,0.569662174,0.270358617,-1.04827045,0.0698839128,0.0308116898,-0.0902247056
101797.323947,0.684488577,0.265988732,-1.3113392,0.117042631,-0.031775523,-0.0862608552
101797.333975,0.852826205,0.287865048,-1.37876307,0.15592505,-0.101053402,-0.0790255815
101797.344003,0.921110637,0.211497263,-1.37668013,0.14997156,-0.170562968,-0.0712608695
101797.354031,0.840047387,0.0986225791,-1.13625678,0.100383759,-0.220871404,-0.0550765768
101797.364059,0.763631672,-0.00832037684,-0.810682177,0.0446294211,-0.247713149,-0.0236611255
101797.374086,0.652100219,-0.0987555578,-0.622006694,0.000887799892,-0.254351079,0.0193712953
101797.384115,0.524385109,-0.131230425,-0.471707996,-0.0293404106,-0.251807213,0.0559005439
101797.394143,0.366420991,-0.0787310069,-0.336414852,-0.057259392,-0.236752898,0.0835721195
101797.404171,0.204684953,-0.024972821,-0.229605459,-0.0677676946,-0.231043354,0.101184666
101797.414199,0.0646188949,0.0193748548,-0.244718126,-0.0735592693,-0.217148304,0.109454319
101797.424227,-0.0433674326,0.0537710454,-0.185043118,-0.0748519748,-0.18856594,0.112437055
101797.434255,-0.119295657,0.0610077187,-0.133013801,-0.0675525069,-0.156675652,0.111911349
101797.444283,-0.156472418,0.0990846436,-0.180368111,-0.0538433567,-0.12162286,0.10738264
101797.454311,-0.138925071,0.15183073,-0.21494375,-0.0381416231,-0.0852379575,0.0958972275
101797.464339,-0.15595044,0.223070797,-0.279401902,-0.0263539404,-0.060425546,0.0807145461
101797.474367,-0.166400523,0.269634979,-0.386550755,-0.020169815,-0.0512996912,0.0528006256
101797.484395,-0.150714878,0.300151406,-0.435475384,-0.024130201,-0.0469901636,0.0215031542
101797.494421,-0.103709381,0.307549699,-0.453988799,-0.0180185139,-0.0422492027,-0.0074081216
101797.504450,-0.0190092364,0.247641759,-0.457255692,-0.00805456284,-0.0310404934,-0.0325052179
101797.514478,0.0471697475,0.221399941,-0.474711416,-0.00137135969,-0.0134694884,-0.0491537042
101797.524506,0.144349434,0.185180626,-0.485263205,0.0148875052,-0.00335054146,-0.0555231869
101797.534534,0.291827814,0.145900463,-0.657866966,0.0535725839,-0.0150327636,-0.042181015
101797.544562,0.313389073,-0.000831190127,-0.913306685,0.0544916391,-0.0510594733,-0.028872665
101797.554590,0.41840486,0.0573825139,-0.827132961,0.0134448707,-0.0845535249,-0.0296630934
101797.564618,0.494155975,0.0725455963,-0.750858699,-0.00373811089,-0.117240891,-0.0218581669
101797.574646,0.456755341,0.0668938541,-0.794155843,-0.00615519611,-0.130018204,-0.0125067439
101797.584674,0.381610961,0.0818345259,-0.648542819,0.000878745108,-0.122606628,-0.00109589659
101797.594702,0.222850724,0.0723421826,-0.504065813,0.00391288428,-0.101931445,0.00577852083
101797.604730,0.0695557668,0.110571083,-0.374153631,-0.0043692803,-0.0714979097,0.00590076018
101797.614758,-0.00267477217,0.173563838,-0.259690216,-0.0109592723,-0.0388771109,0.00481312489
101797.624786,0.0615168372,0.187660753,-0.264824072,-0.0015292851,-0.0129206115,0.0115437321
101797.634814,0.200555306,0.206058579,-0.397094361,0.0250964668,0.00355689926,0.0269525163
101797.644842,0.3320739,0.194647251,-0.56368836,0.0400551744,-0.0059710918,0.0354123116
101797.654869,0.38864159,0.192311209,-0.707000999,0.0418331027,-0.0374113061,0.0385761485
101797.664897,0.359230202,0.237052268,-0.757941351,0.0213179737,-0.0754021034,0.034984611
101797.674925,0.273203778,0.234535024,-0.656553691,-0.000253630977,-0.10068056,0.0336322561
101797.684952,0.176289464,0.18450112,-0.504149399,-0.0281523746,-0.0939986855,0.0453496315
101797.694980,0.120322077,0.147672733,-0.262852918,-0.0540103354,-0.069730632,0.06611377
101797.705008,0.013165771,0.134146897,-0.101207481,-0.0850968808,-0.0339808874,0.078859657
101797.715036,-0.0837748463,0.146801211,0.033393151,-0.118416488,-0.00607202575,0.0806338564
101797.725064,-0.159673845,0.22539281,0.020337124,-0.141536459,0.0184112135,0.0720036104
101797.735092,-0.178903446,0.317449162,-0.0263761119,-0.149589598,0.0473773517,0.0498831309
101797.745120,-0.125514385,0.39107817,-0.120720283,-0.121671945,0.0806410313,0.0336841866
101797.755148,0.0292336933,0.460722784,-0.328953868,-0.0774219185,0.100365467,0.012283558
101797.765176,0.178149997,0.490731261,-0.531034045,-0.0380446874,0.106716037,-0.00977194309
101797.775204,0.298965411,0.526245642,-0.745455963,-0.0176523291,0.0853857175,-0.0310167782
101797.785232,0.313294965,0.490284978,-0.875782133,-0.0223621298,0.0570155978,-0.0569024384
101797.795260,0.293726341,0.446952617,-0.905892025,-0.0261661876,0.0262526255,-0.0768878609
101797.805288,0.261120541,0.366792454,-0.940988619,-0.0268420987,-0.00294653978,-0.083292231
101797.815315,0.177030638,0.191872233,-0.952670289,-0.0227205902,-0.0358690694,-0.0750675946
101797.825343,0.126983873,0.0919493849,-0.910194544,-0.0533538684,-0.0531449951,-0.0788966864
101797.835371,0.145895495,0.136214643,-0.689258714,-0.083561033,-0.0564755462,-0.0735642388
101797.845399,0.143021985,0.104762689,-0.616011107,-0.0922053903,-0.0486881956,-0.0662408099
101797.855427,0.173226569,0.0762964732,-0.538699904,-0.0943732113,-0.0255565103,-0.0462002568
101797.865455,0.230156079,0.0871586435,-0.499463872,-0.0994036496,-0.00612848485,-0.0309395455
101797.875483,0.245610253,0.162402393,-0.527882449,-0.104435161,-0.00352391321,-0.0228326172
101797.885511,0.278374458,0.265058757,-0.697869452,-0.0997317582,-0.0220706984,-0.0216792021
101797.895539,0.339826998,0.38287382,-0.908566651,-0.0945018381,-0.0612002574,-0.0247583501
101797.905567,0.370197586,0.443493417,-1.04782775,-0.0952741504,-0.102749839,-0.0372166149
101797.915595,0.295779767,0.483021125,-1.03490302,-0.0974731296,-0.131993741,-0.0544233024
101797.925623,0.196695123,0.485706711,-0.927065746,-0.0931137949,-0.138741389,-0.0701577887
101797.935651,0.10528759,0.430977049,-0.745392178,-0.0800997317,-0.121008731,-0.0831404328
101797.945679,0.0208726922,0.374413158,-0.603630495,-0.072760582,-0.0901861042,-0.0929672271
101797.955707,-0.0607540362,0.307058409,-0.449491415,-0.0707283318,-0.0541407503,-0.0940665826
101797.965734,-0.0424240142,0.244046657,-0.426951009,-0.0640989244,-0.0334815457,-0.0882302672
101797.975762,0.0747580116,0.190033619,-0.51179553,-0.0642810762,-0.0297350101,-0.0748806372
101797.985790,0.199157129,0.189795719,-0.639592546,-0.0647063851,-0.0427666567,-0.0626876205
101797.995818,0.324493235,0.191800337,-0.801821409,-0.0513306633,-0.0639792681,-0.0500988588
101798.005846,0.417494175,0.198204359,-0.93394966,-0.0344973542,-0.0879192278,-0.0417684913
101798.015874,0.463607107,0.227097568,-0.969614774,-0.0267896336,-0.110648505,-0.0423266888
101798.025902,0.417553212,0.198152628,-0.91945454,-0.0208398663,-0.123228483,-0.0459379368
101798.035930,0.356070861,0.13634733,-0.813634597,-0.0170174316,-0.12123324,-0.0398715213
101798.045958,0.265885564,0.0715343734,-0.644345294,-0.037056651,-0.0932756439,-0.0394123942
101798.055986,0.139918174,0.0472436895,-0.439376191,-0.0465494916,-0.0552560836,-0.0434902236
101798.066014,0.0056663552,-0.0208785374,-0.359531816,-0.0474219434,-0.00936981849,-0.037854176
101798.076042,-0.0806336256,-0.0734849229,-0.327414603,-0.0532302968,0.0364559926,-0.0340139009
101798.086070,-0.145530753,-0.0847358003,-0.338709319,-0.0498885624,0.066867426,-0.0344549194
101798.096098,-0.160699681,-0.067533321,-0.46320671,-0.045669049,0.0811821818,-0.0350879505
101798.106126,-0.114390349,-0.0484022119,-0.5822679,-0.0413363539,0.0870041177,-0.0395215824
101798.116153,-0.0744113901,-0.0110232061,-0.69688614,-0.032506641,0.0896358564,-0.0417168252
101798.126181,0.0170142632,0.00507978748,-0.824035506,-0.0199426468,0.0834922045,-0.0484543592
101798.136209,0.0602133534,0.0397039416,-0.953241951,-0.0104644569,0.0694203302,-0.0583458692
101798.146237,0.111793903,0.068960139,-0.997105496,-0.0026579327,0.0564584658,-0.0712012127
101798.156265,0.161316351,0.0674260613,-1.00273693,0.00460157776,0.0515233614,-0.0810919255
101798.166293,0.202099612,0.0465033925,-0.983079236,0.0264046118,0.0592475943,-0.0826000795
101798.176321,0.279759775,0.0391971611,-0.955603858,0.0546354502,0.0624215491,-0.0826669261
101798.186349,0.329113881,0.00942190834,-0.982705727,0.0694103986,0.0531095378,-0.0812879354
101798.196377,0.320848741,0.00134206226,-0.976119919,0.0752086341,0.0317773521,-0.0904473439
101798.206405,0.275922389,0.0541381252,-0.899375628,0.0746773332,0.0161669664,-0.102003604
101798.216433,0.245702023,0.0704696668,-0.837007654,0.0908626914,0.0158963893,-0.11027991
101798.226461,0.199877845,0.0665542469,-0.753564378,0.0987085626,0.031468749,-0.116762459
101798.236489,0.108120183,0.0639887803,-0.626526729,0.114357032,0.0622703396,-0.107150316
101798.246516,0.0767646753,-0.024205636,-0.621712679,0.129498169,0.0844326317,-0.0849669799
101798.256544,0.178591311,-0.0392377854,-0.676692224,0.114517085,0.106674023,-0.0610139817
101798.266572,0.294735226,-0.00521568882,-0.68426412,0.1003512,0.104898758,-0.0261516068
101798.276600,0.374954426,-0.0573930353,-0.927948374,0.0815641955,0.0865498409,0.015530061
101798.286628,0.481836591,-0.056082245,-1.0721679,0.0450442657,0.0449195802,0.0598823428
101798.296656,0.57104223,-0.0436059175,-1.22025623,0.0120924423,-0.0127325328,0.102173612
101798.306684,0.559914687,0.0411018257,-1.365826,-0.0161666274,-0.0643017218,0.136586174
101798.316712,0.438045965,0.143552146,-1.35923084,-0.0164305456,-0.0966663212,0.176976487
101798.326740,0.280207519,0.165752872,-1.26772481,-0.0283963941,-0.110194109,0.209508583
101798.336768,0.0566506925,0.193795894,-1.10308341,-0.0652297735,-0.116319112,0.233090609
101798.346796,-0.194022689,0.260032161,-0.95646179,-0.113697439,-0.112331562,0.249044552
101798.356824,-0.326651875,0.329255628,-0.90253738,-0.144181848,-0.0974873677,0.258485973
101798.366852,-0.353271586,0.437208637,-0.942739042,-0.146511585,-0.0814301074,0.254416943
101798.376880,-0.295339037,0.564768557,-1.04179563,-0.138264298,-0.0659094676,0.244478285
101798.386907,-0.183906953,0.69142276,-1.09996615,-0.110123478,-0.0575910844,0.231837869
101798.396935,0.0218330616,0.786057438,-1.24831488,-0.0758797526,-0.0689249709,0.215607762
101798.406963,0.20513445,0.882352744,-1.44548566,-0.0334228463,-0.110593051,0.195079312
101798.416991,0.308132468,0.971010978,-1.66360249,0.00861462019,-0.178686604,0.161335468
101798.427019,0.320838805,1.00656072,-1.76222068,0.0371932648,-0.245360717,0.118155241
101798.437047,0.264261762,1.01949415,-1.57595519,0.0576860234,-0.284019709,0.0787069052
101798.447075,0.180820678,0.958482044,-1.27726348,0.0698883682,-0.285663396,0.0447611809
101798.457103,0.0838052414,0.841993553,-0.907202084,0.0819322467,-0.264040142,0.0271214694
101798.467131,0.0184235454,0.71860595,-0.624541181,0.0678606331,-0.223527849,0.0158634894
101798.477159,-0.00683773707,0.635382308,-0.304185118,0.033773236,-0.167913333,0.01030201
101798.487187,0.00776186617,0.549625641,-0.0961326619,-0.0037677479,-0.124328844,0.00300414953
101798.497215,0.055048518,0.566737811,-0.107774073,-0.0400951318,-0.0880134404,-0.00966797024
101798.507243,0.168428229,0.610517039,-0.0921890389,-0.0651171207,-0.0611858182,-0.02518248
101798.517270,0.296883344,0.656182812,-0.216862882,-0.0742797256,-0.0434084199,-0.041849345
101798.527298,0.445616108,0.702024234,-0.328561508,-0.0728613287,-0.0226109978,-0.0645706281
101798.537326,0.529129088,0.728138626,-0.419352809,-0.0546213426,-0.012797514,-0.0811296329
101798.547354,0.59235799,0.713239747,-0.575285713,-0.0534263812,-0.00248175976,-0.103785947
101798.557382,0.635152591,0.712720984,-0.604006927,-0.0568504073,0.00672052708,-0.12513943
101798.567410,0.619291005,0.690465898,-0.702345136,-0.0578182004,0.0204709601,-0.145297438
101798.577438,0.600030424,0.661717358,-0.743013173,-0.0534626022,0.0328048579,-0.159830302
101798.587466,0.536816136,0.576991494,-0.775602534,-0.0563031286,0.0459922999,-0.173059553
101798.597494,0.365403338,0.48078036,-0.700560445,-0.0789519772,0.0574484207,-0.181129739
101798.607522,0.211960497,0.33295419,-0.581484056,-0.110526413,0.0715791509,-0.18254894
101798.617550,0.0744780256,0.235094704,-0.508824551,-0.143646017,0.0955153778,-0.178921178
101798.627578,-0.00976326912,0.173722244,-0.418102589,-0.176609024,0.127395019,-0.173032925
101798.637606,-0.0582277326,0.130668407,-0.345456455,-0.221723512,0.164095238,-0.161295041
101798.647633,-0.0839630623,0.138793554,-0.316373496,-0.256291628,0.193961531,-0.140489623
101798.657661,-0.144310271,0.139981302,-0.418891694,-0.280109346,0.226362884,-0.111515239
101798.667689,-0.235392226,0.0963110872,-0.478922092,-0.320936143,0.268972367,-0.0803266913
101798.677717,-0.171921332,0.211785432,-0.480390484,-0.367282063,0.309360802,-0.0571531951
101798.687745,-0.0695966833,0.347477221,-0.703131902,-0.379740596,0.332529247,-0.0333466679
101798.697773,0.0221709153,0.437717464,-1.14862877,-0.364393592,0.322545052,-0.010459993
101798.707801,0.107620417,0.569891015,-1.62466442,-0.346180499,0.282701492,0.00464359159
101798.717829,0.161395846,0.707477823,-2.01667695,-0.339452565,0.216398656,0.00538075436
101798.727857,0.173446349,0.83518475,-2.29092658,-0.335895896,0.132977009,-0.00875210948
101798.737885,0.17098259,0.891670023,-2.48873346,-0.336381942,0.0424945056,-0.0350079462
101798.747913,0.239190449,0.921703634,-2.4953485,-0.324057609,-0.0371894054,-0.0614936128
101798.757941,0.339284562,0.911775822,-2.43683026,-0.285151243,-0.110241778,-0.0889377594
101798.767969,0.501112954,0.880651493,-2.34344704,-0.238403961,-0.165481597,-0.11476323
101798.777997,0.649217357,0.802146111,-2.0327532,-0.196622148,-0.201964244,-0.150744662
101798.788024,0.683651541,0.670754943,-1.66289756,-0.161767498,-0.220920086,-0.18863745
101798.798052,0.684638799,0.510560874,-1.32748414,-0.125552505,-0.213901058,-0.221230283
101798.808080,0.666917849,0.31933746,-0.966367171,-0.0864759386,-0.178364098,-0.239119798
101798.818108,0.573338817,0.138610306,-0.581688128,-0.0613189265,-0.119607583,-0.250353009
101798.828136,0.462591208,-0.00140168349,-0.22461883,-0.0709044412,-0.0470377766,-0.251516551
101798.838164,0.319888956,-0.105842301,0.113523576,-0.106599852,0.0386435725,-0.247340977
101798.848192,0.185495684,-0.221941792,0.343066418,-0.160194635,0.12624453,-0.235625461
101798.858220,0.10879589,-0.297166545,0.425087699,-0.211798981,0.208413973,-0.220754638
101798.868248,0.0506552515,-0.353582844,0.405544867,-0.259258658,0.275830805,-0.210765392
101798.878276,0.0177817404,-0.361374521,0.213514594,-0.289979815,0.326593339,-0.201514632
101798.888304,0.0695639501,-0.358869552,-0.0347254226,-0.295911998,0.368753821,-0.194403723
101798.898332,0.167795192,-0.316133988,-0.349286243,-0.256329983,0.407885253,-0.185620353
101798.908359,0.362706354,-0.22386107,-0.813084489,-0.177643403,0.422062576,-0.182000861
101798.918387,0.508515924,-0.17151129,-1.24673375,-0.0936283916,0.41627714,-0.191056937
101798.928415,0.578935029,-0.0870692116,-1.54364968,-0.0120435208,0.380552441,-0.207000211
101798.938443,0.575624882,-0.107847504,-1.79194698,0.0587835126,0.336483508,-0.230653077
101798.948471,0.537374939,-0.14917817,-1.84944816,0.122261822,0.291306436,-0.253068119
101798.958499,0.462388379,-0.250229437,-1.81647294,0.181930751,0.250688702,-0.257889748
101798.968527,0.409506684,-0.431659771,-1.72190416,0.227997303,0.22418575,-0.243279129
101798.978555,0.278427065,-0.641492023,-1.47712174,0.24928768,0.221762538,-0.214264259
101798.988583,0.0763672004,-0.792764243,-1.19242802,0.240098178,0.232809052,-0.176131248
101798.998611,-0.148118431,-0.866753608,-0.952329951,0.20911549,0.261826307,-0.134203777
101799.008639,-0.321530878,-0.901059782,-0.770780813,0.171514064,0.289922655,-0.077904813
101799.018667,-0.413236518,-0.921889512,-0.754680303,0.137188315,0.310125142,-0.0118648112
101799.028694,-0.449181691,-0.869278158,-0.875731718,0.12299899,0.315677285,0.0623873174
101799.038722,-0.416795672,-0.817824157,-1.0865087,0.119136073,0.308028698,0.141484261
101799.048750,-0.298457461,-0.757040603,-1.32505311,0.116962664,0.275156498,0.219555095
101799.058778,-0.185050278,-0.655319473,-1.54802278,0.107120685,0.221380368,0.284054458
101799.068806,-0.15319325,-0.464140483,-1.72068558,0.0928083286,0.153840214,0.325658619
101799.078834,-0.21561142,-0.242634744,-1.7513743,0.0855940878,0.0960021988,0.345321268
101799.088862,-0.267660172,-0.0344312619,-1.69494821,0.112707734,0.0664522946,0.365281135
101799.098890,-0.29688802,0.139950615,-1.56719949,0.161322415,0.0703980401,0.373012036
101799.108918,-0.303458046,0.372963544,-1.33759885,0.211467072,0.105466276,0.37164557
101799.118946,-0.26150048,0.521695431,-1.08716176,0.250440538,0.130135417,0.367202342
101799.128974,-0.155794373,0.642814212,-0.952450362,0.262872189,0.144180655,0.356250376
101799.139002,0.0207774151,0.712974082,-0.765425569,0.252162278,0.163273662,0.341903657
101799.149030,0.156270174,0.789856538,-0.543947741,0.257366091,0.185602129,0.322033525
101799.159057,0.31561844,0.874794876,-0.509645805,0.283702374,0.209251806,0.295122564
101799.169085,0.422384285,0.906357889,-0.484082763,0.330630451,0.238058418,0.27217862
101799.179113,0.587841389,0.932025414,-0.48009647,0.400679052,0.28329432,0.252311438
101799.189141,0.784193398,0.947310369,-0.565010403,0.480484396,0.305268854,0.219262421
101799.199169,0.879735839,1.03454675,-0.659953709,0.550362825,0.301367849,0.166109979
101799.209197,0.937496539,1.06321638,-0.684587215,0.601175427,0.283671677,0.104272179
101799.219225,0.991196565,0.990561189,-0.614198943,0.650030315,0.265831172,0.0570500717
101799.229253,1.03298637,0.835158446,-0.555971356,0.675098777,0.25519073,0.0415540077
101799.239281,1.02310445,0.646719403,-0.324280469,0.653421164,0.264505684,0.0516055748
101799.249309,0.95031978,0.450516739,-0.0725596248,0.582548618,0.265002638,0.0744238049
101799.259337,0.86143855,0.269910581,0.111569447,0.466430545,0.253130525,0.104585707
101799.269364,0.795724261,0.172986623,0.184609548,0.335854948,0.221474051,0.130265236
101799.279392,0.806519212,0.163463592,0.14497911,0.210780382,0.174545422,0.157911509
101799.289420,0.846290666,0.143268946,0.13275895,0.0978698134,0.140111804,0.18738845
101799.299448,0.865364784,0.0993766123,0.13988734,0.000219413458,0.119916268,0.224066824
101799.309476,0.853859055,0.085269761,0.127703128,-0.0894462839,0.119718932,0.249466985
101799.319504,0.794618931,0.20442864,0.072577745,-0.153820753,0.125444457,0.258351296
101799.329532,0.766839528,0.322004341,-0.144845109,-0.188580066,0.128494576,0.253242552
101799.339560,0.679517218,0.465383469,-0.334687297,-0.213165835,0.126110241,0.21625632
101799.349588,0.4968816,0.639989218,-0.486815695,-0.216693193,0.106740281,0.157899529
101799.359616,0.332353301,0.756515702,-0.655362436,-0.211269662,0.0807409063,0.0858833864
101799.369644,0.155965638,0.746732559,-0.664488284,-0.204689801,0.0798902884,0.0175735727
101799.379672,-0.00376022932,0.597572802,-0.586188362,-0.177368432,0.103276037,-0.0337119848
101799.389699,-0.0726356126,0.466050116,-0.537911822,-0.140989646,0.152126133,-0.0694550648
101799.399727,-0.155937581,0.365582786,-0.48053866,-0.0949494466,0.212596133,-0.102324866
101799.409755,-0.235135621,0.289651055,-0.543319526,-0.0405842103,0.245780453,-0.127252847
101799.419783,-0.281063844,0.257027134,-0.756104783,-0.0108841034,0.245244354,-0.152117729
101799.429811,-0.300461787,0.227454126,-0.837532044,-0.0122905187,0.222513214,-0.181551516
101799.439839,-0.280840556,0.192638833,-0.89496848,-0.0324053764,0.189297736,-0.204818487
101799.449867,-0.167024792,0.114874626,-0.908909327,-0.0489606485,0.164547905,-0.217535347
101799.459895,-0.0606447306,0.0167559045,-0.905356895,-0.0350387096,0.145736143,-0.216991514
101799.469923,0.0695505061,-0.0351277197,-1.01751276,-0.00433272775,0.132014468,-0.210538417
101799.479951,0.15594401,-0.0611392361,-1.06930067,0.0296854265,0.115599021,-0.205682158
101799.489979,0.162082075,-0.083347853,-1.11337742,0.0580960289,0.101456568,-0.205352455
101799.500006,0.130383453,-0.0795852856,-1.09455173,0.0746430531,0.091445744,-0.206514388
101799.510034,0.118556237,-0.104830786,-1.06915834,0.0949304774,0.0868400782,-0.19883728
101799.520062,0.155201668,-0.164727621,-1.0628135,0.10657648,0.0846256539,-0.178864926
101799.530090,0.242017197,-0.201161747,-1.02234691,0.116710879,0.0722419545,-0.144910157
101799.540118,0.357260363,-0.229899473,-1.05178957,0.120261669,0.0372866355,-0.104598671
101799.550146,0.443429411,-0.23456805,-1.11303007,0.108284637,-0.0254345369,-0.0603965893
101799.560174,0.441426255,-0.179170572,-1.12124246,0.0715561807,-0.113356404,-0.0276482329
101799.570202,0.348916314,-0.0864329596,-1.07771253,0.0210115109,-0.199672922,-0.00752485543
101799.580230,0.210534263,-0.000480476993,-0.90833708,-0.0194874462,-0.258599073,0.00468840171
101799.590258,0.105696755,0.0859650498,-0.681564068,-0.0465899035,-0.275251031,0.000611368567
101799.600286,-0.00501461329,0.215697637,-0.459375169,-0.0381807052,-0.263108075,-0.0101118498
101799.610313,-0.110339613,0.325814547,-0.365046195,0.00126576948,-0.228304833,-0.0263547339
101799.620341,-0.193795894,0.398417134,-0.272855987,0.054742042,-0.178600922,-0.0454011299
101799.630369,-0.229925777,0.412975821,-0.16674466,0.109693445,-0.130016878,-0.0617516115
101799.640397,-0.257407658,0.405012295,-0.111223702,0.1537866,-0.0879375935,-0.0712750703
101799.650425,-0.26901334,0.390716351,-0.0325479324,0.165871754,-0.0575306863,-0.0765758306
101799.660453,-0.293406608,0.344103068,0.0867652603,0.152084306,-0.0379982628,-0.0741901696
101799.670481,-0.338541635,0.269674727,0.190120421,0.110819966,-0.0206970386,-0.0647596493
101799.680509,-0.392491251,0.158859898,0.33330388,0.0555247478,0.00385810528,-0.0373293571
101799.690537,-0.434448817,0.0524897734,0.409315107,0.000986403786,0.0342271961,0.000549582765
101799.700565,-0.427234063,0.000251636674,0.394833869,-0.0576944873,0.0616436414,0.0389696769
101799.710593,-0.410609676,0.0465115758,0.323190921,-0.119337603,0.0746547803,0.0675898641
101799.720620,-0.335984936,0.131897072,0.171738376,-0.155478314,0.0757054016,0.0857201368
101799.730648,-0.243970084,0.257851018,-0.0581388852,-0.159886375,0.0645885617,0.0916334167
101799.740676,-0.185772162,0.398835652,-0.204321965,-0.149399906,0.0617248677,0.0847880319
101799.750704,-0.115909522,0.485051754,-0.237964707,-0.135585025,0.0647728592,0.0665914491
101799.760732,-0.0456108276,0.550980562,-0.273783477,-0.112423241,0.0755714402,0.0511179529
101799.770760,0.0195154323,0.531471268,-0.296327464,-0.0939238593,0.0882318392,0.0399254858
101799.780788,0.0363473247,0.497904513,-0.265958044,-0.0753286034,0.108899571,0.0341003537
101799.790816,0.101635497,0.426790996,-0.291113528,-0.0528483316,0.120994054,0.0424086154
101799.800844,0.181102417,0.348640711,-0.361244319,-0.0457552709,0.120954372,0.0533843003
101799.810872,0.220213946,0.257972306,-0.371604823,-0.0603243597,0.107281968,0.0709531754
101799.820900,0.260600317,0.196299986,-0.381605992,-0.0957454592,0.073855035,0.0873888731
101799.830927,0.289372238,0.132304484,-0.394043449,-0.14365387,0.0320447348,0.103308186
101799.840955,0.313596578,0.121971598,-0.397174148,-0.183185041,-0.0228142515,0.118380345
101799.850983,0.347106049,0.166458682,-0.443018785,-0.209381223,-0.0815428123,0.129806906
101799.861011,0.399231373,0.234661866,-0.457705043,-0.235874876,-0.135032147,0.119661324
101799.871039,0.414718865,0.384800697,-0.380387995,-0.240979895,-0.171135545,0.0964763761
101799.881067,0.446910824,0.468708522,-0.290191153,-0.221495405,-0.183224976,0.0763908178
101799.891095,0.475444844,0.49821168,-0.198849525,-0.184635133,-0.169840723,0.0556652993
101799.901123,0.496432103,0.476236287,-0.0723133949,-0.157140121,-0.145751625,0.0340723917
101799.911151,0.520759319,0.454215594,0.0622131489,-0.146861389,-0.117276311,0.00663250918
101799.921179,0.551910829,0.427867685,0.166176212,-0.146942347,-0.0823422894,-0.0254154392
101799.931206,0.604038491,0.371668244,0.259821149,-0.15104121,-0.0449768119,-0.0462107323
101799.941234,0.688803517,0.307592954,0.317385449,-0.152349353,-0.00961269531,-0.0643023849
101799.951262,0.793112033,0.234115045,0.289696063,-0.150530681,0.0120808817,-0.0712819993
101799.961290,0.871172593,0.14620383,0.226951145,-0.152915284,0.0090848254,-0.0721387342
101799.971318,0.892898103,0.059307929,0.15162527,-0.16704309,-0.0100699607,-0.0765654445
101799.981346,0.842799901,-0.00266512756,0.155421156,-0.200500906,-0.0277075451,-0.0833956525
101799.991374,0.809955616,-0.0251160288,0.1879422,-0.226256609,-0.0403234698,-0.0912141576
101800.001402,0.747327018,-0.0229348854,0.124369599,-0.24806869,-0.0398885757,-0.0960443318
101800.011430,0.685302231,0.00894113909,0.144387428,-0.263121128,-0.0350802392,-0.105087899
101800.021458,0.596070873,0.00774403826,0.0935831236,-0.268285811,-0.0342416093,-0.115950935
101800.031486,0.509503766,0.0407715708,0.0273076936,-0.269316167,-0.0469584689,-0.139284492
101800.041513,0.45432373,0.0707677729,-0.0353074602,-0.256844342,-0.0672062188,-0.160831332
101800.051541,0.423200862,0.051449909,-0.0836840993,-0.241591886,-0.0858611241,-0.180092633
101800.061569,0.353374462,0.0188306649,-0.0726823744,-0.225139678,-0.10004805,-0.196622878
101800.071597,0.237965291,-0.025514965,-0.017691724,-0.20571804,-0.11498785,-0.203163058
101800.081625,0.142031805,-0.107208037,0.0337152226,-0.193405718,-0.117338091,-0.207988709
101800.091653,-0.00757423465,-0.141493168,0.20921339,-0.197061166,-0.105546683,-0.211738974
101800.101681,-0.225462952,-0.191816411,0.357264601,-0.21280764,-0.0682123601,-0.209802866
101800.111709,-0.37837271,-0.264364638,0.534541907,-0.226775929,-0.00727230962,-0.197318226
101800.121737,-0.52954819,-0.343778074,0.601196546,-0.227078989,0.0668394715,-0.165198892
101800.131765,-0.620981443,-0.390116047,0.547829113,-0.22221899,0.137496054,-0.130544782
101800.141792,-0.720395757,-0.396629082,0.448973309,-0.230227917,0.19608134,-0.0940424353
101800.151820,-0.787047619,-0.348525561,0.293261646,-0.249303073,0.222431451,-0.06617672
101800.161848,-0.811122322,-0.243026082,0.0318137729,-0.259054214,0.232453719,-0.0502648614
101800.171876,-0.789230223,-0.124039929,-0.167723149,-0.252057821,0.248539224,-0.0416359529
101800.181904,-0.66961834,-0.00499503181,-0.359072674,-0.208269358,0.265836209,-0.0295406766
101800.191932,-0.480062567,0.0973757939,-0.605033786,-0.150704324,0.269733995,-0.0262420848
101800.201960,-0.335967985,0.191847098,-0.817825619,-0.0916756168,0.255321234,-0.0381448157
101800.211988,-0.289199219,0.311360198,-1.00127138,-0.0314383805,0.217263594,-0.064272292
101800.222016,-0.255469384,0.428550407,-1.17991808,0.029809529,0.174602672,-0.0984544978
101800.232044,-0.199864985,0.482253355,-1.24960653,0.092808485,0.130449742,-0.12581645
101800.242071,-0.121609779,0.407238739,-1.25987541,0.147980392,0.0892799348,-0.128537402
101800.252099,-0.0439718282,0.316556889,-1.17282622,0.164132997,0.0580144301,-0.116198994
101800.262127,-0.0292436301,0.216015617,-0.955285732,0.142930776,0.0313111767,-0.0837989673
101800.272155,0.0169008659,0.0979953871,-0.805771462,0.096715875,0.00070266932,-0.0358167961
101800.282183,0.139926942,0.0785267165,-0.743823978,0.0463720113,-0.0446427055,0.0182413794
101800.292211,0.255808406,0.149909406,-0.777242264,0.0121964654,-0.117067114,0.0631819591
101800.302239,0.357672451,0.272150177,-0.922130627,-0.0258603711,-0.207333893,0.0926293284
101800.312267,0.399205654,0.471480032,-0.868866362,-0.0703247786,-0.292118818,0.0958517492
101800.322295,0.467807481,0.678574092,-0.729780255,-0.0923882648,-0.356794745,0.0853250697
101800.332323,0.575779196,0.826625596,-0.611119389,-0.0852624476,-0.396689177,0.0670999959
101800.342350,0.736416917,0.967552947,-0.469727928,-0.060499046,-0.422099978,0.0347697549
101800.352378,0.869741684,1.0532535,-0.326765272,-0.032555826,-0.427946419,-0.0058077639
101800.362406,0.97290629,1.06475543,-0.13255086,0.00626507355,-0.413673222,-0.0426837578
101800.372434,1.02811964,0.982383436,0.00974982512,0.0543039702,-0.398577869,-0.0710171312
101800.382462,1.0453192,0.858399621,0.122718909,0.089485392,-0.380695552,-0.0882246122
101800.392490,0.997253965,0.702408849,0.274701469,0.0987745002,-0.368698001,-0.102407545
101800.402518,0.903346432,0.537739388,0.424250079,0.0773150101,-0.372793436,-0.115358762
101800.412546,0.835241448,0.440972666,0.543916323,0.0467235483,-0.383022904,-0.1323428
101800.422574,0.821108878,0.354796311,0.596688713,0.0208046027,-0.401632518,-0.149529502
101800.432602,0.797061063,0.262836697,0.605248451,0.00696521858,-0.412152827,-0.166416883
101800.442629,0.758209647,0.146122289,0.665835899,-0.00366718555,-0.406446993,-0.183151647
101800.452657,0.740306326,0.0285667538,0.822146989,-0.0184740946,-0.374795854,-0.197401688
101800.462685,0.695048549,-0.113043026,1.00381215,-0.0296124984,-0.312821418,-0.213438183
101800.472713,0.636746582,-0.218904032,1.1475908,-0.0242896397,-0.235809743,-0.226014167
101800.482741,0.562614009,-0.338107335,1.20022452,0.0052293702,-0.152935892,-0.235602871
101800.492769,0.426753002,-0.439027962,1.20277873,0.0358360149,-0.0702303648,-0.244338319
101800.502797,0.213590144,-0.522341328,1.23255632,0.0554342158,0.0223829318,-0.260050178
101800.512825,0.0162105456,-0.597038257,1.29851669,0.0696546957,0.123179846,-0.270355552
101800.522853,-0.0804372263,-0.709843675,1.30028136,0.0794798955,0.225150958,-0.267154962
101800.532880,-0.114735802,-0.806093388,1.22558239,0.0879724547,0.314427316,-0.247135684
101800.542908,-0.151454882,-0.939600233,1.09032169,0.0800673887,0.389583826,-0.20909749
101800.552936,-0.175581608,-1.02277974,0.991064609,0.0507489182,0.444247335,-0.166968688
101800.562964,-0.333410117,-1.04508335,0.857640912,0.0122172385,0.483027488,-0.122312002
101800.572992,-0.451892704,-1.03416623,0.670543784,-0.0226999987,0.515085876,-0.0768848732
101800.583020,-0.580789133,-0.963821651,0.44226329,-0.0579123162,0.539247394,-0.0302475933
101800.593048,-0.707350981,-0.861236598,0.245224761,-0.100196652,0.554612756,0.0116631053
101800.603076,-0.775894941,-0.715502432,0.0438838577,-0.136802077,0.555297196,0.0537351891
101800.613104,-0.789615423,-0.554500845,-0.264385096,-0.149644628,0.528458118,0.0965657458
101800.623132,-0.753013247,-0.378819284,-0.649977235,-0.150673151,0.478958726,0.129902393
101800.633159,-0.677141721,-0.157873809,-0.972977017,-0.14086473,0.407230467,0.146752223
101800.643187,-0.644380438,0.0792488933,-1.23024322,-0.126103625,0.312840581,0.144366026
101800.653215,-0.628856121,0.292924377,-1.41443644,-0.0999668241,0.210514486,0.121814907
101800.663243,-0.632259208,0.52287675,-1.53119294,-0.0556616783,0.114107788,0.0898431242
101800.673271,-0.57606152,0.681918142,-1.5368365,-0.000520927191,0.0422309376,0.0521082655
101800.683299,-0.555597993,0.766089586,-1.40985014,0.0730203986,-0.000637166901,0.0149779413
101800.693327,-0.489743419,0.768074623,-1.19887822,0.14688237,-0.0121657252,-0.00993726216
101800.703355,-0.417679469,0.703129564,-0.8898884,0.205176041,0.00486545637,-0.0342324823
101800.713383,-0.336276028,0.618195319,-0.576641366,0.235685751,0.030609969,-0.0521076173
101800.723411,-0.222428115,0.494040824,-0.34458486,0.258770555,0.0519093983,-0.0568493754
101800.733438,-0.0357844301,0.390488095,-0.264793092,0.270904183,0.0486448966,-0.0537065789
101800.743466,0.0739876118,0.299356748,-0.20174247,0.260257393,0.0386156961,-0.0472148582
101800.753494,0.157455584,0.245297534,-0.0363651526,0.239828557,0.0307947919,-0.0440219939
101800.763522,0.229433025,0.175863055,0.0770081286,0.237751022,0.0291223265,-0.0349217057
101800.773550,0.324969036,0.114816758,0.0893641907,0.244528234,0.0276818238,-0.0256038401
101800.783578,0.381377737,0.0847667799,0.127993927,0.249186113,0.0302168857,-0.0211779326
101800.793606,0.372068641,0.0509220857,0.20663784,0.247252926,0.0347698256,-0.0214085616
101800.803634,0.424590271,0.00379968454,0.302454422,0.243286401,0.0540053062,-0.017469747
101800.813662,0.514087587,-0.0661518036,0.401346173,0.238455966,0.0876876339,-0.00444262754
101800.823689,0.67001523,-0.142343647,0.464115641,0.227597192,0.120647445,0.0272063781
101800.833717,0.909099881,-0.201175776,0.447571334,0.197554603,0.128012687,0.074174948
101800.843745,1.08307873,-0.222224117,0.386406378,0.137622029,0.0994004831,0.127706349
101800.853773,1.16166945,-0.18339462,0.324913653,0.0456947684,0.0391288884,0.175348714
101800.863801,1.14615566,-0.0792301886,0.290289645,-0.0442023613,-0.0250415746,0.202315077
101800.873829,1.07538818,0.0321560105,0.308754984,-0.106991976,-0.0717632771,0.219812319
101800.883857,0.970105261,0.196055948,0.357399626,-0.134006813,-0.0826763809,0.211040393
101800.893885,0.778048904,0.312023922,0.430401003,-0.122656688,-0.0647599623,0.188199267
101800.903913,0.576852962,0.395396033,0.449079985,-0.0670719892,-0.0282368362,0.153928906
101800.913940,0.374012176,0.451507796,0.422759548,0.00435319031,0.0279888865,0.110936694
101800.923968,0.174613055,0.444927249,0.46712476,0.0640053302,0.0932573676,0.0666864067
101800.933996,0.0393909301,0.403746805,0.553499706,0.0918814391,0.146538958,0.022331994
101800.944024,-0.0257236393,0.360208107,0.557238454,0.0838400275,0.185515121,-0.013752507
101800.954052,-0.0333165787,0.293880655,0.508297313,0.0571333133,0.206080854,-0.0440763235
101800.964080,0.0183633397,0.223227741,0.403788306,0.0337752588,0.210093707,-0.0552072749
101800.974108,0.0732657272,0.116174895,0.193483321,0.00321974885,0.19379063,-0.0449311957
101800.984136,0.0996615667,0.0815793821,0.0754062464,-0.0589805096,0.164270818,-0.036113739
101800.994164,-0.01093582,0.120479606,0.0316356398,-0.142864227,0.120398439,-0.0334170237
101801.004191,-0.132899819,0.205753459,-0.0495043279,-0.229089126,0.0819064453,-0.0391747728
101801.014219,-0.230521405,0.30418636,-0.112480716,-0.27590245,0.0626517907,-0.0528189465
101801.024247,-0.343161111,0.382654332,-0.210409614,-0.282365382,0.0612096898,-0.0661901534
101801.034275,-0.442154569,0.480498621,-0.297927738,-0.260873139,0.0697621629,-0.0898438171
101801.044303,-0.599804214,0.537502072,-0.340421311,-0.224326327,0.0816134959,-0.119887732
101801.054331,-0.841962281,0.487849276,-0.390089159,-0.192253083,0.095702678,-0.157924861
101801.064359,-1.04323713,0.436767615,-0.355394277,-0.158918023,0.118284158,-0.196321785
101801.074387,-1.14369307,0.396409886,-0.342081207,-0.108898267,0.160706177,-0.22382158
101801.084415,-1.07660573,0.235217746,-0.38457551,-0.0546491444,0.2100005,-0.231865391
101801.094442,-0.990406876,0.082190792,-0.417543275,-0.0173832644,0.254490197,-0.234278753
101801.104470,-0.90223058,-0.0478095067,-0.44782297,0.00749545405,0.289594382,-0.227817118
101801.114498,-0.586743657,-0.149878719,-0.620288784,0.0175467562,0.298601478,-0.211803794
101801.124526,-0.202442142,-0.221010649,-0.794364956,0.00687626889,0.289488673,-0.186938927
101801.134554,0.148403678,-0.291145969,-0.89723321,-0.00521101989,0.262115896,-0.163186997
101801.144582,0.495779192,-0.316674086,-1.03879331,0.00260722172,0.216616854,-0.138590574
101801.154610,0.734614251,-0.319702786,-1.23391694,0.0161917415,0.159840658,-0.114133708
101801.164638,0.794964968,-0.322792277,-1.34964029,0.0486018769,0.0892828628,-0.0953269973
101801.174666,0.758261669,-0.382298359,-1.43594963,0.0874965414,0.0178433079,-0.0717747957
101801.184693,0.688290307,-0.426426546,-1.35473878,0.120325595,-0.0376644246,-0.0495022461
101801.194721,0.55458677,-0.503510955,-1.10292149,0.148236588,-0.0617535152,-0.0250677448
101801.204749,0.437208345,-0.543330632,-0.811390909,0.169871584,-0.0641817898,0.00410638563
101801.214777,0.380220968,-0.601908201,-0.588774871,0.176461577,-0.0610136911,0.0377048254
101801.224805,0.387075656,-0.63045888,-0.389170583,0.165249661,-0.0566495694,0.0702864677
101801.234833,0.430749963,-0.665624886,-0.216694539,0.145728558,-0.0546472296,0.113192454
101801.244861,0.524717702,-0.692599987,-0.113216045,0.121334538,-0.0561593734,0.149234086
101801.254889,0.548716417,-0.623846769,-0.0161707981,0.10785947,-0.0509443693,0.175467283
101801.264917,0.573807019,-0.489053975,0.00679623601,0.123855218,-0.0350223966,0.194293708
101801.274944,0.556703908,-0.377159242,0.00725859283,0.144174606,-0.00519552361,0.205260068
101801.284972,0.425360671,-0.279147196,0.0695341395,0.155728996,0.0379072055,0.213394165
101801.295000,0.292357391,-0.21208763,0.135112819,0.163954973,0.078548111,0.21548368
101801.305028,0.219780231,-0.0261453719,0.00805208129,0.184455708,0.0954855457,0.202260286
101801.315056,0.148876556,0.171887429,-0.201167592,0.21164526,0.0979801267,0.175434262
101801.325084,0.0983989994,0.332237566,-0.398034565,0.252197742,0.0699173361,0.139373466
101801.335112,0.0430985525,0.448081621,-0.540202855,0.276403755,0.0430207402,0.100699037
101801.345140,-0.0374339509,0.496320459,-0.489985411,0.283811599,0.0299701858,0.0663402677
101801.355167,-0.0873363381,0.48999827,-0.319087577,0.277001619,0.0394230746,0.0395240933
101801.365195,-0.117867085,0.507974949,-0.190837045,0.271679312,0.0663388446,0.0182627495
101801.375223,-0.13628537,0.541333613,-0.110573421,0.265584111,0.107470036,0.00853928179
101801.385251,-0.0958089829,0.516724365,-0.0673544573,0.239196196,0.137761906,0.013991572
101801.395279,-0.00236965174,0.510822155,-0.0824438899,0.193841219,0.15714626,0.0315828174
101801.405307,0.0952577788,0.495933798,-0.14870383,0.146958411,0.15125747,0.0623963885
101801.415335,0.254143688,0.498185376,-0.313262232,0.0966952369,0.0981119573,0.0995456204
101801.425363,0.405626627,0.564330166,-0.544862664,0.034328796,0.00408532657,0.132263362
101801.435390,0.450285269,0.646492608,-0.65024407,-0.0383446068,-0.119192131,0.151364878
101801.445418,0.418518258,0.751392952,-0.668705609,-0.120121494,-0.241906598,0.155386254
101801.455446,0.264435365,0.811352916,-0.500869208,-0.189200431,-0.315803468,0.147771478
101801.465474,0.0961889222,0.833266349,-0.168188283,-0.230129495,-0.33934021,0.132260948
101801.475502,-0.105475806,0.861233091,0.0412692912,-0.235988706,-0.326008171,0.103253275
101801.485530,-0.342629196,0.885561769,0.208891757,-0.205869153,-0.274741799,0.061368674
101801.495558,-0.537780012,0.848467425,0.351861719,-0.145140022,-0.197981745,0.0186630227
101801.505586,-0.665064914,0.769779965,0.472775625,-0.0802654251,-0.0934044793,-0.0297412612
101801.515614,-0.735623721,0.679805387,0.623350802,-0.00363403186,0.0179574657,-0.0677626804
101801.525641,-0.758664989,0.490789713,0.620359804,0.0530188605,0.113749772,-0.0933878794
101801.535669,-0.800790313,0.280265971,0.57737611,0.0654800609,0.19169651,-0.115621544
101801.545697,-0.851331582,0.0682616353,0.553919538,0.0419971049,0.248791754,-0.120326549
101801.555725,-0.858619401,-0.148679572,0.479033224,-0.0101939309,0.306714952,-0.101317443
101801.565753,-0.766173757,-0.321447292,0.466468926,-0.0817506686,0.371877462,-0.0666169897
101801.575781,-0.566039308,-0.407801925,0.300517024,-0.129263595,0.415991902,-0.0154544674
101801.585809,-0.277899827,-0.385829455,-0.148031338,-0.144952014,0.427606225,0.035399925
101801.595837,-0.00671498747,-0.272670109,-0.706641372,-0.134241313,0.396429658,0.0685639977
101801.605864,0.188736857,-0.0765001791,-1.19829325,-0.113834038,0.327373087,0.0721640661
101801.615892,0.338783042,0.124857675,-1.51413732,-0.0973402858,0.238452822,0.0516539961
101801.625920,0.511881016,0.239875801,-1.66812377,-0.0648875311,0.137564033,0.0249728505
101801.635948,0.705524351,0.275150236,-1.80412447,-0.0226636492,0.0306836478,0.00208058394
101801.645976,0.873418327,0.242612825,-1.84161366,0.0250740461,-0.0839174986,-0.0112562608
101801.656004,0.951897989,0.172579796,-1.80989692,0.0706697628,-0.2162963,-0.011259988
101801.666032,0.897465557,0.0152010763,-1.7267896,0.0884026885,-0.346280962,0.000205452554
101801.676060,0.825464151,-0.0872337546,-1.37951462,0.0788898766,-0.451582342,0.01881136
101801.686087,0.76285075,-0.17958003,-0.985358652,0.0520659834,-0.551376522,0.0505865999
101801.696116,0.669683806,-0.236752408,-0.73539225,0.0218830463,-0.635158777,0.0930744037
101801.706144,0.520534863,-0.265911575,-0.489508149,-0.0062332768,-0.69007504,0.148254305
101801.716172,0.402367918,-0.272950095,-0.190162214,-0.0528258123,-0.713077307,0.201332703
101801.726200,0.268026667,-0.135748487,0.10047113,-0.102172591,-0.710644782,0.240418047
101801.736228,0.178380883,0.0580570522,0.269199218,-0.1424236,-0.687811613,0.26162535
101801.746256,0.192941323,0.302706059,0.360595645,-0.166368619,-0.64903146,0.259238601
101801.756284,0.298406023,0.559269083,0.362569868,-0.148191214,-0.608866215,0.242191985
101801.766312,0.449898315,0.724087889,0.231685334,-0.100727826,-0.580102742,0.20671761
101801.776339,0.56107321,0.835852566,0.14133447,-0.0409824699,-0.567621052,0.169147596
101801.786367,0.587488923,0.891179024,0.11542846,0.0118027143,-0.561337292,0.126167119
101801.796395,0.482552046,0.911238939,0.203848502,0.0311316717,-0.543152153,0.0724562109
101801.806423,0.327315892,0.906810016,0.4325329,0.0405336954,-0.513723731,0.0277377442
101801.816451,0.191840084,0.810483147,0.594089928,0.0382266007,-0.472113192,-0.000980719924
101801.826479,0.0654161828,0.691580289,0.743372289,0.0277055148,-0.418824404,-0.01959222
101801.836507,-0.0305576353,0.577835544,0.884282835,0.00655602105,-0.368122607,-0.0350761041
101801.846535,-0.113874801,0.472725649,0.972991192,-0.020929398,-0.322977483,-0.0525200777
101801.856562,-0.223788297,0.361182798,1.01746176,-0.039165128,-0.282332331,-0.0743819624
101801.866590,-0.250291104,0.289532104,1.02903574,-0.0451362021,-0.238926783,-0.0983288437
101801.876618,-0.23590602,0.229409644,1.02789723,-0.0383307599,-0.189813569,-0.124543935
101801.886646,-0.237265034,0.185221251,1.01084556,-0.0269795675,-0.135582283,-0.147705182
101801.896674,-0.261799171,0.0798985894,0.984685721,-0.0209613554,-0.0807736367,-0.158773541
101801.906702,-0.290639481,-0.048859308,0.94706107,-0.0382095836,-0.0327259526,-0.165256485
101801.916730,-0.327376682,-0.0920654125,0.947622358,-0.0680130199,0.00934160687,-0.169309273
101801.926757,-0.365935253,-0.133427058,0.83258655,-0.099767223,0.0449187756,-0.160069168
101801.936785,-0.365613766,-0.216885678,0.69388462,-0.131858319,0.075087063,-0.143482745
101801.946813,-0.352685311,-0.166595168,0.540246256,-0.16394487,0.0951545164,-0.136688218
101801.956841,-0.429201564,-0.111548404,0.324947555,-0.187140211,0.108884178,-0.137712464
101801.966869,-0.430425553,-0.0197638541,0.18653511,-0.204722673,0.136254549,-0.143938407
101801.976897,-0.308085121,0.0467825017,0.145370156,-0.198649853,0.169385344,-0.142835855
101801.986925,-0.12616905,0.0286105929,-0.0202568983,-0.16257681,0.190151602,-0.129679576
101801.996953,0.137326988,-0.027703415,-0.22422362,-0.130978137,0.193608925,-0.109470978
101802.006980,0.472096703,-0.0304527137,-0.322610344,-0.113182627,0.176703975,-0.0912597477
101802.017008,0.741808547,-0.0116343237,-0.400064609,-0.105874918,0.137194648,-0.0770730898
101802.027036,0.924737595,-0.0247243992,-0.498311341,-0.0876892507,0.0810781121,-0.0440245941
101802.037064,1.08582131,-0.073800857,-0.606449352,-0.083681196,0.0228691343,0.00306542078
101802.047092,1.06911976,-0.0692146983,-0.519236055,-0.106614478,-0.0125620943,0.0594088547
101802.057120,0.994808325,-0.0969277578,-0.321878377,-0.133749157,-0.0465970263,0.124582
101802.067148,0.890109934,-0.0313917481,-0.267266204,-0.162424207,-0.0925623849,0.187095448
101802.077176,0.713985305,0.10722791,-0.229919055,-0.19222711,-0.157852963,0.226566687
101802.087203,0.490893173,0.267030057,-0.256495804,-0.217024878,-0.235962152,0.247629896
101802.097231,0.320173034,0.453913981,-0.240444102,-0.223528042,-0.306118876,0.24886027
101802.107259,0.15641572,0.570134176,-0.162323482,-0.208802089,-0.368269861,0.232164919
101802.117287,-0.0233212544,0.735369454,-0.0537818591,-0.173912555,-0.398355603,0.19573234
101802.127315,-0.132782331,0.824369926,0.242297183,-0.13306579,-0.383444577,0.140671492
101802.137343,-0.272851895,0.890790609,0.544388178,-0.0719715431,-0.334970236,0.0724373013
101802.147371,-0.344180517,0.913111747,0.77440631,-0.0255784784,-0.247669414,0.00102490652
101802.157398,-0.405250195,0.834670663,1.0799739,0.0315031819,-0.152840361,-0.0598432347
101802.167426,-0.494546435,0.732533061,1.16021151,0.0679927543,-0.0408488587,-0.110176183
101802.177454,-0.489105121,0.551828704,1.35835361,0.0601856932,0.0774120018,-0.15837726
101802.187482,-0.507820927,0.425581328,1.47183036,0.0506869964,0.156904712,-0.203975648
101802.197510,-0.485602666,0.352853945,1.25705407,0.0411968231,0.219503909,-0.242408797
101802.207538,-0.417791112,0.200373812,1.18751526,0.0266450457,0.272793472,-0.271430612
101802.217566,-0.376920757,0.0148828041,1.13793786,0.0195605047,0.317886919,-0.285377562
101802.227594,-0.3507295,-0.164233408,1.05442854,-0.00258341478,0.355975449,-0.293767571
101802.237621,-0.392622769,-0.349715355,1.07909463,-0.0321350805,0.393752605,-0.301625878
101802.247649,-0.42505555,-0.497164216,1.03011184,-0.0700470433,0.433477372,-0.303564399
101802.257677,-0.43394379,-0.64057637,1.00170744,-0.0980576351,0.480061412,-0.304948419
101802.267705,-0.379938644,-0.788382082,0.929331937,-0.117564224,0.522163868,-0.299261779
101802.277733,-0.266486452,-0.920171602,0.801280434,-0.114548996,0.549595475,-0.282223403
101802.287761,-0.111935357,-1.03250093,0.544157731,-0.0907805488,0.561453998,-0.256992102
101802.297789,0.110976157,-1.05721919,0.194999425,-0.0521490015,0.540733814,-0.218064651
101802.307817,0.244787246,-1.10077688,-0.18869974,-0.0307960436,0.490615785,-0.177970767
101802.317844,0.255426713,-1.07626467,-0.389872593,-0.0488813035,0.431193203,-0.146585137
101802.327872,0.178549225,-1.02205318,-0.479889403,-0.0620242693,0.369888812,-0.127236739
101802.337900,0.0360579863,-0.996753907,-0.65499331,-0.0635611787,0.311812997,-0.103496537
101802.347928,-0.0119037883,-0.961568319,-0.758581256,-0.0409991443,0.263379693,-0.07407552
101802.357956,-0.0655506228,-0.903013547,-0.853272049,-0.00660095876,0.215357289,-0.0518093705
101802.367984,-0.192599378,-0.894652838,-0.910774098,0.0216554459,0.172979474,-0.0411013328
101802.378012,-0.272222365,-0.827435159,-0.843653303,0.0395992957,0.138621494,-0.0363862067
101802.388039,-0.307495923,-0.756591105,-0.813395527,0.0722792074,0.104656346,-0.0349126793
101802.398067,-0.317510537,-0.736385645,-0.837852946,0.113721728,0.070936732,-0.0322684273
101802.408095,-0.234283972,-0.706053635,-0.810680131,0.147659183,0.0364434719,-0.0283868685
101802.418123,-0.116295306,-0.634846302,-0.707527215,0.159368038,0.00221599266,-0.030254811
101802.428151,0.0548544567,-0.572969984,-0.600818068,0.164618984,-0.0386147946,-0.0259109288
101802.438179,0.26911797,-0.526217877,-0.555105826,0.16061306,-0.081486091,-0.0160489753
101802.448207,0.4698083,-0.461654804,-0.471494645,0.141019121,-0.139617845,-0.00167802628
101802.458235,0.552021304,-0.421261127,-0.391509108,0.120625973,-0.201161906,0.0124439178
101802.468262,0.606933043,-0.342852483,-0.345052624,0.111583203,-0.263172269,0.0274596196
101802.478290,0.574273467,-0.27948242,-0.230107417,0.106208414,-0.308016419,0.0427874438
101802.488318,0.561016511,-0.231859083,-0.00480579285,0.0967997313,-0.335752457,0.0603179671
101802.498346,0.5548311,-0.130429922,0.217107943,0.0820040107,-0.346603513,0.0727914125
101802.508374,0.53936582,-0.0459480967,0.3743436,0.09286917,-0.341628999,0.098425135
101802.518402,0.531048658,-0.012997721,0.426923098,0.117994502,-0.324979156,0.133580193
101802.528430,0.486167314,0.0176803259,0.508288253,0.131350517,-0.291552246,0.16781354
101802.538457,0.459618914,0.137825585,0.649180678,0.131966233,-0.248349115,0.199445501
101802.548485,0.47916065,0.249297125,0.728146225,0.121610008,-0.204934269,0.230363205
101802.558513,0.45321197,0.377130601,0.707882312,0.102029383,-0.172719881,0.259457678
101802.568541,0.381036376,0.493946423,0.646371904,0.0761085674,-0.164878726,0.286721528
101802.578569,0.305889073,0.595687427,0.528352259,0.0472934321,-0.178029686,0.313965946
101802.588597,0.222611655,0.710945791,0.446780622,0.000717674266,-0.205794469,0.333124459
101802.598625,0.157028299,0.871304403,0.50486237,-0.0713160411,-0.226999089,0.340516865
101802.608652,0.0825847597,1.00690618,0.592637538,-0.132595643,-0.24326621,0.338996202
101802.618680,0.0543061752,1.15129419,0.558679739,-0.166239887,-0.262043357,0.328094274
101802.628708,0.0414297425,1.25518886,0.493212556,-0.183936596,-0.283703893,0.305460066
101802.638736,-0.0310188231,1.36914462,0.507005519,-0.199591994,-0.290421456,0.259213746
101802.648764,-0.134370477,1.44208827,0.553008999,-0.163930669,-0.310499817,0.199156016
101802.658792,-0.259427181,1.50686411,0.423917048,-0.129422486,-0.306745291,0.135204196
101802.668820,-0.270021641,1.47067256,0.616227818,-0.106610112,-0.270858943,0.0633289367
101802.678847,-0.312282573,1.3669021,0.811087981,-0.0821063668,-0.236268491,0.000713491812
101802.688875,-0.297140534,1.22103028,0.838979027,-0.0564225763,-0.197026819,-0.0452412181
101802.698902,-0.205309807,1.03128629,0.93578462,-0.063824296,-0.162529558,-0.0841433406
101802.708930,-0.134248311,0.857534529,1.04516123,-0.101408958,-0.137667343,-0.114055693
101802.718958,0.0203822783,0.681392072,1.08594128,-0.146308795,-0.127172902,-0.137373537
101802.728986,0.160247845,0.517021594,1.03432084,-0.171145439,-0.133901104,-0.146854386
101802.739014,0.252176187,0.332487157,0.915524361,-0.182019651,-0.14483285,-0.156282246
101802.749041,0.253934429,0.273052971,0.94128541,-0.189491957,-0.139642343,-0.175408542
101802.759069,0.170294023,0.227552326,1.07631493,-0.185376301,-0.104632959,-0.199660078
101802.769097,0.129017425,0.141953187,1.22543714,-0.169637561,-0.027970938,-0.215417743
101802.779125,0.113579617,-0.0232066881,1.37863769,-0.146580979,0.0731447637,-0.219679862
101802.789153,0.0752723909,-0.198803201,1.46479081,-0.130651534,0.186004996,-0.217616707
101802.799181,0.0603162293,-0.328267786,1.46975194,-0.117712565,0.283403456,-0.20963335
101802.809209,0.0886105959,-0.449830803,1.293218,-0.0980235487,0.349375278,-0.194015503
101802.819237,0.104796007,-0.493882126,1.00568409,-0.0724603981,0.392528355,-0.179777458
101802.829264,0.122724462,-0.54196139,0.766348091,-0.0408526696,0.416518122,-0.162583023
101802.839292,0.187592364,-0.556896801,0.49290276,0.00031473799,0.408368558,-0.139736027
101802.849320,0.277208922,-0.582936666,0.1543734,0.047938183,0.378367007,-0.107232675
101802.859348,0.285368263,-0.678202921,-0.0743932699,0.0706418976,0.335823536,-0.0767251104
101802.869376,0.218593651,-0.677141429,-0.158202603,0.0714256689,0.277787119,-0.0472582951
101802.879404,0.118730424,-0.696774058,-0.226184691,0.0586843044,0.206826389,-0.0207851417
101802.889432,0.0640595075,-0.717365887,-0.299091668,0.0605479851,0.127756596,0.00970751978
101802.899459,-0.0307920286,-0.700506522,-0.369791344,0.0720190182,0.04516479,0.0415698439
101802.909487,-0.232063374,-0.706861737,-0.294583835,0.0732219666,-0.0209974498,0.0681311488
101802.919515,-0.476438532,-0.706110918,-0.0427682976,0.0498804264,-0.0614636466,0.0870102942
101802.929543,-0.733707074,-0.630312165,0.301090294,0.00326711824,-0.0593509637,0.0921547264
101802.939571,-0.906407573,-0.527998038,0.613570874,-0.0390190855,-0.0125632193,0.094908163
101802.949599,-0.985427918,-0.442927892,0.786841428,-0.0486738421,0.073236376,0.0961566567
101802.959627,-0.981278397,-0.313780995,0.83131463,-0.0329793021,0.168555424,0.0965140611
101802.969654,-0.900896701,-0.169696934,0.670202862,0.00268468494,0.228168696,0.0902649462
101802.979682,-0.813863145,0.0103068745,0.309269509,0.0361193419,0.251320094,0.0680099726
101802.989710,-0.708193862,0.200243171,0.0705041536,0.0433421023,0.253316671,0.0282865297
101802.999738,-0.555177722,0.355880307,-0.0332949514,0.0496897437,0.246666208,-0.0116212051
101803.009766,-0.360937006,0.444279014,-0.153173377,0.0584749803,0.242805153,-0.0459352359
101803.019794,-0.143754391,0.46324032,-0.241581582,0.0876709521,0.230009735,-0.0641643107
101803.029821,0.0225444248,0.443203494,-0.392366456,0.118036844,0.205129147,-0.0775778443
101803.039849,0.110442488,0.433845591,-0.463177337,0.129121453,0.166372165,-0.0897849798
101803.049877,0.172877025,0.425053212,-0.439365523,0.1301433,0.111573376,-0.102275476
101803.059905,0.265845816,0.380215415,-0.444851553,0.118313812,0.0511502475,-0.107656121
101803.069933,0.34772272,0.28824148,-0.366435311,0.0815158486,-0.00194306602,-0.111896947
101803.079961,0.415789709,0.187328744,-0.214633515,0.0614289604,-0.0561059043,-0.100979581
101803.089989,0.496070868,0.0468392003,-0.168340405,0.0408925265,-0.109776855,-0.0763264298
101803.100016,0.544451161,-0.0390834716,-0.0136284201,0.00172994181,-0.154032201,-0.0601378717
101803.110044,0.490091209,-0.0607020137,0.175057876,-0.0433131643,-0.196394041,-0.0518887341
101803.120072,0.450378208,-0.0287424026,0.282056946,-0.0760793686,-0.226228371,-0.0514019057
101803.130100,0.401200043,-0.0198281515,0.370755805,-0.0929371789,-0.244033739,-0.0590198822
101803.140128,0.32982992,-0.000878244139,0.436097753,-0.0855274647,-0.248146981,-0.0650932193
101803.150156,0.188836811,-0.0428194433,0.441400244,-0.048028294,-0.239597172,-0.0753210932
101803.160184,-0.0207610485,-0.115149351,0.440706416,0.0068709082,-0.215171188,-0.0858304501
101803.170211,-0.226045721,-0.177336927,0.533364534,0.0468031466,-0.174592614,-0.0987550467
101803.180239,-0.407068058,-0.306539646,0.653950231,0.0650564507,-0.128617391,-0.104281634
101803.190267,-0.519312628,-0.458354886,0.698189185,0.0673470348,-0.100334615,-0.0986351967
101803.200295,-0.501601614,-0.581491144,0.671635233,0.0532868765,-0.086516805,-0.0756087154
101803.210323,-0.433238272,-0.626679946,0.580733749,0.0443104245,-0.0939062759,-0.0502684638
101803.220351,-0.418242363,-0.57442369,0.372639719,0.0664705858,-0.110459954,-0.0243244842
101803.230379,-0.468609445,-0.490172458,0.221892693,0.095158428,-0.118542112,0.00325361546
101803.240406,-0.508861376,-0.361831325,0.271062089,0.110454299,-0.115848243,0.0213044286
101803.250434,-0.623672581,-0.241078747,0.379606051,0.114923082,-0.119887725,0.0373614281
101803.260462,-0.712006698,-0.235299871,0.411130632,0.116678633,-0.142015114,0.0563873164
101803.270490,-0.709964963,-0.233528478,0.333558001,0.116372108,-0.18152231,0.0654607043
101803.280518,-0.72496438,-0.161663557,0.292794029,0.116521508,-0.222788796,0.0634851754
101803.290546,-0.744073569,-0.117484808,0.329462841,0.123867303,-0.261154562,0.0574176945
101803.300573,-0.67617083,-0.0573331218,0.36722047,0.155170888,-0.290344954,0.0585537963
101803.310601,-0.505918309,0.020956571,0.41150984,0.19785364,-0.3072595,0.0729806721
101803.320629,-0.306512173,0.0520548891,0.533227317,0.219533369,-0.317188025,0.0906432867
101803.330657,-0.208822783,0.0723228934,0.693402682,0.218715519,-0.320563585,0.112203978
101803.340685,-0.107143447,0.0641737815,0.776623255,0.203166381,-0.330632985,0.135055482
101803.350713,-0.0100192897,0.0666208824,0.715590987,0.178566501,-0.343715489,0.151854455
101803.360741,0.0300368263,0.108473819,0.668380907,0.12339513,-0.356966317,0.154007614
101803.370768,0.0469622422,0.200435771,0.708342331,0.0797839984,-0.364071369,0.155692071
101803.380796,0.181566527,0.248860195,0.600203443,0.067674078,-0.367069811,0.154329598
101803.390824,0.37329906,0.326487332,0.503233161,0.0689318851,-0.364663661,0.145883113
101803.400852,0.485204606,0.369687883,0.470008791,0.0778404251,-0.361246824,0.120098919
101803.410880,0.611000147,0.401081093,0.426043538,0.109197281,-0.352698594,0.0858051255
101803.420908,0.740201696,0.449827296,0.366787924,0.162266359,-0.33397311,0.0352841616
101803.430936,0.75697689,0.507376983,0.359756272,0.227292493,-0.298818856,-0.0263941176
101803.440963,0.641041065,0.522880257,0.470152145,0.290879726,-0.230027542,-0.0921305194
101803.450991,0.40147886,0.422918246,0.725841747,0.334475398,-0.118178241,-0.158701837
101803.461019,0.121719085,0.263024913,1.08528705,0.344210058,0.0326288491,-0.212177038
101803.471047,-0.0980137995,-0.00582008446,1.43338913,0.293228894,0.198572814,-0.256567419
101803.481075,-0.249326643,-0.254646377,1.72695341,0.176729977,0.353110969,-0.279900163
101803.491103,-0.29701603,-0.441989149,1.88247262,0.0487696268,0.496158153,-0.287053674
101803.501130,-0.310690336,-0.526994999,1.9068577,-0.0581035614,0.648331463,-0.286975116
101803.511158,-0.28174072,-0.507079169,1.85984052,-0.108396292,0.802154303,-0.278397352
101803.521186,-0.194040809,-0.450268025,1.77213724,-0.125437602,0.946743727,-0.275558412
101803.531214,-0.0874497354,-0.313611484,1.72367395,-0.12714842,1.07647562,-0.281544924
101803.541242,0.00562017797,-0.171243871,1.71440563,-0.134072632,1.19673562,-0.300247788
101803.551270,0.0602414105,-0.0437131773,1.7326468,-0.129653126,1.27923024,-0.334138632
101803.561298,0.0187923788,0.132642045,1.61474873,-0.141180083,1.3543905,-0.384432703
101803.571325,0.00189092831,0.272723301,1.63123021,-0.157504991,1.42327297,-0.44415009
101803.581353,-0.0846305863,0.35073593,1.58179368,-0.167899579,1.48827481,-0.498207748
101803.591381,-0.109863227,0.314276085,1.47568952,-0.183516622,1.55247617,-0.53751862
101803.601409,-0.0468225415,0.259912627,1.43628193,-0.19199799,1.60716927,-0.551899731
101803.611437,0.145165427,0.219959094,1.26369892,-0.198051348,1.63989449,-0.545142472
101803.621465,0.343207288,0.204249484,1.02220224,-0.197615132,1.64629054,-0.53475827
101803.631492,0.467701683,0.354233417,0.774395642,-0.171125725,1.62482047,-0.538794816
101803.641520,0.60856269,0.620838235,0.405597693,-0.148053959,1.54261076,-0.581525505
101803.651548,0.608891776,1.04376686,-0.062325231,-0.110338002,1.40572798,-0.655677259
101803.661576,0.530749967,1.30260805,-0.531883648,-0.0694169328,1.24829531,-0.737921
101803.671604,0.432474302,1.47505472,-0.751345898,-0.0426305942,1.10732055,-0.834774017
101803.681632,0.125244336,1.56872421,-0.787578657,-0.0478850119,0.99110055,-0.942456543
101803.691659,-0.238664379,1.63231625,-0.704649906,-0.0599872135,0.929696321,-1.0254401
101803.701687,-0.342117739,1.57509696,-0.446095124,-0.0759952068,0.930675566,-1.06985521
101803.711715,-0.503019665,1.42525711,-0.243318342,-0.0748969242,0.979337633,-1.07069194
101803.721743,-0.418055316,1.26171008,-0.126174895,-0.0401410721,1.04997289,-1.03062975
101803.731771,-0.265141467,1.14601318,-0.12903613,-0.000266893447,1.12374771,-0.964461207
101803.741799,-0.0429044912,1.03723044,-0.11275778,0.0300643817,1.17339993,-0.878365695
101803.751827,0.191868141,0.981092519,-0.163064072,0.0321136825,1.18328905,-0.792752028
101803.761854,0.29902211,1.03857367,-0.206551039,0.0116438279,1.15799356,-0.72009033
101803.771882,0.373345821,1.08479123,-0.253619956,-0.0116668213,1.11105084,-0.665492356
101803.781910,0.353700625,1.07639224,-0.268598622,-0.0345151424,1.06135201,-0.616140246
101803.791938,0.314565716,1.00835652,-0.173809337,-0.0564036667,1.00966144,-0.589056134
101803.801966,0.234302092,1.00219098,-0.136759417,-0.0558766238,0.953567028,-0.575838327
101803.811994,0.188718737,0.934469446,-0.148220723,-0.0386494361,0.894383609,-0.568884313
101803.822021,0.185157245,0.818600987,-0.17570085,-0.0160844717,0.833570063,-0.562241852
101803.832049,0.266720261,0.65536112,-0.137384856,0.00360907125,0.771502137,-0.55124402
101803.842077,0.337020124,0.513929108,-0.081364278,0.0141059207,0.698876143,-0.533600092
101803.852105,0.407669531,0.343024041,-0.0208697695,0.0240874495,0.631285906,-0.506704569
101803.862133,0.487908605,0.190160753,0.0517132361,0.0435306542,0.567875266,-0.480003685
101803.872161,0.530503299,0.0951666664,0.10434651,0.0787490979,0.498375773,-0.450077206
101803.882188,0.54628013,-0.0245889362,0.0564835192,0.123568229,0.428694427,-0.424075991
101803.892216,0.536356117,-0.126090578,0.0623275691,0.159728095,0.368067563,-0.405634105
101803.902244,0.51853346,-0.228180687,0.132740245,0.19444479,0.313115358,-0.389900684
101803.912272,0.499617747,-0.284195054,0.204945065,0.219742164,0.27567932,-0.377151608
101803.922300,0.502091444,-0.328870939,0.291720262,0.220303819,0.236902371,-0.378729016
101803.932328,0.388277433,-0.345309156,0.288870718,0.209563032,0.193855569,-0.386835128
101803.942356,0.328471491,-0.363254416,0.28251112,0.18091248,0.163255036,-0.397608697
101803.952383,0.383979444,-0.433472519,0.344815308,0.163957998,0.158072531,-0.390297502
101803.962411,0.471932452,-0.623569705,0.398968338,0.15751341,0.161924794,-0.372052997
101803.972439,0.409840446,-0.750206008,0.404707174,0.162295654,0.171948135,-0.346844047
101803.982467,0.408560343,-0.87760175,0.428139488,0.150703177,0.187417641,-0.324467361
101803.992495,0.323231837,-0.936124154,0.506859973,0.116732433,0.203577161,-0.304866761
101804.002523,0.184352359,-1.03823421,0.618981793,0.061670512,0.234609112,-0.284898371
101804.012550,0.056702715,-1.15415148,0.748168145,-0.00671547186,0.271140754,-0.269942611
101804.022578,-0.121568863,-1.22211201,0.806049256,-0.0714348108,0.315576375,-0.252561748
101804.032606,-0.208561502,-1.25608786,0.801950589,-0.1286017,0.361933231,-0.227626294
101804.042634,-0.279692555,-1.2825024,0.782703452,-0.181352526,0.415351987,-0.197856426
101804.052662,-0.343788888,-1.24125518,0.677779435,-0.21437946,0.447351456,-0.158658952
101804.062690,-0.301939458,-1.1912597,0.314498496,-0.205153465,0.440733522,-0.107544363
101804.072717,-0.193045953,-1.10216337,-0.151606273,-0.161209181,0.397475779,-0.0682667345
101804.082745,-0.18256606,-0.874119022,-0.642853083,-0.0809204578,0.318636626,-0.0377048291
101804.092773,-0.141674662,-0.653006666,-1.07163438,0.0034271772,0.213561624,-0.0160927437
101804.102801,-0.137481302,-0.469605361,-1.2993039,0.0776816979,0.0862705037,-0.0107072983
101804.112829,-0.263020237,-0.273496988,-1.39170746,0.137638509,-0.03397521,-0.0163425487
101804.122857,-0.248473241,-0.168101518,-1.34301912,0.1804142,-0.139660627,-0.0190744177
101804.132884,-0.266624984,-0.131349887,-1.18537123,0.212009147,-0.217174858,-0.0260782652
101804.142912,-0.265311563,-0.114385929,-0.935769861,0.247100011,-0.269330472,-0.0162804965
101804.152940,-0.139763275,-0.153538557,-0.666958181,0.271400839,-0.297851592,0.0115247695
101804.162968,-0.0263093303,-0.219281049,-0.357962959,0.258296221,-0.304075956,0.0468958095
101804.172996,0.0775257228,-0.225816588,-0.00290448927,0.211778507,-0.313108861,0.0833709985
101804.183024,0.19528701,-0.202192844,0.167478381,0.138719216,-0.338308483,0.120906919
101804.193051,0.301257321,-0.139677424,0.298906374,0.041119162,-0.362603158,0.147154242
101804.203079,0.336521527,-0.00830704243,0.388786552,-0.0524499342,-0.39996466,0.153412133
101804.213107,0.325833544,0.167309308,0.349684375,-0.119864665,-0.434502125,0.149475992
101804.223135,0.362878203,0.259773218,0.330344884,-0.159301296,-0.453132004,0.141800225
101804.233163,0.385384634,0.355862297,0.361926017,-0.165001526,-0.450759381,0.128245801
101804.243191,0.348660293,0.422115624,0.461210567,-0.157579198,-0.414109617,0.111873135
101804.253219,0.290226809,0.462734854,0.624972558,-0.138162628,-0.354009509,0.0985384136
101804.263246,0.243145909,0.494402204,0.72250062,-0.101662144,-0.275165558,0.0847866535
101804.273274,0.231411047,0.503220265,0.790140324,-0.0695390925,-0.190491408,0.0691536218
101804.283302,0.183191498,0.499816192,0.836594617,-0.0431335792,-0.126114026,0.0487839058
101804.293330,0.137681209,0.497811428,0.810557673,-0.0290273502,-0.0811974183,0.0268407911
101804.303358,0.0777501792,0.481091691,0.765049722,-0.0152699919,-0.0520379394,-0.00421938952
101804.313386,-0.0431231024,0.428846065,0.667310063,0.0140029425,-0.0371407457,-0.0300536491
101804.323413,-0.169296828,0.291020699,0.569596123,0.0413054042,-0.0310500972,-0.0587153919
101804.333441,-0.30960897,0.164506818,0.537431637,0.0644136518,-0.0330903456,-0.0861816406
101804.343469,-0.49285366,-0.0160394633,0.488968343,0.0869272128,-0.0428849198,-0.103612021
101804.353497,-0.622280835,-0.232566135,0.457212438,0.0991276875,-0.0576446913,-0.105140939
101804.363525,-0.671090751,-0.473053967,0.507986932,0.090416491,-0.0764125213,-0.0880013704
101804.373553,-0.682616353,-0.656292264,0.620784459,0.0587602928,-0.0843567327,-0.0593236573
101804.383580,-0.681909082,-0.774082923,0.780167211,0.00459718984,-0.0804807618,-0.0223496594
101804.393608,-0.637343379,-0.808502202,0.959716554,-0.0711540356,-0.0622050911,0.0140743963
101804.403636,-0.572499443,-0.747449768,1.10142336,-0.154487267,-0.0297542028,0.0498699434
101804.413664,-0.424673273,-0.65591817,1.16592886,-0.224800318,0.0116848499,0.0873344988
101804.423692,-0.207760122,-0.528157942,1.08718733,-0.271138519,0.0476457775,0.122735098
101804.433720,0.0261363118,-0.378485997,0.882484846,-0.278885126,0.0752739459,0.148625284
101804.443747,0.243872469,-0.203960036,0.680319767,-0.248839602,0.0982562229,0.162605286
101804.453775,0.336526203,-0.11289222,0.500111084,-0.190979242,0.110472679,0.172122359
101804.463803,0.367974065,-0.0563603313,0.327523981,-0.133036047,0.113573931,0.170177981
101804.473831,0.332940161,0.00508950516,0.222023041,-0.0817145333,0.104803078,0.173108518
101804.483859,0.270353064,-0.0716042968,0.125128016,-0.0384900905,0.0799224898,0.182740375
101804.493887,0.280057297,-0.103968397,0.0519669186,-0.0128550371,0.0351235941,0.195974156
101804.503914,0.216074362,-0.0864130858,0.0326443785,-0.0160790607,-0.0161084309,0.207333878
101804.513942,0.154472184,-0.0891157689,0.108956634,-0.0279620849,-0.0627805963,0.226486534
101804.523970,0.102221188,-0.0666924132,0.201640763,-0.0487829447,-0.100663528,0.245818421
101804.533998,0.0325058468,0.0125815414,0.28026714,-0.0778225884,-0.124788843,0.254451036
101804.544026,-0.127995681,0.152969452,0.357571914,-0.114587262,-0.148547158,0.228639156
101804.554054,-0.308945538,0.410582131,0.345195832,-0.129626662,-0.16326192,0.180194125
101804.564081,-0.407614002,0.56260831,0.309800109,-0.124503538,-0.155055121,0.124082118
101804.574109,-0.450699695,0.648214683,0.314279884,-0.0777195245,-0.122306243,0.0706876069
101804.584137,-0.442969393,0.619212387,0.271272517,-0.00125111162,-0.0714694262,0.0338552892
101804.594165,-0.382905092,0.536270338,0.288346986,0.0801681131,-0.00378625188,0.00377675146
101804.604193,-0.383866046,0.423212772,0.36670916,0.153375208,0.063112624,-0.0213925168
101804.614221,-0.444933386,0.299540654,0.392830859,0.195587382,0.126705453,-0.0392924212
101804.624248,-0.357856576,0.235081552,0.423122536,0.2163627,0.179060802,-0.0531227514
101804.634276,-0.241317524,0.131120681,0.37202714,0.217704669,0.200979412,-0.0536710955
101804.644304,-0.116601596,0.0396810722,0.267022459,0.205903143,0.195528194,-0.0462211668
101804.654332,-0.0493359856,-0.0640357613,0.154313194,0.174601406,0.168668613,-0.0344100483
101804.664360,-0.037492403,-0.164047895,0.105151396,0.135590896,0.127053797,-0.0196316354
101804.674388,-0.00557867692,-0.276697538,0.0409188704,0.0951819494,0.0661297143,-0.00275571644
101804.684415,0.0257721546,-0.346806993,-0.0307277312,0.058968287,-0.00335135777,0.00333147077
101804.694443,-0.0164835173,-0.388371103,-0.0645814855,0.0275808014,-0.0613321066,0.0126277674
101804.704471,-0.0450116926,-0.496573776,0.0503577298,-0.00617662817,-0.0945776775,0.0259957705
101804.714499,-0.0454547602,-0.605763488,0.247481892,-0.0383952819,-0.0982562974,0.0467612371
101804.724527,-0.096866383,-0.724142615,0.417499436,-0.0693769082,-0.0762830898,0.0680609345
101804.734555,-0.174283969,-0.785290838,0.55874389,-0.102995321,-0.0382994898,0.0905468017
101804.744582,-0.217798701,-0.805787098,0.660688599,-0.14086014,0.00805895589,0.12073639
101804.754610,-0.23556466,-0.819452124,0.745616707,-0.196618482,0.0507986955,0.152614966
101804.764638,-0.228151169,-0.774171916,0.77721596,-0.271610707,0.0749168172,0.191430807
101804.774666,-0.250978502,-0.686829295,0.7806699,-0.36519444,0.0853883624,0.219231814
101804.784694,-0.308947291,-0.57474788,0.748331227,-0.463118076,0.0878541842,0.230127066
101804.794722,-0.418976523,-0.462745814,0.698475601,-0.541693032,0.0950316712,0.226091579
101804.804749,-0.47015609,-0.350713499,0.610581629,-0.573009968,0.11747466,0.219739139
101804.814777,-0.455293452,-0.257166908,0.444686133,-0.54694587,0.152253956,0.214188322
101804.824805,-0.481737807,-0.120059554,0.225559983,-0.468875825,0.207260743,0.202872545
101804.834833,-0.528502481,-0.00648074032,0.0294616568,-0.362718493,0.265599668,0.191833213
101804.844861,-0.50072717,0.111154217,-0.160797296,-0.230604678,0.317585915,0.17962794
101804.854889,-0.528540475,0.209901738,-0.340464127,-0.112568051,0.367009908,0.171926349
101804.864916,-0.547976412,0.234587193,-0.383362773,-0.0360343903,0.397205114,0.161162645
101804.874944,-0.492767735,0.406421139,-0.424210332,-0.00222769286,0.394374967,0.143924534
101804.884972,-0.349640536,0.560192408,-0.524068882,0.0193923824,0.353341788,0.12497668
101804.895000,-0.165356566,0.626266251,-0.702290191,0.0398494527,0.277389228,0.123348683
101804.905028,0.0420253703,0.601562822,-0.83123572,0.0436836071,0.179359615,0.126966864
101804.915056,0.218770177,0.636240971,-0.857046453,0.0305323824,0.0669478402,0.131142423
101804.925083,0.345654681,0.677384152,-0.837754892,0.0111022275,-0.0502829142,0.13631402
101804.935111,0.417131772,0.675027506,-0.725112848,-0.00506635616,-0.148687243,0.137036547
101804.945139,0.405595063,0.735762691,-0.558057077,-0.00219466956,-0.214987963,0.128469944
101804.955167,0.37623336,0.757143479,-0.404904158,0.0221780464,-0.263055652,0.123765469
101804.965195,0.35120647,0.735901223,-0.314024448,0.0704707429,-0.309241235,0.127322391
101804.975223,0.319252997,0.648505555,-0.220859258,0.110675156,-0.356448174,0.130446807
101804.985250,0.323420053,0.654606941,-0.0281119958,0.126187801,-0.421715856,0.122177437
101804.995278,0.333271001,0.68738006,0.154248312,0.118228413,-0.494210839,0.110883236
101805.005306,0.34206221,0.650878276,0.387397728,0.0926112011,-0.551296473,0.103998959
101805.015334,0.266442613,0.573757481,0.661794514,0.0588804036,-0.577014863,0.100812748
101805.025362,0.0737602327,0.435945047,0.955060837,0.0124274166,-0.57088691,0.102089733
101805.035390,-0.148986446,0.331333749,1.1942887,-0.0515196063,-0.524554312,0.10466449
101805.045417,-0.330523748,0.292374196,1.46250183,-0.127487347,-0.444604397,0.0997506827
101805.055445,-0.475112251,0.241307587,1.62566059,-0.202820182,-0.345314026,0.102643937
101805.065473,-0.478423568,0.19271073,1.62622933,-0.25322023,-0.25692293,0.118629307
101805.075501,-0.495439,0.225780494,1.41810505,-0.291134596,-0.20760408,0.117577359
101805.085529,-0.615527269,0.329147053,1.12033323,-0.3073394,-0.209555924,0.0917891711
101805.095557,-0.605821867,0.450135631,0.782982853,-0.286761433,-0.246292368,0.0551635101
101805.105584,-0.566670007,0.461591383,0.50725511,-0.244308233,-0.28320086,-0.011587292
101805.115612,-0.625516163,0.550755814,0.482988684,-0.190498799,-0.277579725,-0.0990630835
101805.125640,-0.721160311,0.540178159,0.604490326,-0.112708934,-0.221647739,-0.187227815
101805.135668,-0.875392257,0.33456937,0.724396224,-0.0205547698,-0.112200081,-0.253137618
101805.145696,-1.03944066,0.0348787134,0.893846782,0.0689657927,0.0496263728,-0.298364729
101805.155724,-1.12328974,-0.210233965,1.05905196,0.135168239,0.231826812,-0.324470103
101805.165751,-1.07735451,-0.404732601,1.11592068,0.176020607,0.404014796,-0.327560723
101805.175779,-0.847355665,-0.520311137,1.0204098,0.191195294,0.537441611,-0.317908883
101805.185807,-0.575768674,-0.540901798,0.749779087,0.195883259,0.613168299,-0.296143413
101805.195835,-0.325033334,-0.600287468,0.38975452,0.19678846,0.627054572,-0.265523434
101805.205863,0.00211830733,-0.575443388,-0.0217956522,0.191977471,0.569668531,-0.229394987
101805.215891,0.326872239,-0.555624223,-0.443152348,0.167107537,0.452541053,-0.201163873
101805.225918,0.568718171,-0.470163762,-0.72294018,0.117211886,0.300129414,-0.179868177
101805.235946,0.73833298,-0.413059554,-0.840337895,0.0471007079,0.136881396,-0.162208214
101805.245974,0.825270674,-0.36612851,-0.835627233,-0.0152569637,-0.012480448,-0.141101122
101805.256002,0.787966487,-0.3469304,-0.756374832,-0.0687622651,-0.116253719,-0.112771213
101805.266030,0.683259327,-0.342766705,-0.514140193,-0.0971100107,-0.166993856,-0.0802766532
101805.276057,0.488259902,-0.320569851,-0.28546997,-0.0998338982,-0.179847598,-0.0514516607
101805.286085,0.312247502,-0.253950942,-0.190608497,-0.0724992082,-0.181050286,-0.0288640615
101805.296113,0.195967393,-0.183115072,-0.13638357,-0.0189006999,-0.179353848,-0.00518802833
101805.306141,0.0946773486,-0.16923633,-0.130035662,0.0408446565,-0.177644894,0.019236356
101805.316169,0.0068733929,-0.151672105,-0.0543400775,0.0750340521,-0.185662344,0.0320264548
101805.326197,-0.0528530538,-0.0627625995,0.0580295796,0.0841143653,-0.207278684,0.0318887681
101805.336224,-0.062791095,0.0738858319,0.105586281,0.0647808835,-0.243068114,0.0273491424
101805.346252,-0.0104880763,0.227238438,0.169792503,0.022292275,-0.28723371,0.0226297546
101805.356280,0.0288473243,0.36735586,0.1965034,-0.0277887341,-0.34024474,0.0287254639
101805.366308,0.0768687201,0.3944928,0.244521873,-0.0805379599,-0.38848868,0.039892897
101805.376336,0.0524509027,0.471462497,0.295564078,-0.139775187,-0.440941513,0.0406670794
101805.386364,-0.0698836836,0.65771784,0.340672217,-0.187973082,-0.485780358,0.0158560053
101805.396391,-0.207834357,0.815656969,0.314983649,-0.20913589,-0.516343057,-0.0136414338
101805.406419,-0.302208338,0.854773832,0.336843598,-0.192931354,-0.517805934,-0.0432003886
101805.416447,-0.418408952,0.852352815,0.384569811,-0.147068262,-0.49191761,-0.0765516907
101805.426475,-0.554758035,0.847844836,0.503943209,-0.0895160139,-0.439135343,-0.116205893
101805.436503,-0.624341859,0.807061356,0.627065439,-0.0342146754,-0.367325604,-0.154155135
101805.446531,-0.580540127,0.735166186,0.782247233,0.0173555743,-0.280860245,-0.193115845
101805.456558,-0.491631425,0.624149917,0.897431947,0.0606085062,-0.202955574,-0.229775324
101805.466586,-0.344563379,0.495299226,0.897861278,0.0949339941,-0.148053721,-0.264368445
101805.476614,-0.140701433,0.372067034,0.838813754,0.121678255,-0.119885735,-0.293200642
101805.486642,0.0806119983,0.205356715,0.768798845,0.136848152,-0.111793987,-0.309164435
101805.496670,0.274511938,-0.0228900233,0.75986209,0.144612595,-0.115060352,-0.304871947
101805.506698,0.420999553,-0.253757611,0.766399383,0.132487759,-0.127079993,-0.283627629
101805.516725,0.491789245,-0.440391797,0.822195212,0.091749385,-0.140158772,-0.2567963
101805.526753,0.452565489,-0.577422214,0.912283479,0.0248616934,-0.143972695,-0.225380048
101805.536781,0.406703317,-0.680471523,1.02029728,-0.051788874,-0.133998618,-0.185297608
101805.546809,0.296750657,-0.766232575,1.09626467,-0.137578353,-0.105477765,-0.155283779
101805.556837,0.157353877,-0.77006492,1.16116442,-0.21396181,-0.0607664883,-0.130903602
101805.566865,0.06061492,-0.806347801,1.10634036,-0.245733321,-0.0222028494,-0.0968364552
101805.576892,-0.029027357,-0.877085544,0.914916458,-0.24755013,0.0111037083,-0.05986619
101805.586920,-0.128673142,-0.910133242,0.748126644,-0.243032873,0.0300515667,-0.0317794234
101805.596948,-0.306260244,-0.868217981,0.615020488,-0.246106952,0.0381374545,-0.0293548834
101805.606976,-0.481460744,-0.694182945,0.538554504,-0.262938112,0.0515011959,-0.0441884249
101805.617004,-0.574138443,-0.538238058,0.46163493,-0.267634064,0.0728397742,-0.064548023
101805.627032,-0.571757101,-0.472705336,0.348172802,-0.258057088,0.119408078,-0.0759229213
101805.637059,-0.506675264,-0.453385938,0.297958864,-0.231133074,0.181877047,-0.072506085
101805.647087,-0.463113186,-0.44635677,0.232536252,-0.20632866,0.245180398,-0.0594201088
101805.657115,-0.34749008,-0.380156963,0.145332892,-0.188875094,0.305232286,-0.0483227149
101805.667143,-0.311945889,-0.255655919,0.0308835063,-0.168951184,0.344675303,-0.0407132655
101805.677171,-0.193742118,-0.173286117,-0.178981772,-0.133930355,0.356417954,-0.0293375719
101805.687198,-0.0311526786,-0.102201314,-0.430069871,-0.0971560851,0.320253581,-0.0298052225
101805.697226,0.0248573779,0.0965701766,-0.738887691,-0.0686583966,0.241123065,-0.0565279126
101805.707254,0.0684597882,0.297509586,-0.967730349,-0.0448316336,0.135346308,-0.0825802907
101805.717282,0.207703424,0.38381512,-1.05773854,-0.0220363066,0.0339999683,-0.0936550424
101805.727310,0.390712551,0.367516458,-0.977222984,0.0165020302,-0.050710924,-0.0878184587
101805.737338,0.404083489,0.252006749,-0.864756297,0.0613014586,-0.114034772,-0.0699118972
101805.747365,0.365118091,0.135411072,-0.627276159,0.111222416,-0.144168168,-0.034199439
101805.757393,0.335770416,-0.0394700598,-0.377057828,0.145134836,-0.158595577,0.0121376989
101805.767421,0.281522109,-0.158946042,-0.136891519,0.154109687,-0.170100957,0.0628719851
101805.777449,0.308442849,-0.233292477,0.0657002604,0.143275425,-0.191829696,0.120843671
101805.787477,0.408938528,-0.253795459,0.170985804,0.11836262,-0.241145581,0.170159563
101805.797505,0.476156208,-0.184722946,0.145903678,0.0700392947,-0.320536286,0.204322323
101805.807532,0.493182161,-0.0581606587,0.193353411,0.0111799696,-0.414334655,0.242084354
101805.817560,0.532988686,-0.0248813433,0.319461086,-0.0513470583,-0.495211929,0.269237936
101805.827588,0.490581623,0.0748293963,0.535959227,-0.116401419,-0.553565502,0.283957779
101805.837616,0.443158778,0.196484695,0.771423933,-0.170440689,-0.577281535,0.287352502
101805.847644,0.315153745,0.269998114,0.991573581,-0.211379603,-0.557763994,0.282264262
101805.857672,0.170882052,0.294842486,1.20918787,-0.234906763,-0.498924673,0.269539684
101805.867699,-0.000716623837,0.334539705,1.35728467,-0.241411269,-0.415290475,0.253302902
101805.877727,-0.167256847,0.351291007,1.43578801,-0.232276097,-0.311792314,0.234585956
101805.887755,-0.336295317,0.329860462,1.49177234,-0.218295574,-0.208371118,0.213261232
101805.897783,-0.528286208,0.332335766,1.47580817,-0.207334533,-0.113131955,0.176544756
101805.907811,-0.708619979,0.351248702,1.41318045,-0.199691787,-0.0250681452,0.135082275
101805.917839,-0.788871911,0.368752502,1.32419605,-0.184627622,0.0516490005,0.0934216306
101805.927866,-0.795919492,0.289034676,1.21515379,-0.165484816,0.112156823,0.0449462458
101805.937894,-0.832414116,0.351332873,1.05422205,-0.135113597,0.160878032,-0.00154349208
101805.947922,-0.807716313,0.366055226,0.850771026,-0.122507781,0.184216112,-0.0700298771
101805.957950,-0.886722045,0.423356637,0.63493398,-0.103361785,0.197161198,-0.132757425
101805.967978,-0.830971516,0.324647988,0.43899932,-0.0793171674,0.224913731,-0.172657982
101805.978005,-0.691366646,0.166381672,0.378647143,-0.0409234464,0.266663045,-0.187727734
101805.988033,-0.609807138,-0.00375672219,0.26861265,-0.00196326245,0.316678286,-0.192056447
101805.998061,-0.508559178,-0.0973432068,0.177588856,0.018188877,0.353146017,-0.190923795
101806.008089,-0.470483423,-0.195230969,0.0821755944,0.010382087,0.367885798,-0.186803356
101806.018117,-0.404729971,-0.287144552,0.0320493352,-0.0216810405,0.361824453,-0.17804715
101806.028145,-0.317132936,-0.333062619,-0.073425594,-0.0634135678,0.330492884,-0.168736205
101806.038172,-0.200484578,-0.316233722,-0.226404033,-0.1035285,0.288478076,-0.156698182
101806.048200,-0.105321492,-0.331562224,-0.378123703,-0.113272741,0.238541663,-0.135829657
101806.058228,0.0422340446,-0.36373767,-0.555239097,-0.0968450308,0.172908857,-0.104904234
101806.068256,0.198266318,-0.338876346,-0.756773769,-0.0668881983,0.0882677361,-0.0718762428
101806.078284,0.229131996,-0.299627382,-0.880057618,-0.0411072038,-0.00418177154,-0.0450014845
101806.088312,0.288399593,-0.221451598,-0.832794347,-0.0319312811,-0.0946525484,-0.0246205833
101806.098339,0.334599619,-0.200573864,-0.639641135,-0.0292369612,-0.168780297,-0.00381729938
101806.108367,0.372536843,-0.235843038,-0.368518547,-0.034274064,-0.215667114,0.0226236284
101806.118395,0.4597101,-0.263812191,-0.0757189656,-0.03811967,-0.240955427,0.0547570661
101806.128423,0.540186489,-0.281684898,0.149912914,-0.0342487656,-0.267221928,0.0801734701
101806.138451,0.528674915,-0.273650937,0.270816006,-0.0262113437,-0.295858622,0.102630049
101806.148479,0.42158349,-0.279154211,0.381822558,-0.0273035057,-0.317507207,0.111114874
101806.158506,0.305067235,-0.266385549,0.613801176,-0.0325432755,-0.324165374,0.11329627
101806.168534,0.204302675,-0.273808904,0.831810305,-0.0449474826,-0.312131882,0.115588456
101806.178562,0.130431968,-0.311667802,1.0466411,-0.0607003458,-0.280084461,0.12336462
101806.188590,0.0599275222,-0.377778105,1.24998019,-0.0793041214,-0.230780289,0.131134927
101806.198618,-0.056558338,-0.410650301,1.38991531,-0.0985909998,-0.17184107,0.130944252
101806.208646,-0.236940624,-0.358649626,1.37344465,-0.117570281,-0.120921709,0.111321539
101806.218673,-0.434453493,-0.279759191,1.31117028,-0.143592834,-0.0637388453,0.0762000382
101806.228701,-0.549713611,-0.182032099,1.29239982,-0.158211187,0.000839352375,0.0368944444
101806.238729,-0.651483548,-0.142449884,1.18454179,-0.154839098,0.0759716481,-0.000625500455
101806.248757,-0.709278735,-0.11631518,1.12182639,-0.130314186,0.168086559,-0.0304197948
101806.258785,-0.693064682,-0.0886076733,1.00383451,-0.0929987654,0.253430754,-0.0552356616
101806.268813,-0.676451985,-0.0641632601,0.762304807,-0.0552734919,0.325466573,-0.0786776021
101806.278840,-0.64225687,-0.0547201628,0.564833731,-0.0219674688,0.39129594,-0.0950800106
101806.288868,-0.57889762,-0.0661592562,0.40102001,-0.00065845158,0.435464442,-0.107755326
101806.298896,-0.48199032,-0.0919093452,0.206558345,-0.0029168122,0.462964267,-0.109690115
101806.308924,-0.396073201,-0.094438133,0.0361094243,-0.0135113988,0.467645019,-0.106706575
101806.318952,-0.353059405,-0.137058547,-0.244091957,-0.00737254694,0.432529122,-0.0875698999
101806.328980,-0.342458516,-0.20006723,-0.609218524,0.00218101079,0.37618649,-0.06008102
101806.339007,-0.297214768,-0.228176157,-0.799049022,0.00188193773,0.312157691,-0.0337562039
101806.349035,-0.202217101,-0.139095605,-0.887698196,-0.0154672246,0.249210179,-0.009168569
101806.359063,-0.00260579858,-0.0102120358,-0.88944504,-0.0274546444,0.184913218,0.0159807261
101806.369091,0.269873756,0.0923407223,-0.939981341,-0.0266506374,0.105433837,0.0469932333
101806.379119,0.510060815,0.170903241,-1.04489776,-0.0162515249,0.00323928846,0.0750001073
101806.389147,0.623987639,0.223834328,-1.05690501,-0.0113425218,-0.117827214,0.101835713
101806.399174,0.610765753,0.221407247,-1.01818365,-0.0162616447,-0.248968467,0.121797703
101806.409202,0.504113889,0.195383164,-0.791354376,-0.0409251787,-0.358474463,0.134993657
101806.419230,0.334212081,0.122339409,-0.390343133,-0.0711893439,-0.446417898,0.147125423
101806.429258,0.0978010335,0.0292350084,-0.132362644,-0.0944824144,-0.505488396,0.159050524
101806.439286,-0.166862295,-0.0406831619,0.172934308,-0.138550535,-0.516708791,0.164719865
101806.449314,-0.427991019,-0.0202503225,0.589620674,-0.191503763,-0.491345942,0.162628219
101806.459341,-0.621726708,0.0455265103,0.8427584,-0.24418962,-0.43465817,0.152998224
101806.469369,-0.654633537,0.154161657,1.02787473,-0.281966835,-0.356464565,0.144950151
101806.479397,-0.624396219,0.262739521,1.05701373,-0.288956314,-0.281622291,0.133542508
101806.489425,-0.537802224,0.320711525,0.922936975,-0.266441137,-0.221102476,0.126731202
101806.499453,-0.474893056,0.345356137,0.737184979,-0.223740801,-0.17991668,0.113032974
101806.509481,-0.47308513,0.38364612,0.592431055,-0.182409868,-0.151154011,0.0820798501
101806.519508,-0.468311924,0.474708493,0.509572739,-0.127517864,-0.126418039,0.0434650779
101806.529536,-0.398320104,0.470291992,0.456487923,-0.0661607608,-0.088291958,0.00927914772
101806.539564,-0.253026667,0.429808882,0.488581097,-0.00939095579,-0.0362796262,-0.0217149872
101806.549592,-0.0693459234,0.421082263,0.533171057,0.04529972,0.00769662112,-0.0479639024
101806.559620,0.11662673,0.319313641,0.446681691,0.0922067761,0.034958601,-0.0539735928
101806.569648,0.289240136,0.155082864,0.378380308,0.124890685,0.029765971,-0.0465715975
101806.579675,0.357612246,-0.0220570796,0.286281286,0.133943573,0.00421933178,-0.0344259888
101806.589703,0.344603711,-0.129957044,0.272084418,0.112571433,-0.0323626474,-0.0258141253
101806.599731,0.288067585,-0.218691266,0.345293155,0.0743963495,-0.0710794181,-0.0186808482
101806.609759,0.216928933,-0.301116598,0.399022114,0.0470843054,-0.108933054,-0.00912595913
101806.619787,0.165110483,-0.36188247,0.425552102,0.0230703149,-0.139591098,-0.00427953806
101806.629815,0.051003042,-0.28035248,0.43751668,-0.003965565,-0.155048087,-0.00907748938
101806.639842,0.0278922155,-0.222463186,0.499905624,0.000486441364,-0.159312874,-0.0099400878
101806.649870,0.0180260706,-0.232324655,0.47482379,0.029243255,-0.147836775,-0.00194074959
101806.659898,0.0379676193,-0.269022693,0.52000324,0.0664524063,-0.123345286,0.0154203968
101806.669926,0.0446487045,-0.28342502,0.623272476,0.0916914493,-0.0964870378,0.0313445032
101806.679954,0.0269271699,-0.320206352,0.660990797,0.0956478417,-0.0769751221,0.0481802076
101806.689982,-0.00093114337,-0.380430811,0.70366031,0.0741308331,-0.0605442189,0.0673118234
101806.700010,-0.0545300471,-0.401135892,0.789041715,0.0235571396,-0.047994338,0.0805759653
101806.710037,-0.0552899255,-0.37984512,0.861520968,-0.0435316153,-0.0372356996,0.0991315395
101806.720065,-0.046490533,-0.315311273,0.829820592,-0.101391718,-0.0298443623,0.112594619
101806.730093,-0.0679243662,-0.22485505,0.717837889,-0.13752602,-0.0327376202,0.123609453
101806.740121,-0.109096919,-0.119078069,0.51827627,-0.154124171,-0.0433910638,0.130043387
101806.750149,-0.216293557,-0.00224105693,0.35910453,-0.169262648,-0.0470617004,0.126299769
101806.760177,-0.3019681,0.116253074,0.279425429,-0.174568728,-0.0568219163,0.125644371
101806.770204,-0.360788538,0.194466341,0.12106442,-0.188310906,-0.0629011169,0.114318751
101806.780232,-0.433739208,0.319590266,0.0790776284,-0.211859912,-0.0659256652,0.0916645676
101806.790260,-0.497620436,0.41228477,-0.00327127676,-0.202487707,-0.075342074,0.0595716164
101806.800288,-0.465294622,0.487389403,-0.277191094,-0.14204967,-0.0924427658,0.0240157507
101806.810316,-0.424075307,0.473481728,-0.47510816,-0.0440136492,-0.108387373,-0.0116314609
101806.820344,-0.414240142,0.360213514,-0.555829171,0.0653844848,-0.117299378,-0.0488619208
101806.830371,-0.389158892,0.216822111,-0.462109562,0.170984939,-0.112307012,-0.0721653774
101806.840399,-0.361024684,-0.0805532539,-0.264340088,0.245190203,-0.0962324366,-0.0775766522
101806.850427,-0.311024098,-0.410905444,-0.0127028297,0.27159223,-0.0824788138,-0.0613404289
101806.860455,-0.246550164,-0.660476125,0.215877962,0.237961307,-0.0774345174,-0.0324909389
101806.870483,-0.237232301,-0.806659497,0.377447411,0.18294999,-0.0945242867,0.011090097
101806.880511,-0.237381354,-0.945683352,0.283632233,0.135870367,-0.129666567,0.0581950247
101806.890539,-0.274247734,-0.924457171,0.175893158,0.0874999017,-0.182465866,0.0936081484
101806.900566,-0.4315718,-0.832025409,0.119480658,0.0469247811,-0.237335771,0.111096062
101806.910594,-0.675329703,-0.681461338,0.100958036,1.66597747e-05,-0.274819523,0.100827441
101806.920622,-0.772736769,-0.427273373,0.297311214,-0.0604205839,-0.300947785,0.0821938366
101806.930650,-0.687910952,-0.223218242,0.425199343,-0.127440095,-0.350008279,0.0568179041
101806.940678,-0.632259208,0.0732495067,0.434684087,-0.186168119,-0.401765466,0.00458958745
101806.950706,-0.624698417,0.281789089,0.447943089,-0.182643428,-0.443616509,-0.0351136178
101806.960733,-0.465970329,0.288059548,0.403249961,-0.099794358,-0.454614311,-0.0546883792
101806.970761,-0.242191969,0.259066677,0.410485173,0.049132809,-0.431115359,-0.0471178144
101806.980789,-0.0466202969,0.113579617,0.478639841,0.220116004,-0.399573684,-0.0172573887
101806.990817,0.172450909,0.0246219617,0.590333499,0.355076998,-0.382636786,0.0161610227
