t,ax,ay,az,gx,gy,gz
83979.878126,-0.0319232611,0.0356487479,0.0814414349,-0.000191890285,0.00361609086,-0.00917041581
83979.888155,-0.193318249,0.155312106,0.0584054272,-0.000310400967,0.00302353781,-0.043733187
83979.898185,-0.0304254786,0.0632999578,0.0061924249,0.00448462041,0.00278625009,-0.0393962264
83979.908215,0.37028552,-0.258794875,0.00156067345,0.00182172575,-0.000959485886,0.00590520632
83979.918245,0.126210277,-0.0234229977,0.0427063383,0.00285316817,-0.00153845723,-0.00476847682
83979.928275,0.0562498384,-0.0280983326,0.0469014519,-0.00264492794,0.00285629136,-0.00046134647
83979.938304,0.056393101,-0.0281196859,0.0468973603,-0.00130562426,0.00062722544,0.000186600722
83979.948334,0.00789754832,-0.00134907652,0.11992168,0.00168190978,-0.00200078171,-0.000479189679
83979.958364,-0.00359261766,0.00349892977,0.0608148264,-0.00190909661,0.00226533576,0.00134134712
83979.968394,0.0084960074,-0.00904967749,0.00694645814,-0.0013897802,0.00166852144,0.000135201961
83979.978424,-0.00562949379,-0.00433318863,0.0482470213,0.00018814276,-0.000233241939,-0.00138839334
83979.988454,0.0293723528,-0.0179764593,0.027291327,0.000659255893,-0.00620671222,0.0196854658
83979.998483,0.00582156403,0.0448655439,0.112745505,0.000124226906,-0.00258028554,0.00117596518
83980.008513,0.00685843279,-0.0137136325,0.0919499694,-0.00633527013,0.00653864397,4.19905409e-05
83980.018543,0.00846519214,0.0219948281,0.049455228,0.000276293373,-0.00102713017,0.000321622938
83980.028573,0.00889761047,0.00125330626,0.104973117,-0.00018256926,-0.00190703862,0.00119620468
83980.038603,0.0146105448,0.00369942077,0.00561082562,-0.000137561816,0.00112763338,0.00104999729
83980.048632,-0.0033594117,-0.00150112528,0.0377834949,0.000821975176,-0.00205537677,0.00149314757
83980.058662,-0.000848634452,-0.00017811478,0.0545434911,-0.00291390717,-0.000212469255,-0.000295697711
83980.068692,0.00205740745,0.00163735541,0.068907532,-0.00130535802,0.00149301905,0.00105532352
83980.078722,0.0035396271,-0.00515413136,0.0912029504,0.000763651798,-0.00182847551,0.000604983419
83980.088752,0.000730962889,-0.00281215308,0.0759381613,-0.00181889231,0.00280316849,-9.09455121e-05
83980.098781,-0.00505226015,-0.00799987618,0.0379331326,0.000398721895,0.000870778807,-0.000254729763
83980.108811,0.00650116205,-0.00367136372,0.0412245753,0.000425087172,-0.00124643429,-0.000127431005
83980.118841,0.0120548689,0.00171038411,0.0579834024,-0.00101967761,-0.000715399976,0.000325839035
83980.128871,0.00782084809,-0.00496763234,0.0663590166,0.000842937268,-0.00105734973,-0.0010430254
83980.138901,0.000859685569,0.00454849362,0.0807213039,-0.00109531148,-0.00171461806,-0.000553802587
83980.148931,0.00803776051,0.00907397169,0.0726414578,0.00073641073,0.00139169313,0.000121841207
83980.158960,-0.000530490148,0.00194545325,0.0650122781,0.000726290746,-0.00115588668,-0.00021531526
83980.168990,-0.00506734813,-0.00736585259,0.0448117862,0.000152379507,0.000710190157,-0.000127431005
83980.179020,4.69992132e-05,0.00608646204,0.0424164154,-0.00161356258,-0.00197933614,-0.000498675741
83980.189050,0.00478652189,0.0107049156,0.0855091227,0.000754520297,-0.000977721415,-0.00013115909
83980.199080,0.00963693933,0.00640277971,0.0870049142,5.90563286e-06,-0.00022857415,0.000848883763
83980.209109,0.0204986347,0.0032419228,0.0974772084,-0.000658020377,-0.00136920589,0.000503205694
83980.219139,0.00428794298,-0.0119870096,0.0796691645,0.00171991624,0.00186760002,-0.000725843012
83980.229169,0.0108631749,-0.00634321328,-0.0304617738,0.00150579796,-0.00223366823,-0.000722914003
83980.239199,0.0192433009,-0.00628167409,0.00125964467,-0.000528058095,0.0016130018,-0.00118763559
83980.249229,0.0187681394,0.0101204485,0.0103898766,0.000887411879,1.0577729e-05,-0.00184144173
83980.259258,0.0212136876,-0.00136593632,0.117080904,0.000439201947,-0.00120062788,0.000321311876
83980.269288,0.00846663518,-0.00601158844,0.151647775,-0.000640443526,0.00122764241,0.000518118963
83980.279318,0.0026014512,0.00614613807,0.108702951,0.000326550216,-0.000894364319,-0.00141080841
83980.289348,0.00644672845,0.0142083389,0.0350847574,0.00536258798,0.00200981274,0.00366624212
83980.299378,-0.0540640918,0.0959889791,-0.0537947186,0.00127170607,0.00187718729,0.0928246155
83980.309408,0.345878663,0.450584836,0.0142956519,-0.000858822721,0.000705662824,0.234984949
83980.319437,0.542253029,0.381349241,0.190881468,-0.00330919726,0.00917265099,0.377062976
83980.329467,0.0302163659,0.33717747,0.0797042358,-0.00290066842,0.00592439296,0.467016309
83980.339497,-0.00929764264,0.0630014132,0.159020934,-0.00191396708,0.00487803714,0.475485712
83980.349527,0.398335995,-0.11271869,-0.0044166474,0.0525812358,0.0780899301,0.439427018
83980.359557,0.691490711,-0.0212871547,0.141586399,0.207754582,0.282818288,0.384216785
83980.369586,1.00428416,0.0380368213,0.306135741,0.384939194,0.630296409,0.395553589
83980.379616,0.833418325,0.214321216,-0.413824547,0.521625698,0.742909491,0.489293396
83980.389646,1.00571711,0.338115518,-0.012217092,0.397145271,0.63344425,0.706050754
83980.399676,1.91176827,-0.247426582,-0.558472087,0.0436822809,0.13096939,0.959893107
83980.409706,2.01795793,0.0649718411,-0.08127017,0.173332155,0.114283621,0.867101431
83980.419736,1.44856156,-0.0316858562,-1.37866911,0.413071215,0.146772057,0.905701816
83980.429765,2.79334974,0.462361235,-1.54189568,0.585338056,0.158158138,1.22444487
83980.439795,3.86332203,0.426104804,-0.0862730928,0.506804883,0.274798453,1.63962829
83980.449825,3.91574692,0.786995158,-0.0793371561,0.538301826,0.32097581,1.99680746
83980.459855,3.56922831,1.05403369,-0.578559766,0.629906893,0.283607394,2.1796906
83980.469885,2.36596502,1.58220884,0.150928228,0.655904114,0.259927362,2.16642404
83980.479914,0.915066169,1.83957543,0.349790174,0.685323,0.203741342,2.00620699
83980.489944,-0.416549697,1.2828857,-1.16255033,0.989842117,0.184091195,1.73120689
83980.499974,-1.50364164,0.403922052,-2.4506051,1.45135713,0.182736978,1.39153612
83980.510004,-2.74328544,-0.480082076,-2.90644976,1.96952164,0.17800428,0.970593452
83980.520034,-4.21019748,-1.43870039,-3.67230144,2.72444248,0.194163814,0.620762229
83980.530063,-5.53392124,-2.42675705,-5.91230331,3.80356145,0.2712093,0.179916635
83980.540093,-6.78605539,-3.32085766,-3.74495108,4.00971556,0.371232033,-0.482338279
83980.550123,-4.87197008,0.0883364551,5.80424625,2.75787735,0.590956986,-0.776162207
83980.560153,-0.55157177,1.40353789,4.63432803,2.20104957,0.640018821,-0.300239861
83980.570183,5.05967701,1.92535358,2.19687701,1.75893092,0.474822611,0.140780151
83980.580213,3.9261555,1.01510059,3.66719038,1.33633411,0.369332671,0.281446725
83980.590242,3.00247414,2.35954886,1.97100547,0.931408942,0.37059474,0.358756959
83980.600272,1.36786072,2.60657863,1.07347036,0.700798333,0.317986131,0.170886114
83980.610302,0.623573359,2.44126532,-0.0796142195,0.643784583,0.165209651,-0.0369613469
83980.620332,0.635205052,2.23983615,0.149801854,0.539284587,0.0291703288,-0.190358371
83980.630362,0.881651902,1.57145232,0.716467769,0.364303678,-0.0230891481,-0.249670416
83980.640391,0.965462185,0.795137109,0.769877288,0.232377633,-0.0227666385,-0.291064471
83980.650421,1.20172542,0.0645998979,0.488602432,0.214894772,-0.0425113142,-0.318595171
83980.660451,1.26284844,-0.578909603,-0.0225397486,0.329398423,-0.0662464723,-0.356243998
83980.670481,1.4508336,-1.23878396,-0.429333082,0.518764377,-0.0574543104,-0.337149143
83980.680511,1.71520233,-1.81109957,-0.402197822,0.695113063,-0.0428977385,-0.29953146
83980.690541,1.91020351,-2.26629512,0.0997463224,0.759967387,-0.0104641672,-0.181932926
83980.700570,2.15898596,-2.62919641,0.790087132,0.60133034,-0.0250998344,-0.0896637067
83980.710600,2.35339575,-2.77781256,-0.19867899,0.583457589,-0.127664566,0.0659194961
83980.720630,2.14948953,-2.54626649,-0.638614714,0.509955943,-0.260923296,0.198522002
83980.730660,1.80039961,-2.27308551,-1.26943658,0.409688741,-0.441320509,0.318650544
83980.740690,1.71372173,-1.97961431,-1.20264034,0.230652168,-0.635408461,0.400727302
83980.750719,1.52699139,-1.7709625,-1.10770522,-0.0415455326,-0.782273769,0.454758316
83980.760749,1.41059803,-1.79077224,-1.12190384,-0.165838718,-0.882924497,0.523406863
83980.770779,1.66368491,-1.9638933,-0.940413303,-0.304654151,-0.987809122,0.596847534
83980.780809,1.54625534,-2.01475489,-0.527310056,-0.272781163,-0.985111058,0.671949744
83980.790839,1.51115713,-1.98530726,-0.856816151,-0.17943123,-0.943726361,0.759985864
83980.800869,1.37140409,-1.7587986,0.0803653301,-0.153681129,-0.840520859,0.814014494
83980.810898,1.04568073,-1.3176234,-0.277538007,0.0675101131,-0.681830823,0.861039519
83980.820928,1.02136337,-0.663625822,-0.942445101,0.355416983,-0.567234755,0.893604934
83980.830958,1.03582189,0.0606286562,-0.639648149,0.293001294,-0.510289967,0.878978312
83980.840988,0.741021342,0.734295395,-0.558204961,0.352798045,-0.42651999,0.87394917
83980.851018,0.644911696,1.46510324,-1.86182848,0.462825745,-0.452946007,0.878204405
83980.861047,0.55028352,2.25591284,-1.94287419,0.369794339,-0.609131813,0.843169451
83980.871077,0.0381625574,2.92716697,-2.14385444,0.291347444,-0.785700738,0.770920277
83980.881107,-0.456429471,3.47471492,-2.16142225,0.195758894,-0.900524795,0.686401129
83980.891137,-0.613089009,3.73560809,-1.92493463,0.11551439,-0.962855279,0.603360295
83980.901167,-0.302939941,3.67964771,-1.6882775,0.0557016581,-0.951397836,0.584083796
83980.911197,-0.285168722,3.81737656,-1.54438282,0.0600047968,-0.919021547,0.486416638
83980.921226,-0.537495935,3.98533951,-1.77354287,0.148251027,-0.880276799,0.405557215
83980.931256,-0.621779899,3.9078284,-1.95375214,0.260118157,-0.887428701,0.323480189
83980.941286,-0.538528054,3.86477135,-2.37406371,0.399593234,-0.930043042,0.259786695
83980.951316,-0.518810816,3.82972838,-2.5370062,0.436203718,-1.04724288,0.160950392
83980.961346,-0.726984926,3.84139281,-2.44246271,0.406374454,-1.1928302,0.0409933776
83980.971375,-0.869211522,3.65530296,-2.60817408,0.390026361,-1.36255002,-0.0656300038
83980.981405,-0.883230257,3.25329394,-2.23623111,0.269539088,-1.52910089,-0.143367425
83980.991435,-0.705803898,2.70482711,-1.782745,0.17109111,-1.64961898,-0.141545281
83981.001465,-0.803471953,2.20722947,-1.30720663,0.0736079589,-1.72805226,-0.111509882
83981.011495,-1.03254301,1.80224845,-0.588324789,-0.0223177765,-1.73276293,-0.0600895658
83981.021525,-1.01110333,1.56011406,-0.0987181484,-0.0781517476,-1.68328798,0.0133945029
83981.031554,-0.933473275,1.47699066,0.273352831,-0.119893864,-1.60009623,0.0649924502
83981.041584,-1.15071931,1.61885062,0.621390023,-0.201940268,-1.51681352,0.0977408141
83981.051614,-0.996958197,1.57560564,0.878954918,-0.312216729,-1.43423903,0.105736688
83981.061644,-1.15463502,1.59702048,0.838083978,-0.366833091,-1.37459624,0.128922164
83981.071674,-0.810043879,1.41660166,0.77964874,-0.442395508,-1.35919309,0.152712971
83981.081703,-0.956870224,1.2662863,0.874167684,-0.496331692,-1.38745952,0.121090345
83981.091733,-1.07411596,1.2475176,0.857244021,-0.517783582,-1.39091337,0.115275063
83981.101763,-1.32806384,1.27746265,1.10092184,-0.541127026,-1.42405295,0.0161050688
83981.111793,-1.57623605,1.27587831,1.15793377,-0.524541378,-1.40815175,-0.062440604
83981.121823,-1.4146514,1.01883831,1.52383863,-0.568307996,-1.3502723,-0.12055824
83981.131853,-1.12982821,0.735899323,1.83372057,-0.619848192,-1.25735641,-0.136156648
83981.141882,-0.977613445,0.445367978,1.84326464,-0.651586115,-1.1676327,-0.121115364
83981.151912,-1.0120149,0.213837104,1.85688634,-0.6580531,-1.10875201,-0.0997594818
83981.161942,-0.908799437,0.175949857,1.77184834,-0.627618492,-1.08191514,-0.094003059
83981.171972,-0.752467304,0.270745279,1.77850371,-0.638316154,-0.985399485,-0.0399576649
83981.182002,-0.643640726,0.43765492,2.16440974,-0.778953135,-0.93445617,-0.132267103
83981.192031,-0.910364494,0.633178953,1.78990306,-0.82851243,-0.845047414,-0.209171727
83981.202061,-0.865825679,0.400799353,1.56921682,-0.864807844,-0.80278331,-0.258960605
83981.212091,-0.607061931,-0.00158259302,1.28259476,-0.848370314,-0.799413085,-0.2667301
83981.222121,-0.347518429,-0.37828094,0.816103033,-0.705157459,-0.82815367,-0.212641835
83981.232151,0.251074948,-0.731822283,0.95565062,-0.738532484,-0.878842652,-0.146964282
83981.242181,0.0758586663,-0.798740394,1.12472767,-0.742017508,-0.913001716,-0.115722202
83981.252210,0.053760524,-0.815869808,1.12899818,-0.757962883,-0.937673211,-0.0566751286
83981.262240,0.0550756983,-0.98246147,1.30534084,-0.771511734,-0.921306252,0.0475713834
83981.272270,0.488126047,-1.02049163,1.86640645,-0.944027066,-0.918491542,0.0992454961
83981.282300,0.383155268,-0.971517174,1.9466163,-0.987667978,-0.848569989,0.133668721
83981.292330,0.399456414,-1.14882517,1.87915195,-0.974086165,-0.737947106,0.264575332
83981.302359,0.539433625,-1.24826827,2.3639281,-1.04312515,-0.667298734,0.282634228
83981.312389,0.34217853,-1.09217272,2.20375508,-1.01144361,-0.563779831,0.297989219
83981.322419,0.284571559,-1.23014473,2.08803552,-0.935853302,-0.437334806,0.413185567
83981.332449,0.553123127,-1.4261035,2.59188579,-1.05797994,-0.378261894,0.446423948
83981.342479,0.643536389,-1.21172674,2.44362006,-1.11922252,-0.277917445,0.480228782
83981.352509,0.764478644,-1.13723527,2.20678641,-1.06435847,-0.182441786,0.544324934
83981.362538,0.536525044,-1.01484486,1.81269473,-0.887227714,-0.129582301,0.576011777
83981.372568,0.557922052,-0.696255002,1.65111184,-0.825133145,-0.0642770678,0.593386769
83981.382598,0.385361838,-0.370189842,1.71373109,-0.764322281,-0.0131086865,0.50905329
83981.392628,0.406435021,-0.191880708,1.3214865,-0.738151133,0.0155344103,0.457877159
83981.402658,0.212491243,-0.431543743,1.38391753,-0.733517766,0.0203427486,0.433563828
83981.412687,0.235403916,-0.758689174,1.23911802,-0.698748291,-0.00342463376,0.436364383
83981.422717,0.730550071,-0.977692575,1.24543845,-0.759025216,-0.00461906148,0.510872722
83981.432747,0.910266586,-1.13820835,1.22569623,-0.732503593,0.000132816844,0.511991262
83981.442777,0.854478064,-1.13360173,0.827306564,-0.641022682,-0.0193162467,0.498261064
83981.452807,0.573648029,-1.16743065,0.76227032,-0.527751267,-0.0428993367,0.435331613
83981.462837,0.234159469,-1.07954603,0.507679473,-0.359579563,-0.00680818036,0.405592382
83981.472866,0.27299978,-1.07891591,1.0256968,-0.375370532,-0.035885103,0.256595969
83981.482896,-0.188828043,-1.20047111,0.933611222,-0.296434969,0.0175006222,0.138297021
83981.492926,0.372393051,-1.77782333,0.94813776,-0.241003141,0.0297021605,0.0813948587
83981.502956,-0.0760977358,-2.0200679,1.30544547,-0.157174021,0.0852221474,-0.0079395473
83981.512986,-0.185360075,-2.08559368,0.997157519,0.0899968892,0.187540531,-0.0362833068
83981.523015,0.631374242,-2.51175077,1.38208623,0.138254434,0.25237596,-0.0768368542
83981.533045,0.459967289,-2.61225287,1.2432161,0.32608825,0.371183038,-0.136809379
83981.543075,0.197840201,-2.68893981,0.963300258,0.527085543,0.479767323,-0.137785971
83981.553105,0.310845818,-3.00739552,0.840018161,0.625270724,0.551335275,-0.0833331048
83981.563135,0.530891422,-3.01069777,0.535278259,0.641873658,0.58252728,0.00343507947
83981.573165,0.639092853,-2.90709916,0.157035897,0.599470019,0.558624089,0.0958036259
83981.583194,0.520427895,-2.81552212,-0.191298232,0.555284441,0.495847732,0.211771503
83981.593224,0.404948582,-2.78426218,-0.592668371,0.590375304,0.402339101,0.349548817
83981.603254,0.684504359,-2.80595174,-0.23118133,0.273430914,0.384638667,0.57781899
83981.613284,0.478608277,-2.59703017,-0.124205641,0.113867067,0.378111273,0.665361106
83981.623314,0.506653637,-2.22913005,-0.65004504,0.078790307,0.34464705,0.793440521
83981.633344,-0.135268887,-2.02697987,-0.972203695,0.213520691,0.24709706,0.889091134
83981.643373,0.295642988,-1.67762327,-0.911537922,0.052032996,0.134703144,1.00928354
83981.653403,0.445890833,-1.17221708,-1.09495914,0.18523711,0.0500926524,1.08714032
83981.663433,0.581005991,-0.894440291,-1.48696173,0.226373374,-0.114938647,1.10310805
83981.673463,-0.82822134,-0.57302807,-1.60690036,0.319197059,-0.239774048,1.14917147
83981.683493,-0.222177939,-0.497090859,-0.87192195,0.159225494,-0.396215618,1.1185776
83981.693522,-0.369844535,-0.135863784,-0.960682184,0.313246757,-0.410697877,1.15357792
83981.703552,0.682896339,-0.411908995,-1.4112755,0.427612484,-0.49225533,1.19826436
83981.713582,-0.448285035,-0.150794665,-1.11890115,0.634720922,-0.654691339,1.14961827
83981.723612,-0.178088038,0.31367432,-1.77738844,0.864270508,-0.696351945,1.26824355
83981.733642,0.307584771,0.00557721561,-0.296287132,0.669628024,-0.744860113,1.18592596
83981.743672,-0.00791091926,0.279844823,-0.276952317,0.511138797,-0.707534552,1.10366654
83981.753701,-0.517518145,0.310598931,-0.834952695,0.722859859,-0.757848859,1.05923092
83981.763731,-0.481430933,0.3217812,-0.285059051,0.671574831,-0.717264175,1.10368681
83981.773761,0.282079743,-0.135101238,0.48065235,0.254772276,-0.67180109,0.998677552
83981.783791,-0.39833121,0.223948164,0.53262336,0.0831648186,-0.589963496,0.897693932
83981.793821,0.74364453,-0.0953183864,0.190800804,0.0375328846,-0.530837834,0.895883262
83981.803850,0.765912476,-0.230376188,-0.572309474,0.187434494,-0.488240063,0.995207965
83981.813880,-0.630620793,0.540981841,0.409955012,-0.204915717,-0.567837119,0.873897791
83981.823910,-1.08631347,0.614464316,-0.161335056,-0.287481427,-0.531576574,0.826308429
83981.833940,0.150852825,-0.0857704771,-0.490809587,-0.303571969,-0.564650416,0.804953873
83981.843970,0.0702566085,-0.328045302,-0.898890037,-0.0790925324,-0.607944071,0.785641432
83981.854000,0.143674896,-0.403577951,-1.22814888,0.170496523,-0.669459879,0.807137132
83981.864029,0.308878902,-0.498654017,-1.24331313,0.398911595,-0.70683229,0.829369187
83981.874059,-0.266090146,-0.174900786,-1.19030869,0.534692883,-0.769350827,0.856580317
83981.884089,0.0873503667,-0.185305349,-1.21685942,0.679602921,-0.816690624,0.935900688
83981.894119,0.337871772,-0.185684356,-1.2495266,0.7487306,-0.858004749,0.980364323
83981.904149,0.207749016,-0.0927498511,-0.627158085,0.808874905,-0.889205813,0.991844118
83981.914179,-0.546513938,0.201439614,-0.920892025,0.938718617,-0.698682249,0.957128525
83981.924208,-0.422323495,0.304749693,1.78241416,-0.0628067702,-0.623199701,0.767735958
83981.934238,-0.183490774,0.0889212601,1.12518652,-0.196678817,-0.573682487,0.724642277
83981.944268,0.0971405238,0.179924953,-1.22430156,0.109727718,-0.670497715,0.776452184
83981.954298,0.0744733494,-0.629811084,-1.04979313,0.277557462,-0.842932105,0.699444234
83981.964328,-0.967007295,0.178997627,-0.904812997,0.594399095,-0.918420434,0.661732793
83981.974357,-0.044953825,0.400700094,-1.00380178,0.530765474,-1.02074075,0.547863483
83981.984387,-0.521966357,0.946694575,-0.303693608,0.411794633,-1.06475687,0.516935408
83981.994417,0.486513935,0.520427421,-0.345465881,0.475354701,-1.10380304,0.536697686
83982.004447,-0.317577757,0.451011281,0.211565944,0.524689257,-1.09329367,0.496027201
83982.014477,0.00645896688,0.266686176,0.639874944,0.690708041,-1.03155768,0.475798607
83982.024507,0.445005282,0.594293854,0.820408621,0.798826754,-0.879571557,0.357288212
83982.034536,-0.137099609,0.89560327,1.54812493,0.757057488,-0.726153016,0.303184777
83982.044566,-0.0324269364,0.829554489,1.78205234,0.702576697,-0.561573625,0.286883026
83982.054596,0.177568398,0.948443976,1.87403329,0.629093945,-0.433095872,0.182131052
83982.064626,0.111212304,0.634222179,1.60238843,0.722692072,-0.306351483,0.101925969
83982.074656,0.0738636931,-0.0364760199,1.64962014,0.773795724,-0.122293226,0.174355149
83982.084686,0.119352356,-0.629267333,2.2148873,0.663687885,0.0598523393,0.282661378
83982.094715,0.535935846,-0.889921425,1.94876675,0.567845225,0.197438166,0.37377879
83982.104745,0.374867332,-0.879325286,1.75398945,0.478447169,0.292192876,0.440287769
83982.114775,0.142470781,-0.893184665,1.48837978,0.455902457,0.350197613,0.486395329
83982.124805,0.0937783539,-0.806451407,1.22923083,0.459288657,0.397552609,0.491586119
83982.134835,-0.0749935739,-0.684065821,1.16330261,0.47978726,0.453309059,0.461835921
83982.144864,-0.1826514,-0.553008415,0.935243791,0.528813958,0.520993352,0.403845072
83982.154894,-0.285014627,-0.403998478,0.764443573,0.543741465,0.585554779,0.336373091
83982.164924,-0.364651643,-0.363637351,0.465383469,0.561711192,0.633030117,0.274313718
83982.174954,-0.361392933,-0.331363888,0.202788764,0.545476019,0.641807377,0.213849306
83982.184984,-0.393310751,-0.297192045,0.156060915,0.490390658,0.642442822,0.168291941
83982.195014,-0.305931743,-0.348590004,0.181132812,0.429574698,0.659249723,0.146075577
83982.205043,-0.298688932,-0.514864635,0.208683667,0.373634994,0.691028714,0.128847867
83982.215073,-0.228317173,-0.737546871,0.113712888,0.387236834,0.724574685,0.124069087
83982.225103,-0.00805120451,-1.04392292,-0.091819621,0.438750893,0.763216913,0.195870027
83982.235133,-0.101971597,-1.20503878,0.0163362178,0.35574922,0.758666098,0.264682382
83982.245163,0.0743307261,-1.20582131,-0.0187736741,0.289003998,0.731641412,0.350652158
83982.255193,0.195044433,-1.80163295,-0.496874001,0.358826756,0.670559645,0.492105693
83982.265222,0.466425672,-1.69547939,-0.621779315,0.292511404,0.558647513,0.667216778
83982.275252,0.346619142,-0.291380454,-0.46852995,0.197003499,0.466441661,0.684486032
83982.285282,0.207198981,-0.165965218,-0.710622551,0.140575379,0.313235044,0.629328549
83982.295312,0.250828864,-0.333213425,-1.06557581,0.288218647,0.110984497,0.583002567
83982.305342,0.163183899,-0.104527602,-1.35211896,0.495318294,-0.0863043368,0.534506142
83982.315371,0.00860416222,0.271757652,-1.14041974,0.626495481,-0.220396355,0.428072125
83982.325401,-0.0776636699,0.627256577,-0.714440063,0.685429931,-0.23975195,0.335887581
83982.335431,0.0727116005,0.691705596,-0.0745715491,0.706587672,-0.211963996,0.283335447
83982.345461,-0.0928577319,0.87419238,0.197930218,0.720244348,-0.150631666,0.210372269
83982.355491,0.0855675749,0.896113704,0.310251944,0.753408968,-0.0623531938,0.133814916
83982.365521,0.164909992,0.454579605,0.0687350981,0.841204047,-0.00193193194,0.122307405
83982.375550,0.210822433,0.416624297,-0.210718388,0.871596038,0.00825412665,0.127790853
83982.385580,0.37189913,0.467543131,-0.52374155,0.845216393,-0.0295086969,0.141237155
83982.395610,0.468971264,0.411173155,-0.937138811,0.789385617,-0.122716941,0.190431058
83982.405640,0.675832977,0.313073029,-1.2419208,0.737901092,-0.232553154,0.264040023
83982.415670,0.80065938,0.184670412,-1.12612175,0.617625058,-0.299846977,0.354115874
83982.425700,0.626029958,0.2260295,-0.851243904,0.525329709,-0.313025922,0.444583982
83982.435729,0.454908837,0.460743607,-0.801447315,0.475375473,-0.292414904,0.529699385
83982.445759,0.32602176,0.799375331,-0.75747198,0.434810758,-0.291231394,0.575454891
83982.455789,0.36124388,1.32039462,-0.952922656,0.411307275,-0.332422256,0.566900551
83982.465819,0.404620081,1.85228294,-1.07386725,0.380546451,-0.396028638,0.515148699
83982.475849,0.380234412,2.19043572,-0.947896352,0.334061235,-0.441345006,0.45462808
83982.485878,0.370371189,2.37124135,-0.707439829,0.283577561,-0.451889783,0.38359651
83982.495908,0.40405251,2.56963538,-0.48331134,0.222136542,-0.42682144,0.295588911
83982.505938,0.387711031,2.710447,-0.259034967,0.154245913,-0.387471646,0.204474971
83982.515968,0.276857039,2.76610751,-0.183283853,0.0984015614,-0.340446889,0.113353059
83982.525998,0.161550744,2.71399212,-0.0976087258,0.0591588169,-0.286329329,0.0133779915
83982.536028,0.155054368,2.52855489,-0.145953947,0.0696823001,-0.218697801,-0.0796776488
83982.546057,0.135451257,2.25255462,-0.283964826,0.0836431235,-0.156555057,-0.151243716
83982.556087,0.219319627,1.97314146,-0.514646974,0.0707467645,-0.124993145,-0.186880544
83982.566117,0.295147898,1.69493052,-0.758400201,0.0132925259,-0.120978162,-0.204745293
83982.576147,0.285513224,1.48395115,-1.01450321,-0.0575470254,-0.13079004,-0.194781348
83982.586177,0.224271697,1.35914345,-1.21985919,-0.162989303,-0.146987125,-0.173388436
83982.596207,0.0652566083,1.36613901,-1.24396721,-0.28706038,-0.159387872,-0.159682214
83982.606236,0.0241881003,1.40903371,-1.36556705,-0.369767755,-0.167388797,-0.160357326
83982.616266,-0.0747773008,1.47409158,-1.43106624,-0.425963134,-0.184003204,-0.185854688
83982.626296,-0.302823255,1.53063779,-1.46713767,-0.426339686,-0.2101392,-0.225613028
83982.636326,-0.290637728,1.41969217,-1.50786306,-0.406468511,-0.231460199,-0.25490433
83982.646356,-0.150747611,1.33852517,-1.46084295,-0.411911488,-0.25710246,-0.277991533
83982.656385,-0.121413964,1.34088489,-1.3632465,-0.452185154,-0.277392805,-0.300496578
83982.666415,-0.0934486835,1.32746324,-1.22817635,-0.523877978,-0.289821267,-0.325719118
83982.676445,-0.0649193392,1.27791069,-1.08276659,-0.608469844,-0.302883267,-0.368633032
83982.686475,-0.0764274061,1.20333717,-1.01311204,-0.622384846,-0.314424068,-0.406044573
83982.696505,-0.121250298,1.0007326,-0.921028219,-0.607148647,-0.313190758,-0.447620511
83982.706535,-0.0967132383,0.856877015,-0.744718881,-0.584923744,-0.296857327,-0.472088307
83982.716564,-0.0072124156,0.732258628,-0.631195378,-0.584209502,-0.279165953,-0.489449471
83982.726594,0.104219668,0.628964989,-0.575415039,-0.602358639,-0.267790794,-0.491851389
83982.736624,0.21581308,0.539538108,-0.522533928,-0.640269041,-0.266848832,-0.482768387
83982.746654,0.369720617,0.464126236,-0.439656323,-0.679367721,-0.258987457,-0.468559355
83982.756684,0.496023522,0.50303267,-0.339034386,-0.735195279,-0.226771697,-0.446396798
83982.766714,0.626588761,0.599515826,-0.172394794,-0.818101108,-0.180878252,-0.431304395
83982.776743,0.609482728,0.692636227,-0.065622519,-0.891864002,-0.123079926,-0.418905526
83982.786773,0.541201803,0.782189511,-0.0307791691,-0.944385231,-0.0675958991,-0.41855824
83982.796803,0.592175035,0.845607944,-0.0481529133,-0.981085718,-0.015187283,-0.436752439
83982.806833,0.507378444,0.888411021,-0.0938520037,-0.977705359,0.0225379914,-0.470909595
83982.816863,0.497787609,0.912229484,-0.206304078,-0.964508355,0.0650574863,-0.496527612
83982.826893,0.504215596,0.980630236,-0.163842655,-0.989550054,0.108733065,-0.521194637
83982.836922,0.577438653,1.06832408,-0.203629891,-1.01373482,0.15737623,-0.542316139
83982.846952,0.53082654,1.16075058,-0.343330622,-1.03677773,0.204385281,-0.580069661
83982.856982,0.35779637,1.230935,-0.475649427,-1.05269969,0.213601425,-0.6180498
83982.867012,0.411524453,1.16597526,-0.692709877,-1.0483923,0.18552345,-0.651189625
83982.877042,0.500173627,1.00056126,-0.797874718,-1.01973808,0.130165651,-0.688008904
83982.887071,0.547211273,0.790179048,-0.785831228,-0.98170042,0.0869931504,-0.710774899
83982.897101,0.694196316,0.612648279,-0.577348637,-1.00072849,0.0802870393,-0.713607192
83982.907131,0.764375768,0.543231592,-0.243069336,-1.08661592,0.1123254,-0.699053824
83982.917161,0.775827721,0.510608366,0.000759878457,-1.18206275,0.163502842,-0.682013333
83982.927191,0.749175276,0.526862459,0.167537418,-1.24338043,0.218640655,-0.658591628
83982.937221,0.770464148,0.424842675,0.325515564,-1.29830635,0.288496435,-0.611495197
83982.947250,0.911091931,0.372432689,0.624151889,-1.41563475,0.371811032,-0.563364446
83982.957280,0.943802945,0.625809228,0.801401138,-1.4244616,0.473891318,-0.517475247
83982.967310,0.808008574,0.723839175,0.515243186,-1.36242986,0.599916935,-0.520166099
83982.977340,0.739004595,0.795687217,0.586857639,-1.31160641,0.698052824,-0.558879137
83982.987370,0.909312062,0.586776025,0.402402405,-1.33218253,0.772692442,-0.601305664
83982.997400,1.11283791,0.381181191,0.163765498,-1.36072016,0.801065207,-0.607064247
83983.007429,1.05673667,0.276876804,-0.153438165,-1.38515115,0.792216599,-0.587123275
83983.017459,0.793584327,0.30084432,-0.253828046,-1.45021224,0.760957718,-0.58091867
83983.027489,0.535502715,0.376382413,-0.353572615,-1.49874806,0.707749367,-0.620259404
83983.037519,0.325944019,0.439921221,-0.634167672,-1.4444952,0.62445581,-0.709272087
83983.047549,0.115009358,0.413435182,-0.782739108,-1.36613679,0.527895749,-0.820097685
83983.057579,0.0309755685,0.140193776,-0.705777449,-1.2826618,0.409046263,-0.900940359
83983.067608,0.0577829114,-0.24235527,-0.642851329,-1.17029965,0.297699779,-0.931904912
83983.077638,0.104764443,-0.455827705,-0.537846648,-1.06382215,0.192109451,-0.931039631
83983.087668,0.0367810399,-0.522591649,-0.279247734,-1.00545764,0.0937644988,-0.912606061
83983.097698,-0.0276478854,-0.597091302,-0.0146212305,-0.945774615,0.0373230614,-0.874386728
83983.107728,0.0280839387,-0.762756423,0.275595057,-0.908306897,0.0211331751,-0.82615
83983.117758,0.00604570991,-0.843487883,0.645168958,-0.904204547,0.0570818558,-0.796866417
83983.127787,-0.13133447,-0.890790098,0.871639042,-0.931734443,0.117469296,-0.787454009
83983.137817,-0.0504547605,-0.996778091,0.893642784,-0.974828124,0.144852713,-0.77889514
83983.147847,0.162892807,-1.07221904,0.68866031,-0.954308987,0.111936048,-0.755876899
83983.157877,0.379648136,-1.0239211,0.538999909,-0.922727346,0.0379188135,-0.717764139
83983.167907,0.434368153,-0.843214911,0.687579529,-0.913343191,-0.026986951,-0.687864542
83983.177937,0.327882293,-0.554528464,0.96140816,-0.946967959,-0.064653635,-0.694926739
83983.187966,0.150836458,-0.378121584,1.23466864,-0.984704733,-0.0503284931,-0.750028849
83983.197996,0.12015958,-0.505503152,1.39419694,-0.983959556,-0.00289759412,-0.831193507
83983.208026,0.0628758506,-0.782160358,1.26274264,-0.872996032,0.0484995507,-0.901992798
83983.218056,-0.0976280151,-0.963687722,0.862661955,-0.69638449,0.0741324797,-0.96979636
83983.228086,-0.0765519093,-1.20698122,0.383456881,-0.521049142,0.0375904441,-1.01823771
83983.238116,0.189317872,-1.38958228,-0.0826245072,-0.398074776,-0.0734266192,-1.05203104
83983.248145,0.36980771,-1.44134476,-0.395731841,-0.298426479,-0.240384176,-1.08417034
83983.258175,0.394910587,-1.35652713,-0.40147886,-0.261013865,-0.414797813,-1.13186276
83983.268205,0.223178641,-1.38150638,-0.0870469998,-0.248882368,-0.52893126,-1.18826985
83983.278235,0.0062058689,-1.68091281,0.169663324,-0.196548864,-0.540279806,-1.22310662
83983.288265,-0.181160285,-2.13980663,0.480157844,-0.111504003,-0.478903562,-1.21359491
83983.298295,-0.281769361,-2.63001883,0.64199442,0.00592355896,-0.385520607,-1.14904678
83983.308324,-0.226145089,-3.14564897,0.628673166,0.0992726833,-0.277743548,-1.01152468
83983.318354,-0.142705759,-3.49598509,0.61551324,0.0659637302,-0.165130436,-0.812339604
83983.328384,-0.087585929,-3.61432067,0.629964959,-0.0749337375,-0.0850177631,-0.579230726
83983.338414,-0.0836491741,-3.43212198,0.450434906,-0.218700767,-0.0444743298,-0.365720868
83983.348444,-0.298042451,-2.98221928,0.182765966,-0.317639858,-0.0285864454,-0.217429399
83983.358473,-0.642484834,-2.552603,0.0506283635,-0.34547919,-0.0210108161,-0.143809244
83983.368503,-0.777967071,-2.26593301,-0.108187403,-0.279817104,-0.0219743494,-0.106316447
83983.378533,-0.874323751,-1.98106802,-0.287541515,-0.168271691,-0.0368944407,-0.0906786323
83983.388563,-0.882958308,-1.76803887,-0.411677598,-0.0505144149,-0.0804784074,-0.0810403898
83983.398593,-0.732010206,-1.50110029,-0.456392938,0.0356468335,-0.138374731,-0.0850883946
83983.408623,-0.548746812,-1.29055331,-0.424592024,0.0899108723,-0.185919881,-0.0766413808
83983.418652,-0.430316832,-1.09930221,-0.313557415,0.114147767,-0.220169723,-0.0745673105
83983.428682,-0.294518953,-0.937264557,-0.148415368,0.129487827,-0.23340483,-0.0679943636
83983.438712,-0.1037842,-0.947439475,-0.00198094468,0.11534965,-0.210760504,-0.0354180411
83983.448742,0.0323141236,-0.997706312,0.180301038,0.07608933,-0.173833922,0.0165697895
83983.458772,0.148223645,-0.99092067,0.247989841,0.0420219079,-0.13121669,0.0863270387
83983.468802,0.283546893,-0.8727641,0.291097162,0.00995505229,-0.0967985243,0.143474475
83983.478832,0.355111661,-0.612725217,0.292196647,0.0142163765,-0.0595334433,0.172212109
83983.488861,0.406448465,-0.369893489,0.249487971,0.0224226415,-0.0294394549,0.180898547
83983.498891,0.48181964,-0.130289728,0.227976396,0.0285814665,-0.010940074,0.168273553
83983.508921,0.589600216,0.112688989,0.173547472,0.0348164588,-0.00196948228,0.136976361
83983.518951,0.569034982,0.249648715,0.190584531,0.0389451571,0.00618511671,0.0946142599
83983.528981,0.619253011,0.194804231,0.166485278,0.0734485388,0.0191919953,0.073661305
83983.539011,0.680068422,0.0777522798,0.144850954,0.106234983,0.0409311131,0.0600661337
83983.549040,0.746069711,0.0214576342,0.124283967,0.114169076,0.071777977,0.0592488125
83983.559070,0.785146169,0.0414414877,0.0810726016,0.0758579001,0.0909340903,0.0750099346
83983.569100,0.730174223,0.129918484,0.0465875637,0.0221845545,0.105668828,0.0878887102
83983.579130,0.631544922,0.21635727,-0.0349450567,-0.0134871565,0.110083289,0.0930387303
83983.589160,0.503213141,0.327094248,-0.135925889,-0.0147228632,0.10273429,0.0777828172
83983.599190,0.380732425,0.450107939,-0.178480252,0.00445748866,0.084574461,0.0411334559
83983.609219,0.26784605,0.547934253,-0.209795428,0.0355898403,0.0602408946,0.000282695517
83983.619249,0.178537535,0.578510411,-0.157822079,0.0461569987,0.0381236076,-0.0384106413
83983.629279,0.142635032,0.546769667,-0.0496305846,0.0317018926,0.034102235,-0.0716998801
83983.639309,0.100032738,0.444111037,0.0476303507,0.0142685752,0.043387346,-0.0890559703
83983.649339,-0.0403553913,0.319107085,0.0976338603,-0.0093251681,0.061057955,-0.0876671299
83983.659369,-0.0724281074,0.237424444,0.0720271253,-0.0161002502,0.0673230365,-0.085497722
83983.669398,-0.0918622911,0.249760815,0.00145370594,-0.0135377562,0.0585487224,-0.0912027434
83983.679428,-0.177812728,0.275583129,-0.00316927769,-0.00749610923,0.0462009758,-0.106226698
83983.689458,-0.275453018,0.31241073,0.00752279672,-0.0104812467,0.0390764885,-0.118590422
83983.699488,-0.349883113,0.316620018,0.0529220274,-0.0160858687,0.0323906206,-0.129035354
83983.709518,-0.375913042,0.290322926,0.0921311712,-0.0178014766,0.0297775287,-0.141406804
83983.719548,-0.342141705,0.266255292,0.0751508103,-0.00753579102,0.0248205867,-0.148005575
83983.729577,-0.343256388,0.290295453,0.0957797568,-0.00339350989,0.0176588148,-0.162496641
83983.739607,-0.320084771,0.284790481,0.0857242268,0.00416960102,0.010293575,-0.18283467
83983.749637,-0.234742237,0.178390784,0.0733767864,0.0081459675,0.00996574014,-0.188474178
83983.759667,-0.227844295,0.0907428039,0.133899352,-0.0102756508,0.0128518073,-0.185573727
83983.769697,-0.2179045,-0.000402205859,0.100620767,-0.0326635167,0.0142073566,-0.172860593
83983.779727,-0.168337044,-0.106682405,0.0379576825,-0.0510776751,0.00410039444,-0.154132456
83983.789756,-0.167166246,-0.116685255,-0.0107914431,-0.0586021692,-0.0136887226,-0.135082856
83983.799786,-0.148593648,-0.173849962,-0.0612754297,-0.0626991764,-0.024326453,-0.116116084
83983.809816,-0.0916372502,-0.227505802,0.0223415957,-0.072742492,-0.0305220298,-0.0988215134
83983.819846,-0.116151514,-0.232787213,0.0525759904,-0.0691943616,-0.02540024,-0.08527641
83983.829876,-0.152789346,-0.276515003,0.0600543635,-0.063513577,-0.0155164497,-0.0739867389
83983.839906,-0.113497784,-0.322478827,0.0204746328,-0.0524148494,-0.0220750161,-0.0598568022
83983.849935,-0.0579272883,-0.373790095,-0.0455652349,-0.0450863615,-0.0382100455,-0.0468736291
83983.859965,-0.0256698633,-0.398604145,-0.0404272875,-0.0487870909,-0.0554902293,-0.0363882333
83983.869995,-0.0229652805,-0.446967595,0.0283446355,-0.0575683303,-0.0609489121,-0.0228303466
83983.880025,0.0125233815,-0.54671969,0.0987011972,-0.0615180656,-0.0541863479,0.00325105526
83983.890055,0.0168944362,-0.621124577,0.168554486,-0.0559477992,-0.0372590274,0.0314022675
83983.900085,0.0920645357,-0.67418857,0.241184838,-0.0531671904,-0.0136863263,0.0636725873
83983.910114,0.0948825157,-0.691203564,0.2574363,-0.0405456722,0.00464527681,0.0922019705
83983.920144,0.0670008216,-0.661814827,0.179559279,-0.0242063794,0.0113370018,0.120467164
83983.930174,0.0672176792,-0.608128756,0.152251001,-0.0148432385,0.00400878163,0.146230042
83983.940204,0.0872217719,-0.464155535,0.149541158,-0.0179181248,-0.00337003917,0.161942154
83983.950234,0.0549462267,-0.285434606,0.192470199,-0.0178259779,-0.01357181,0.165692955
83983.960264,0.0355137965,-0.14489019,0.18918577,-0.00487848837,-0.01482243,0.157111183
83983.970293,0.0135918875,0.0404379915,0.269835763,0.00509318523,-0.00990410428,0.140240595
83983.980323,0.00419745169,0.21815115,0.331765272,0.0177163035,0.0114216898,0.103935853
83983.990353,0.0150467625,0.306893902,0.36147652,0.0328505151,0.039743077,0.0613862649
83984.000383,0.028197336,0.358924643,0.281169057,0.0584578738,0.0653144866,0.0208859742
83984.010413,0.101764092,0.279155471,0.15333412,0.0822830424,0.0897636339,-0.0072362069
83984.020443,0.189499074,0.14787991,0.0449105704,0.0808193684,0.0967072919,-0.0143005084
83984.030473,0.252035902,0.0213865965,-0.113468558,0.0728855506,0.0855153576,-0.00535921101
83984.040502,0.300471724,-0.0429238352,-0.240613175,0.061159648,0.0520258434,0.0138243372
83984.050532,0.283668473,-0.0438559285,-0.311878669,0.0471058823,0.00874894205,0.0373767987
83984.060562,0.254093419,0.0282789133,-0.27319501,0.0281039625,-0.0355370305,0.0529887825
83984.070592,0.235005857,0.166758725,-0.19641163,0.0317535587,-0.0787350982,0.0605692044
83984.080622,0.205415605,0.329327597,-0.0353244114,0.0432323143,-0.107308686,0.0434325635
83984.090652,0.180803726,0.467358459,0.208830966,0.0495823547,-0.108980618,0.0167397
83984.100681,0.122943658,0.573395735,0.385904859,0.0570458658,-0.0904474184,-0.0186414607
83984.110711,0.0835626648,0.582065583,0.499866169,0.0685350075,-0.0615473241,-0.0511522666
83984.120741,0.101279523,0.469940731,0.585814268,0.0557875223,-0.0273949467,-0.0636997446
83984.130771,0.178526429,0.315511545,0.654540598,0.0163125508,0.0164691806,-0.0631588623
83984.140801,0.211303494,0.213068093,0.676800945,-0.0398018509,0.0659626946,-0.0538660213
83984.150831,0.10976152,0.109047801,0.62301967,-0.0791977271,0.107859544,-0.0388788208
83984.160860,0.037010757,0.0401759796,0.464513116,-0.0791985244,0.135824874,-0.0328776538
83984.170890,-0.0143926825,0.0698580011,0.341669411,-0.0675509274,0.153526098,-0.042895399
83984.180920,-0.115008773,0.0961104136,0.218691266,-0.0529639907,0.152196392,-0.0660987198
83984.190950,-0.174576815,0.0485420587,0.042458501,-0.0315907933,0.138186291,-0.0860580504
83984.200980,-0.149851539,0.00574415141,-0.0411339744,-0.0180938933,0.115143292,-0.102824509
83984.211010,-0.196869311,-0.0553463684,-0.0349888958,-0.0150051583,0.0901002586,-0.11618825
83984.221039,-0.229372235,-0.123241783,-0.0119207394,-0.0211165808,0.0721055418,-0.120928951
83984.231069,-0.23038112,-0.187501964,0.0220008194,-0.0128695695,0.0572440401,-0.11526414
83984.241099,-0.228914554,-0.230661653,0.0583867225,-0.00522283558,0.0526487567,-0.106643751
83984.251129,-0.281084302,-0.280330616,0.0720686264,0.00115996273,0.0573801287,-0.0871118605
83984.261159,-0.337839624,-0.307539689,0.0340279418,0.00116315857,0.053933464,-0.0614309981
83984.271190,-0.286057414,-0.305155169,-0.0503542227,-0.00170479948,0.0407257825,-0.0304749515
83984.281220,-0.26121991,-0.238163608,-0.125187638,-0.0146182012,0.0135431644,-0.00843729265
83984.291249,-0.276133986,-0.131625269,-0.165055538,-0.0097145224,-0.0302035175,0.0113401404
83984.301279,-0.246979203,-0.053734732,-0.178192667,-0.00817814562,-0.0507181138,0.0287401695
83984.311309,-0.245714882,0.0469457112,-0.0412345122,-0.0437441282,-0.0547043309,0.0400844365
83984.321339,-0.20967034,0.136057023,0.0433463898,-0.0703533664,-0.0539487936,0.0502931327
83984.331369,-0.0808878927,0.177478546,-0.00885375306,-0.0701688081,-0.0514978878,0.0521986261
83984.341399,-0.00917874723,0.244441026,-0.0306090733,-0.0568460822,-0.0539144389,0.0449143425
83984.351428,0.0417968222,0.262880628,-0.046703299,-0.0412239805,-0.0656059831,0.0363826454
83984.361458,0.119782564,0.228343641,-0.0450181224,-0.0308973063,-0.0753329098,0.0275100563
83984.371488,0.16759587,0.20701683,-0.0307855989,-0.0189399794,-0.0774887428,0.0209759902
83984.381518,0.164807116,0.138977532,0.0219423672,-0.0219086036,-0.0738431364,0.0203858335
83984.391548,0.172310039,0.0543455026,0.076464231,-0.030270664,-0.0699519962,0.0261379946
83984.401578,0.166185418,0.0263715636,0.0940086555,-0.0259078741,-0.0622812882,0.0284887683
83984.411608,0.135884388,0.00327036344,0.141568864,-0.0245014578,-0.0534401275,0.0211309865
83984.421637,0.0914776757,0.0110472263,0.200863933,-0.0258570071,-0.0384673066,0.000437425449
83984.431667,0.0109217915,-0.0106134197,0.272715702,-0.0177380946,-0.0112996008,-0.0174813867
83984.441697,-0.0714385118,-0.123748819,0.278346986,-0.00704257283,0.0134789823,-0.0346435979
83984.451727,-0.100032154,-0.246637751,0.26811493,0.00998061895,0.0291080102,-0.0375935808
83984.461757,-0.078667294,-0.408907841,0.195838798,0.0274648033,0.032998357,-0.0274123158
83984.471787,-0.0992524014,-0.543314996,0.167445648,0.0390716605,0.0315487981,-0.00274345372
83984.481816,-0.0884983677,-0.612432298,0.186975693,0.0437247343,0.0381720774,0.0278810337
83984.491846,-0.0894242503,-0.593459741,0.195670456,0.0401089601,0.0486375019,0.0531032979
83984.501876,-0.0997118356,-0.536968769,0.188973589,0.0433974303,0.0526863076,0.0762080848
83984.511906,-0.0438362191,-0.497856948,0.109352355,0.0641189516,0.0540535748,0.0996779948
83984.521936,0.050681555,-0.455853461,0.0573544569,0.0718583688,0.0543952584,0.120610438
83984.531966,0.0965454805,-0.369530282,0.0119242465,0.0751327202,0.0503105,0.139628604
83984.541996,0.181466574,-0.248966267,-0.0160509711,0.0621378273,0.0461154878,0.155603841
83984.552025,0.227637374,-0.06235095,-0.0414116223,0.0423745103,0.0334572196,0.158146888
83984.562055,0.237519885,0.0884924128,-0.0575982025,0.0355807878,0.0160880815,0.15516229
83984.572085,0.299416077,0.169663488,-0.0398977106,0.0338079222,0.00793241709,0.148135006
83984.582115,0.339480961,0.264409628,0.0488894109,0.0412099101,-0.000406739535,0.135683656
83984.592145,0.33016602,0.372679138,0.108418289,0.0504209846,-0.00305152498,0.118110262
83984.602175,0.374193963,0.430294182,0.232546773,0.0407126993,0.00366789708,0.108070679
83984.612204,0.375053794,0.487733175,0.320062559,0.0212966558,0.0251337755,0.0968451872
83984.622234,0.351546078,0.536190405,0.36666006,0.00496535376,0.049732063,0.0804763362
83984.632264,0.331308176,0.59650963,0.386157957,-0.0153995724,0.0787208378,0.0654481202
83984.642294,0.259832255,0.635230771,0.418209045,-0.049679514,0.108587921,0.0456504449
83984.652324,0.182080907,0.681439345,0.401086061,-0.079386279,0.136991605,0.0161354281
83984.662354,0.110984925,0.659823068,0.351377735,-0.0958821625,0.148194984,-0.00933371298
83984.672384,0.0390764574,0.616669425,0.259863235,-0.0884375647,0.153618783,-0.0388101116
83984.682413,-0.0605862784,0.582837846,0.183753224,-0.078030996,0.164249048,-0.0641426295
83984.692443,-0.158318923,0.461446422,0.121166127,-0.0793860108,0.167869881,-0.0873664618
83984.702473,-0.191181913,0.322597302,-0.00789689073,-0.0631471202,0.159987465,-0.0921958387
83984.712503,-0.227888134,0.205249309,-0.128905781,-0.0630469844,0.152248323,-0.0919905081
83984.722533,-0.279714182,0.0847593638,-0.223008545,-0.0683839619,0.142122447,-0.0877347738
83984.732563,-0.311025851,-0.0133288527,-0.35917818,-0.0672992542,0.116675675,-0.0810691491
83984.742592,-0.248304899,-0.0226965831,-0.537369678,-0.0595742241,0.0788388178,-0.0770685524
83984.752622,-0.216097158,0.0331635801,-0.567497105,-0.0830249563,0.0413955674,-0.0792520717
83984.762652,-0.228890004,0.106024709,-0.500686838,-0.123230696,0.00954389572,-0.0851182193
83984.772682,-0.220446585,0.109748332,-0.490251368,-0.14309895,-0.0295702163,-0.0886679441
83984.782712,-0.169427177,0.0207514039,-0.514001662,-0.115626574,-0.0706521422,-0.0934680253
83984.792742,-0.105222708,-0.0945342503,-0.425467638,-0.0785662904,-0.106385373,-0.0884335861
83984.802772,-0.0318313085,-0.150605791,-0.255876795,-0.0557794869,-0.136349663,-0.0804387778
83984.812801,0.0571434445,-0.131847497,-0.0863894127,-0.0467713438,-0.158087984,-0.0685653389
83984.822831,0.101447866,-0.121770705,0.0911006591,-0.045758009,-0.169344366,-0.0642747208
83984.832861,0.153935009,-0.104336281,0.280410933,-0.0512521118,-0.165610611,-0.0637207851
83984.842891,0.259006325,-0.0632045346,0.426216995,-0.0525101908,-0.154135048,-0.070213303
83984.852921,0.342784679,0.0188586489,0.557038255,-0.0724964142,-0.126501292,-0.0870516747
83984.862951,0.399733478,0.0419043743,0.659184624,-0.124539375,-0.0880191475,-0.108033121
83984.872981,0.405595648,-0.0988852851,0.727809248,-0.179919824,-0.049857378,-0.108921021
83984.883010,0.330433147,-0.220269329,0.793738641,-0.198557943,0.00443888176,-0.0929210186
83984.893040,0.210966809,-0.276998567,0.774987178,-0.18414253,0.070318833,-0.0826569274
83984.903070,0.145909523,-0.228562526,0.755036277,-0.156070411,0.14209342,-0.0813152269
83984.913100,0.0735334382,-0.174590295,0.689670363,-0.14425236,0.212211519,-0.0900791585
83984.923130,0.0100257195,-0.0540837646,0.621837183,-0.158797756,0.268053204,-0.0896855444
83984.933160,-0.080855744,0.0093166944,0.413675494,-0.176126674,0.309922606,-0.0909755751
83984.943189,-0.127711603,0.023068887,0.145545951,-0.179778144,0.32703051,-0.100900643
83984.953219,-0.125354811,-0.00563932106,-0.114276952,-0.155740708,0.312989771,-0.102642089
83984.963249,-0.182279644,-0.078972524,-0.367409417,-0.114352785,0.276429892,-0.102627702
83984.973279,-0.195810741,-0.0666068173,-0.573929184,-0.0753177702,0.223899603,-0.104929738
83984.983309,-0.194637021,-0.0236766071,-0.643434097,-0.0606783703,0.161368847,-0.109262168
83984.993339,-0.207114226,0.0213258793,-0.645553574,-0.0579302534,0.0893825367,-0.114644684
83985.003369,-0.172880532,0.0176494923,-0.608591917,-0.0533323064,0.0294028223,-0.127962902
83985.013398,-0.157977562,-0.0100178649,-0.432621602,-0.0606139228,-0.0112460712,-0.137311131
83985.023428,-0.17104338,-0.0641237318,-0.272830268,-0.0595649034,-0.0299798101,-0.139287993
83985.033458,-0.160207513,-0.085014398,-0.119369307,-0.0546151511,-0.0361021534,-0.140429959
83985.043488,-0.127784084,-0.122886156,0.00235153156,-0.0423417091,-0.032885585,-0.137767062
83985.053518,-0.0998474447,-0.139431267,0.0485088871,-0.0293396227,-0.0278375633,-0.132937416
83985.063548,-0.0832575444,-0.15736312,0.144440035,-0.0322840139,-0.0229575876,-0.125722378
83985.073578,-0.0518640428,-0.157183927,0.208567347,-0.0357905962,-0.0126197301,-0.114118449
83985.083607,-0.0169821145,-0.147793693,0.235290519,-0.04374253,-0.00245897146,-0.105901532
83985.093637,0.0378559757,-0.0848060525,0.26487551,-0.0476182289,0.00535367802,-0.100653507
83985.103667,0.0840998404,0.0171184907,0.326919001,-0.065447025,0.0207936205,-0.113476887
83985.113697,0.152570735,0.0848487043,0.369934552,-0.0806621984,0.0405963548,-0.122220851
83985.123727,0.187438634,0.103699791,0.417080334,-0.102894798,0.0715137869,-0.134394437
83985.133757,0.196056241,0.117785873,0.454970796,-0.123318315,0.10409943,-0.141885906
83985.143787,0.19118542,0.141982175,0.453326536,-0.142415047,0.133324429,-0.149212256
83985.153816,0.196913734,0.169211452,0.435084777,-0.150004268,0.149666652,-0.155369222
83985.163846,0.189765031,0.195161831,0.324191622,-0.129403383,0.154345557,-0.166140378
83985.173876,0.211500478,0.200074737,0.284709507,-0.118693471,0.15996775,-0.181819737
83985.183906,0.244834592,0.276253338,0.304384513,-0.128632933,0.172139734,-0.204662204
83985.193936,0.27244273,0.347341246,0.30772564,-0.135679126,0.180955857,-0.231591821
83985.203966,0.271480023,0.414277222,0.275262464,-0.143177778,0.187108293,-0.256994128
83985.213996,0.269560453,0.477284481,0.252530407,-0.146719515,0.203318432,-0.284791917
83985.224025,0.163598325,0.441090301,0.23326632,-0.16586791,0.227063164,-0.305198401
83985.234055,0.123012047,0.331905484,0.16206337,-0.160039052,0.232696816,-0.311116219
83985.244085,0.14675708,0.277038954,0.0133405431,-0.131763473,0.227922037,-0.316074759
83985.254115,0.0930646527,0.264136638,-0.0475391653,-0.103300929,0.215107709,-0.328498662
83985.264145,0.0661795684,0.28405307,-0.0841126999,-0.0866268799,0.201689899,-0.34114176
83985.274175,0.05574293,0.278228565,-0.138099726,-0.0721177161,0.182904765,-0.350501418
83985.284204,0.0603425328,0.242179493,-0.177500593,-0.0554836094,0.158142164,-0.363248646
83985.294234,0.0866951176,0.173129593,-0.160557057,-0.0389895886,0.14092429,-0.36893636
83985.304264,0.0351549,0.0946724623,-0.0794862092,-0.052724041,0.136758044,-0.36701408
83985.314294,-0.0127776485,0.0215971705,-0.0393769016,-0.0692779869,0.132368356,-0.353233576
83985.324324,-0.0278431157,-0.0411999706,-0.0793383251,-0.0706226155,0.127477184,-0.332988471
83985.334354,-0.0746077895,-0.0783716629,-0.114246557,-0.0596637055,0.117688745,-0.318214595
83985.344384,-0.0528945548,-0.0467889177,-0.111477677,-0.0381549522,0.10374736,-0.320184529
83985.354414,-0.0635363604,0.0219505094,-0.102260351,-0.0193666164,0.081566155,-0.332942396
83985.364443,-0.039628246,0.00715926064,-0.0141711487,0.00312377769,0.0632092506,-0.344837964
83985.374472,-0.0255816005,-0.0536223531,0.0923451062,0.0139308861,0.0593412817,-0.344307452
83985.384503,-0.110378776,-0.099631062,0.193411279,0.012574804,0.0744187683,-0.335019678
83985.394533,-0.188899939,-0.209922269,0.203445766,-0.0114450445,0.0827696398,-0.315916806
83985.404562,-0.145360657,-0.338450303,0.0925631329,-0.0077778725,0.0730158165,-0.277398467
83985.414593,-0.139115625,-0.452950469,-0.0184814131,-0.00180679862,0.0537342615,-0.235801473
83985.424623,-0.189293907,-0.466917583,-0.0438449869,0.00305879652,0.0292174667,-0.196630374
83985.434653,-0.167875271,-0.436593793,-0.0294055427,-0.00590167474,0.00949462689,-0.163330734
83985.444682,-0.211879248,-0.347724473,0.045849897,-0.0194947161,-0.00200490234,-0.135388583
83985.454712,-0.245854583,-0.252389501,0.119835755,-0.0230018329,3.66767636e-05,-0.121477552
83985.464742,-0.289147781,-0.191203138,0.164768537,-0.0138727827,0.011053375,-0.107550822
83985.474772,-0.27787703,-0.165580073,0.199387431,-0.0112018976,0.0376852527,-0.0936384723
83985.484802,-0.274693139,-0.166547018,0.18468086,-0.0254633911,0.0596187823,-0.0768853202
83985.494832,-0.272328164,-0.192439329,0.0187345111,-0.0261558145,0.0481394902,-0.0575861931
83985.504862,-0.233158768,-0.182385808,-0.181666481,-0.00805350952,0.0133990869,-0.0405664667
83985.514891,-0.213574362,-0.176382841,-0.229376326,0.00096794893,-0.0191410109,-0.0292640124
83985.524921,-0.248980606,-0.189614846,-0.207428698,0.0163868535,-0.0461950004,-0.0141665507
83985.534951,-0.248847335,-0.22173774,-0.192931387,0.029596664,-0.0710486844,0.00311044045
83985.544981,-0.226959328,-0.284480374,-0.179730544,0.0387728512,-0.0929960608,0.0236354228
83985.555011,-0.16258301,-0.33446116,-0.133704122,0.0361922495,-0.10869886,0.0482195988
83985.565041,-0.103494861,-0.307847258,-0.118690677,0.0315913707,-0.129908532,0.0659653023
83985.575071,-0.0638245297,-0.272700212,-0.111485275,0.0385893621,-0.141294882,0.0770965219
83985.585100,-0.0179980135,-0.270629689,-0.0617465543,0.0417076573,-0.147355169,0.0875978991
83985.595130,0.0051671735,-0.202081218,0.00169686705,0.0462395586,-0.152007982,0.0822822228
83985.605160,0.0593809943,-0.172041743,0.00982873558,0.057608325,-0.154308692,0.0741846189
83985.615190,0.074916417,-0.155786116,0.0714338356,0.055339843,-0.159603581,0.0637271851
83985.625219,0.11986089,-0.192892607,0.140429046,0.0535243675,-0.159579352,0.061404109
83985.635250,0.181012401,-0.23003205,0.261989725,0.0499818325,-0.152360588,0.0577731505
83985.645280,0.216572959,-0.253734157,0.330434316,0.067402631,-0.136708394,0.0529341921
83985.655309,0.213050045,-0.24459028,0.375795553,0.0987285972,-0.117213786,0.0463529825
83985.665339,0.22023908,-0.250037842,0.435353657,0.117956623,-0.0920005739,0.0464754924
83985.675369,0.274811213,-0.296927055,0.520452445,0.108033419,-0.0568013042,0.0533373952
83985.685399,0.250572259,-0.317515651,0.576803863,0.0723771527,-0.0148189692,0.0759226009
83985.695429,0.268445185,-0.339501493,0.580945785,0.0295250248,0.0232381374,0.106691696
83985.705459,0.272294262,-0.308982363,0.482491256,0.0110805044,0.0581931919,0.136006966
83985.715489,0.239752759,-0.2122934,0.320538945,0.00391340535,0.0894006416,0.152130544
83985.725519,0.196367791,-0.0283837071,0.175355982,-0.00188269874,0.109222554,0.146443099
83985.735548,0.208039524,0.118574668,-0.0266343244,-0.000627550879,0.103438437,0.12549974
83985.745577,0.253361013,0.198366563,-0.180204591,0.00116342492,0.0799299106,0.100092918
83985.755608,0.248661457,0.255171844,-0.245998375,0.00686099194,0.0513515286,0.0821317583
83985.765638,0.229817056,0.284131433,-0.189001646,-0.00589741394,0.0386783443,0.0635679215
83985.775667,0.239272866,0.30068385,-0.0754079999,-0.0224122088,0.0382557027,0.0516710505
83985.785698,0.222925543,0.283746288,0.00977554408,-0.0332110599,0.0469863415,0.0406354442
83985.795728,0.21354572,0.256518418,0.00335749373,-0.0227677394,0.0558200479,0.0370284617
83985.805757,0.188795894,0.240076127,-0.0360714303,-0.00994062517,0.050888408,0.0331703387
83985.815787,0.201276021,0.224200823,-0.0706084907,-0.00740343146,0.0375480987,0.0323535465
83985.825817,0.213963653,0.27248372,-0.0247311212,-0.032156717,0.0269194245,0.0268637072
83985.835847,0.153901106,0.354308784,0.0265220962,-0.0562830903,0.0121031934,0.0153798899
83985.845877,0.0866325738,0.392640085,0.0758253486,-0.0612778477,3.34809301e-05,-0.000421976671
83985.855907,0.082377839,0.41032432,0.115724813,-0.0402575172,-0.00234525464,-0.0258849915
83985.865937,0.0502665444,0.40884369,0.226665314,-0.0249539297,0.0078884745,-0.0518793091
83985.875967,0.0121083709,0.438806428,0.312094357,-0.0144379046,0.0234466624,-0.0849078298
83985.885996,-4.09165323e-06,0.455848237,0.314894801,-0.00185739866,0.0393843502,-0.1162607
83985.896025,-0.0430360087,0.383919165,0.326599852,-0.000814504805,0.0550184362,-0.145848691
83985.906056,-0.0499023873,0.275370966,0.253060569,0.00651664566,0.0618763417,-0.161140829
83985.916086,-0.0763116708,0.105774013,0.176837745,0.0132773463,0.0641560107,-0.162021801
83985.926115,-0.100798462,-0.0494501865,0.117528063,0.00532834232,0.063076891,-0.14944075
83985.936146,-0.108456283,-0.18337091,0.10083061,-0.00619675312,0.0601226501,-0.122391827
83985.946176,-0.143602415,-0.218043726,0.0509200399,-0.0168936066,0.0601863004,-0.0995877087
83985.956205,-0.215584532,-0.193100715,0.00495499206,-0.019825479,0.0535310619,-0.0896645039
83985.966235,-0.326264921,-0.195185559,-0.0475432569,-0.0183876399,0.0363246426,-0.0776480511
83985.976265,-0.353998731,-0.192457394,-0.0714314975,-0.0151287289,0.0121415425,-0.0643160045
83985.986295,-0.288364522,-0.201842532,-0.0691793347,-0.0191911142,-0.0101302071,-0.0481918976
83985.996325,-0.283731017,-0.21579507,-0.00107259767,-0.0351674184,-0.0257107634,-0.0244450215
83986.006355,-0.308892346,-0.198974229,0.0588105009,-0.0442037918,-0.0307736993,0.000546082854
83986.016385,-0.274260593,-0.167370537,0.0920364787,-0.0482858829,-0.031352669,0.0261739474
83986.026415,-0.230354232,-0.10461064,0.0895189429,-0.0411336981,-0.030208841,0.0441026166
83986.036445,-0.260029239,0.0116382966,0.031630233,-0.0224822499,-0.040884655,0.0516532063
83986.046473,-0.227155143,0.0498296052,-0.0458925671,-0.0166552532,-0.060525734,0.0593276396
83986.056504,-0.147687054,0.0503755304,-0.0891945332,-0.0220785141,-0.103122197,0.0670715794
83986.066534,-0.0737666625,0.097159466,-0.0552069234,-0.0389302,-0.142355084,0.0596078038
83986.076563,-0.0671966364,0.137189726,0.067625091,-0.046473071,-0.160111189,0.043942295
83986.086594,-0.0724222621,0.126934573,0.219577401,-0.0300118048,-0.149097145,0.0258695483
83986.096624,-0.0847322931,0.0820052976,0.310019889,0.00262070657,-0.127359092,0.00891719665
83986.106653,-0.050630117,0.0521678297,0.382231723,0.0403273404,-0.104457773,-0.00356370769
83986.116684,-0.0248141233,-0.00205964508,0.397481899,0.0555228032,-0.0660872161,-0.00927805156
83986.126713,-0.0372924966,-0.0706645317,0.381579981,0.0528844111,-0.0352821648,-0.0113864765
83986.136743,0.0151397015,-0.132497888,0.258515912,0.0563393272,-0.0153683787,-0.000350071117
83986.146773,0.0574772065,-0.205689161,0.138252286,0.0476670116,-0.00512239896,0.0127979554
83986.156803,0.1801514,-0.281399286,0.0247065712,0.0416525267,-0.000517526991,0.026104439
83986.166833,0.281491129,-0.330716275,-0.0597106646,0.0360034294,-0.0028419341,0.0453337952
83986.176863,0.287733238,-0.31587183,-0.0810369457,0.0238980316,0.00261248602,0.0606291294
83986.186893,0.298606514,-0.27073989,-0.0578431172,0.0183101874,0.0204442143,0.0660694316
83986.196923,0.335271235,-0.23914334,-0.11728081,0.0325860642,0.0330260545,0.069544062
83986.206952,0.352449748,-0.214977397,-0.209518949,0.0415587835,0.0337794609,0.0752525479
83986.216982,0.431336823,-0.192657538,-0.254492063,0.040118549,0.0247002114,0.0818198994
83986.227011,0.480063736,-0.189427762,-0.281756502,0.0288642943,0.00476458669,0.0894738287
83986.237042,0.471939467,-0.186924876,-0.303278598,0.0168358609,-0.0208483636,0.102980845
83986.247072,0.468071685,-0.163677893,-0.31374797,-0.0675282851,-0.0792328417,0.116901457
83986.257101,0.502283751,-0.106119127,-0.772069245,-0.0821019039,-0.170327067,0.138850152
83986.267132,0.492774165,-0.0846846181,-0.405756391,0.0267257765,-0.154797375,0.144449458
83986.277161,0.231886848,0.108225872,0.706865828,0.0263729077,-0.106996834,0.111856632
83986.287190,0.232312964,0.264186669,0.603534049,0.0479477085,-0.0624333546,0.0909132659
83986.297220,0.321267844,0.29241219,0.623736879,0.0142776296,-0.0331332609,0.0810166895
83986.307250,0.300085939,0.323460312,0.678467417,-0.0172419474,-0.00737383496,0.0690535009
83986.317280,0.246750655,0.383493962,0.627941345,-0.0401400737,0.0186851975,0.0503439978
83986.327310,0.138111417,0.374986282,0.597043518,-0.0339881703,0.0487275161,0.030623557
83986.337340,0.0160714294,0.408459476,0.522722144,-0.0293326993,0.0867063254,0.00635203999
83986.347370,-0.0918704744,0.369445709,0.427120082,-0.0424482338,0.122680038,-0.0116482656
83986.357400,-0.132767718,0.323045521,0.212477799,-0.0544585586,0.137124494,-0.0233347509
83986.367429,-0.244787831,0.310722996,-0.0566325723,-0.0612104684,0.125401512,-0.0383270159
83986.377459,-0.363092138,0.318283129,-0.282740252,-0.0605004728,0.0810939819,-0.0613556355
83986.387489,-0.435933503,0.345211212,-0.468419476,-0.0419872403,0.0120661752,-0.0881438404
83986.397519,-0.495599744,0.339193924,-0.530792638,-0.0198923256,-0.0651721507,-0.121022962
83986.407549,-0.52595455,0.289753309,-0.484103952,0.0202236697,-0.128261372,-0.151725486
83986.417579,-0.586591097,0.173033805,-0.371770535,0.0613607168,-0.168361649,-0.172412381
83986.427609,-0.579676788,0.0764333244,-0.257409996,0.0892504081,-0.187225893,-0.174130395
83986.437639,-0.483744471,-0.0275424888,-0.133458622,0.0975810438,-0.196010321,-0.160359979
83986.447668,-0.381582319,-0.0758134024,-0.0715904875,0.0849936083,-0.198486269,-0.135739058
83986.457698,-0.240869196,-0.0887187233,0.00583002133,0.0598216765,-0.194032401,-0.111741841
83986.467728,-0.168504217,-0.00262772729,0.00237374339,0.0316659398,-0.194100037,-0.0982689112
83986.477758,-0.100802553,0.0672169577,0.0460790296,0.011671992,-0.201138243,-0.084213011
83986.487788,-0.00321194778,0.112180583,0.104798345,-0.00585586857,-0.203918323,-0.076208882
83986.497818,0.0453314261,0.148097206,0.217307118,-0.0130357509,-0.19954887,-0.0736157596
83986.507848,0.0959673884,0.115900188,0.280640065,-0.0112588899,-0.187274888,-0.0670758337
83986.517878,0.158618783,0.0275322414,0.338132469,-0.0122282803,-0.172179833,-0.0527035594
83986.527908,0.230528419,-0.0479727709,0.407629199,-0.0114596924,-0.140199795,-0.0320723131
83986.537937,0.303072262,-0.142186247,0.44176294,-0.0359898023,-0.102354407,-0.00259112101
83986.547967,0.315374109,-0.180467334,0.480968576,-0.0593142994,-0.0705099255,0.0257947128
83986.557997,0.261623815,-0.169199542,0.460893756,-0.0705903918,-0.0443235971,0.0493170843
83986.568027,0.187551447,-0.160199713,0.462244587,-0.0744466484,-0.0207713991,0.0636195913
83986.578057,0.130022803,-0.191771056,0.461308767,-0.0723036006,0.00327747734,0.0693605691
83986.588087,0.123473235,-0.234855415,0.464810053,-0.0615196638,0.0211725887,0.0782653838
83986.598117,0.0802156925,-0.276842226,0.436805609,-0.0431747437,0.0470257588,0.0811128318
83986.608147,-0.0207908591,-0.276542256,0.408342316,-0.0356811434,0.0730895847,0.0746797025
83986.618176,-0.0956803881,-0.295215246,0.328221901,-0.0226271246,0.0780928656,0.0594091341
83986.628206,-0.106678752,-0.346974824,0.212459678,-0.00544387754,0.0748909414,0.0499210879
83986.638236,-0.154389182,-0.409220085,0.17948446,0.0190199204,0.070233874,0.0324787162
83986.648266,-0.207259187,-0.452134842,0.149088738,0.0574629158,0.0745215639,0.0140014375
83986.658296,-0.216788063,-0.535342118,0.172079737,0.0929101259,0.0904161111,0.0092154704
83986.668326,-0.24505788,-0.601096008,0.156484693,0.120196074,0.119605154,0.0237922817
83986.678356,-0.245788532,-0.64820628,0.0835439601,0.124231823,0.148277014,0.0458842665
83986.688386,-0.183846747,-0.709046241,-0.0412841965,0.122898385,0.16528289,0.0761665404
83986.698416,-0.056224576,-0.743714234,-0.22931729,0.120333493,0.16958417,0.116211429
83986.708445,0.0380775095,-0.722288585,-0.390883232,0.112947747,0.157257453,0.156224355
83986.718475,0.132117729,-0.653879357,-0.565525513,0.0961314812,0.129349396,0.200833365
83986.728505,0.264052503,-0.533949933,-0.654329585,0.061741285,0.078219898,0.238101646
83986.738535,0.34948856,-0.325228126,-0.678104429,0.0341219082,0.00939981826,0.265467227
83986.748565,0.426170818,-0.100116014,-0.577321165,0.0132725518,-0.0548731759,0.275370717
83986.758595,0.506170238,0.153247337,-0.366701561,0.00689907558,-0.103077993,0.264268517
83986.768625,0.539078235,0.390099132,-0.136814947,0.0187056679,-0.12024606,0.236443028
83986.778655,0.571205312,0.555521384,0.115057289,0.0191634651,-0.10911724,0.197769135
83986.788685,0.608028437,0.675410879,0.372103128,0.0101856822,-0.0834291875,0.167539865
83986.798714,0.609556962,0.783953014,0.519376341,-0.0140629318,-0.0453401245,0.135142237
83986.808744,0.582171527,0.879916822,0.630197599,-0.0419267863,0.00491292449,0.101037271
83986.818774,0.542163926,0.939796194,0.68567691,-0.0687655956,0.0620435886,0.0550958738
83986.828804,0.460659363,0.974273341,0.651529726,-0.0822502449,0.116747312,0.00651316158
83986.838834,0.311391762,0.988179993,0.560195258,-0.0887627378,0.161026627,-0.0460845381
83986.848864,0.172775318,0.958902242,0.423090972,-0.0914051235,0.192310512,-0.10381601
83986.858894,0.0124953244,0.856766029,0.278931508,-0.0912211016,0.19760941,-0.153409138
83986.868924,-0.151068513,0.735235087,0.124898884,-0.0890681967,0.182551354,-0.19498454
83986.878954,-0.31132045,0.558137083,0.00311783976,-0.0817450434,0.158260137,-0.220051005
83986.888983,-0.455040354,0.394107674,-0.0877589475,-0.078003563,0.131516144,-0.23440811
83986.899013,-0.498322447,0.202065582,-0.123268652,-0.0719083846,0.100001894,-0.237215623
83986.909043,-0.523645104,0.063101677,-0.180869777,-0.0648203865,0.0703944638,-0.235722914
83986.919073,-0.58751055,-0.0465862302,-0.208103821,-0.0604232401,0.0392716974,-0.229068205
83986.929103,-0.554207415,-0.165023773,-0.249215584,-0.0470618941,0.00219144044,-0.214262635
83986.939133,-0.503671406,-0.273735583,-0.270159003,-0.0502867177,-0.0395019427,-0.193924338
83986.949163,-0.402559641,-0.381615454,-0.234210907,-0.0516547821,-0.0809838697,-0.158425465
83986.959193,-0.324614231,-0.46485824,-0.200731831,-0.0593483895,-0.107829601,-0.116604768
83986.969223,-0.281059167,-0.506191719,-0.100067809,-0.0757076517,-0.126503155,-0.0710199773
83986.979253,-0.185038587,-0.481838345,-0.00221007726,-0.0870857462,-0.139801651,-0.0294866506
83986.989282,-0.124552847,-0.39363359,0.0650812517,-0.0987661034,-0.143309295,-0.00415173359
83986.999312,-0.0695142657,-0.293289009,0.191957573,-0.104777388,-0.138145164,0.00783701893
83987.009342,-0.0355102893,-0.278638516,0.251663562,-0.0954065248,-0.133669719,0.0209328458
83987.019372,-0.00747720401,-0.315804756,0.332243411,-0.0764466822,-0.128700256,0.0396575332
83987.029402,0.00868599528,-0.284636058,0.433720503,-0.0721379519,-0.113849945,0.0628920123
83987.039432,0.0642091451,-0.25927705,0.538175734,-0.0745920539,-0.0885525793,0.087247692
83987.049462,0.0988999347,-0.175724359,0.62552084,-0.0738777965,-0.0463947356,0.104297511
83987.059492,0.0671621496,-0.11998974,0.638458063,-0.074662365,0.0101710698,0.114440426
83987.069522,0.0770177732,-0.0751197302,0.535706129,-0.0673961937,0.050321687,0.11725086
83987.079551,0.152756028,-0.0333811455,0.32316111,-0.0583337247,0.0719657317,0.114547752
83987.089581,0.197238144,-0.0240266855,0.121582307,-0.0482414067,0.0766526237,0.102543026
83987.099611,0.231485866,-0.0111368682,-0.0486567711,-0.036193002,0.0684181303,0.077457644
83987.109641,0.242633867,-0.0809451393,-0.187298934,-0.0144006209,0.0454552919,0.0601968989
83987.119671,0.273420051,-0.232310882,-0.283128375,0.00806926843,0.0153767504,0.0480118692
83987.129701,0.305634221,-0.398644952,-0.241759423,0.0225179829,-0.0132455733,0.0538998544
83987.139731,0.352542103,-0.550478896,-0.14687866,0.0285116918,-0.0198989473,0.0716048181
83987.149761,0.313491364,-0.61742565,0.0192173262,0.0197637416,0.0027847928,0.091931656
83987.159791,0.257874107,-0.6560643,0.113827455,0.0113686584,0.0347203575,0.108885609
83987.169821,0.20388708,-0.620164281,0.144627082,0.00979979057,0.063777037,0.129563719
83987.179850,0.196722596,-0.546714539,0.144987732,0.00771986134,0.092200689,0.148151249
83987.189880,0.158456286,-0.477066308,0.150645319,-0.00984528381,0.110463053,0.164974973
83987.199910,0.140278824,-0.402363132,0.110006435,-0.0197575688,0.117775559,0.184954807
83987.209940,0.188270994,-0.328560046,-0.0158475575,-0.0195208136,0.097946994,0.198095098
83987.219970,0.221893862,-0.198999619,-0.129239543,0.00467400346,0.06009176,0.199469298
83987.230000,0.238863117,-0.0504655011,-0.177919111,0.0400881879,0.014030789,0.191745326
83987.240030,0.213473239,0.165489783,-0.0847954215,0.0697041377,-0.025076665,0.171766564
83987.250060,0.184599027,0.34762737,0.0283142403,0.0857102647,-0.056464415,0.148862839
83987.260090,0.217864752,0.497547699,0.253522341,0.0813831612,-0.0686680824,0.128074482
83987.270120,0.232286076,0.65056826,0.483354595,0.061726369,-0.0494722873,0.107510887
83987.280149,0.207224116,0.775815884,0.704093441,0.033580754,-0.00496074511,0.0835991576
83987.290179,0.159192199,0.864903012,0.768458069,0.00831534434,0.0569665395,0.0554426238
83987.300209,0.100137952,0.900804492,0.778769035,-0.0160294101,0.117266364,0.0268594455
83987.310239,-0.0163607677,0.879017608,0.683894703,-0.0336733833,0.167918086,-0.00107578281
83987.320269,-0.133315415,0.87896522,0.440308065,-0.029589694,0.195735604,-0.0307138357
83987.330299,-0.228657364,0.861338013,0.224269359,-0.0334872305,0.191163763,-0.0663895383
83987.340329,-0.323594825,0.872072903,0.0524029719,-0.0437971242,0.168759644,-0.104741186
83987.350359,-0.4474895,0.801544857,-0.0881926627,-0.0521972664,0.143649772,-0.1419072
83987.360389,-0.521342088,0.650876449,-0.161129304,-0.0488163866,0.117813379,-0.1705551
83987.370419,-0.557395982,0.466528401,-0.264534734,-0.0278629009,0.0894919932,-0.192668125
83987.380448,-0.584205079,0.284447896,-0.337106633,-0.00377434213,0.0644761175,-0.208049476
83987.390478,-0.546908491,0.0577778699,-0.407392468,0.0230748486,0.0367811099,-0.206060097
83987.400508,-0.466353775,-0.157477394,-0.470557657,0.0450022519,0.00922804419,-0.186553508
83987.410538,-0.414119146,-0.323402992,-0.460509141,0.0270906296,-0.0171119496,-0.159022808
83987.420568,-0.326991482,-0.412260951,-0.42189621,-0.00272718724,-0.05201241,-0.127118677
83987.430598,-0.223036017,-0.458871384,-0.436467756,-0.0169500653,-0.102590099,-0.0977277532
83987.440628,-0.206193019,-0.470674598,-0.329745749,-0.0211253688,-0.147431076,-0.0745284259
83987.450658,-0.148090374,-0.503550812,-0.168577867,-0.0162531156,-0.171528414,-0.0451233983
83987.460688,-0.0582926145,-0.54492192,0.0206727857,-0.00803113822,-0.180126965,-0.0136496313
83987.470718,0.0521346764,-0.528228121,0.213161105,-0.00689024013,-0.171076745,0.0238037333
83987.480747,0.133818688,-0.47883003,0.387030063,-0.018115731,-0.148302719,0.0606323257
83987.490777,0.191153855,-0.385830149,0.511775802,-0.0369874239,-0.117714189,0.0876194686
83987.500807,0.215047941,-0.297431991,0.52542322,-0.0381099433,-0.0893368796,0.103172064
83987.510837,0.172301271,-0.181914208,0.489718284,-0.0117624933,-0.076336123,0.113640681
83987.520867,0.136890935,-0.109783102,0.41415714,0.0296070501,-0.0690688938,0.117417045
83987.530897,0.133194418,-0.0737402311,0.345181219,0.0709912404,-0.0608487763,0.117858328
83987.540927,0.228460381,-0.0303675379,0.317584187,0.0868461058,-0.0479364395,0.107212611
83987.550957,0.292045841,0.036883587,0.350290524,0.0703100041,-0.0264942665,0.0904666558
83987.560987,0.30810558,0.0451096366,0.341013578,0.0536266342,0.00163723656,0.0803610235
83987.571017,0.260656431,0.0730177255,0.275203427,0.0373624414,0.0221441109,0.067291826
83987.581046,0.226489957,0.0769940453,0.220810743,0.0358862504,0.0459517054,0.0491114855
83987.591076,0.222180862,0.00733699182,0.164104521,0.0386860333,0.0721670613,0.0368638784
83987.601106,0.189579154,-0.079717077,0.10332535,0.0377688408,0.102943622,0.0282317717
83987.611136,0.125419693,-0.204098275,-0.0242787012,0.0436328538,0.1306317,0.0237976089
83987.621166,0.126087801,-0.289113459,-0.191404031,0.0573867485,0.139090702,0.0274743699
83987.631196,0.153572021,-0.36319432,-0.321634923,0.0527275503,0.132143855,0.0298030376
83987.641226,0.138937931,-0.373980028,-0.425684496,0.0427819751,0.109690204,0.0404655337
83987.651256,0.109716512,-0.353570423,-0.536504001,0.0388945602,0.0719018131,0.0508281589
83987.661286,0.115271808,-0.300389635,-0.517193151,0.041393403,0.0280552618,0.0619870722
83987.671316,0.157585932,-0.254950785,-0.467611667,0.0487125665,-0.00379534578,0.0774243549
83987.681346,0.169466924,-0.176501243,-0.357170932,0.0507048778,-0.0251381844,0.0873217285
83987.691375,0.174922267,-0.0166713132,-0.200084765,0.0506444238,-0.0354571342,0.09976428
83987.701405,0.144336575,0.18543166,-0.0567769492,0.0320638157,-0.0364153385,0.0967980549
83987.711435,0.169010413,0.378786113,0.102450905,0.0112022106,-0.028798433,0.0757697299
83987.721465,0.210451261,0.520299008,0.185616095,0.00526868738,-0.0244433656,0.0466736332
83987.731495,0.164119134,0.635363384,0.248590145,0.0126653519,-0.0318536125,0.013880264
83987.741525,0.132166244,0.757939378,0.391257326,0.0199919734,-0.0296732802,-0.0249209274
83987.751555,0.0864338363,0.863906986,0.548897034,0.0127058318,-0.0119166551,-0.0677035451
83987.761585,-0.0422960039,0.906639117,0.694804219,0.00412432756,0.0233907364,-0.10590712
83987.771615,-0.157034144,0.954411579,0.711501087,0.0125862556,0.077388458,-0.139543921
83987.781645,-0.276608618,0.981170042,0.651955842,-0.00339058042,0.135299161,-0.181238636
83987.791675,-0.374915847,0.935690439,0.518488452,-0.0353373289,0.180405647,-0.219805732
83987.801704,-0.354267611,0.759619952,0.198705294,-0.060574241,0.199099705,-0.25188005
83987.811734,-0.33245267,0.566853912,-0.117802788,-0.0775276572,0.175268412,-0.281301856
83987.821764,-0.326121713,0.380245408,-0.377668361,-0.0716987997,0.120706372,-0.316321075
83987.831794,-0.332657253,0.147749945,-0.489780828,-0.0397099704,0.0600195862,-0.340873033
83987.841824,-0.269288066,-0.14269215,-0.523734536,-9.14565753e-05,0.000555460516,-0.3600896
83987.851854,-0.265617268,-0.385192655,-0.413616457,0.0302486047,-0.045784872,-0.357513011
83987.861884,-0.289103358,-0.651750236,-0.285813084,0.0480686165,-0.0755390376,-0.330685109
83987.871914,-0.249323136,-0.85999069,-0.13363281,0.0578312315,-0.0917081535,-0.281779885
83987.881944,-0.214538238,-0.971382076,0.00515314498,0.0441668183,-0.097724773,-0.222943738
83987.891974,-0.186532625,-1.0741484,0.123285603,0.0317295901,-0.0877333879,-0.155854985
83987.902004,-0.10886954,-1.10537751,0.209622409,0.0131614981,-0.0736865476,-0.0856969282
83987.912034,-0.0466173743,-1.04606037,0.259214415,-0.00355356606,-0.0602226667,-0.0189900678
83987.922063,0.0784504364,-0.957628642,0.221270761,-0.0119872643,-0.0520760566,0.0411611497
83987.932093,0.126813778,-0.806035812,0.247767139,-0.019480601,-0.0553552099,0.0919630826
83987.942123,0.136228672,-0.651669792,0.272536254,-0.0127928704,-0.0501801521,0.134896696
83987.952153,0.182173261,-0.477776064,0.353441682,-0.0263755247,-0.0278617982,0.170217931
83987.962183,0.196939453,-0.263675176,0.437484239,-0.0475031808,-0.00223739631,0.195071623
83987.972213,0.187024208,-0.101117474,0.416999085,-0.0581880473,0.0213899035,0.212933436
83987.982243,0.23705519,0.0208518754,0.367893986,-0.063481085,0.0468923338,0.22720851
83987.992273,0.267333424,0.085915886,0.326913741,-0.0776323229,0.0660724193,0.229557157
83988.002303,0.281038125,0.1285481,0.183985279,-0.069095023,0.0672261044,0.230285794
83988.012333,0.290167772,0.145448966,0.0487783517,-0.0579640754,0.0518444814,0.225884929
83988.022363,0.312440394,0.166950411,0.00694061292,-0.0607982129,0.0306374636,0.219693333
83988.032392,0.340066652,0.166839462,-0.0345551806,-0.0564402156,0.00281195692,0.210118473
83988.042422,0.293985284,0.167245065,-0.0353501303,-0.0373778418,-0.0258330032,0.194923013
83988.052452,0.282646729,0.169134258,-0.0332370837,-0.00622817874,-0.0492824018,0.180030614
83988.062482,0.278144157,0.190168845,-0.00855798499,0.0214521848,-0.0689980537,0.154970273
83988.072512,0.246267255,0.191877786,0.0731324562,0.0426331051,-0.0724998415,0.129172236
83988.082542,0.186406369,0.147857881,0.117743167,0.0512758605,-0.0643673465,0.102466322
83988.092572,0.186529703,0.048654707,0.213749134,0.0500803664,-0.0421768241,0.0852415338
83988.102602,0.192287243,-0.0371428955,0.237982242,0.0523328707,-0.0245680008,0.0830952898
83988.112632,0.0927279681,-0.0770258652,0.206090143,0.0570671707,-0.00355166662,0.0814854056
83988.122662,0.0418131889,-0.0727758613,0.228349906,0.0584570728,0.0140204029,0.0818489268
83988.132692,-0.025447745,-0.0498134852,0.173452195,0.0674841255,0.028016381,0.0829754472
83988.142722,-0.126665309,-0.02160413,0.160521401,0.0673760027,0.0353155732,0.0774600431
83988.152752,-0.151128135,-0.0133835785,0.159825236,0.07230445,0.0430970639,0.0722429082
83988.162781,-0.143144735,-0.0357824391,0.100121001,0.0871853903,0.0597162545,0.0674638599
83988.172811,-0.226879833,-0.0396711171,0.0928068785,0.0854162574,0.0746041238,0.0627676472
83988.182841,-0.246545488,-0.0377747454,-0.0156400522,0.0900687948,0.0823808163,0.0677839741
83988.192871,-0.23239129,0.019209563,-0.119609545,0.0818710551,0.0752363577,0.0609015673
83988.202901,-0.237301859,0.0476692214,-0.156247377,0.0711212009,0.0571660101,0.0481695309
83988.212931,-0.208752641,0.0431190473,-0.25978374,0.0765782893,0.026075203,0.0382641666
83988.222961,-0.166811441,0.0337378363,-0.319064781,0.092288807,-0.0113986703,0.0266525187
83988.232991,-0.161803258,0.0381594613,-0.287360313,0.100718774,-0.0456080399,0.0167346392
83988.243021,-0.15361586,0.0408847854,-0.189880182,0.0950465128,-0.0693218932,0.010273545
83988.253051,-0.106585813,0.0299389372,-0.0992360348,0.0929713771,-0.0797066242,0.0129915662
83988.263081,-0.0445925904,-0.0262850361,-0.0210123929,0.0878858045,-0.0734950602,0.0170164034
83988.273111,-0.016888591,-0.0567861737,0.0473953729,0.0791716725,-0.0614671633,0.0198950134
83988.283141,-0.00175064306,-0.064078267,0.0478846177,0.0631258637,-0.0531708822,0.0269012563
83988.293170,0.0363864876,-0.0629390155,0.0639104544,0.0438493714,-0.0495114326,0.035207659
83988.303200,0.050643561,-0.0437355626,0.041978024,0.0312861726,-0.051774323,0.0374511033
83988.313230,0.0592868862,-0.0408212278,0.0485416203,0.0183762349,-0.0509647205,0.0437840968
83988.323260,0.0825520265,-0.0633397601,0.0820522603,0.00392991677,-0.050978303,0.0489319935
83988.333290,0.130540105,-0.0600286445,0.0971066215,-0.00233623502,-0.0516744554,0.0543334112
83988.343320,0.138799983,-0.0778729653,0.130184715,4.14351234e-05,-0.0534196235,0.0639346391
83988.353350,0.112066875,-0.0678120193,0.163820443,-0.00441403314,-0.0530664884,0.0765748024
83988.363380,0.133677234,-0.0668202591,0.214008661,-0.00761382096,-0.0497623049,0.0971208289
83988.373410,0.162771226,-0.0267955977,0.234337748,-0.00828440487,-0.0416662954,0.108302906
83988.383440,0.138991122,0.0442829126,0.24204993,-0.0060191201,-0.028946504,0.112092853
83988.393470,0.0975344916,0.113122375,0.226817874,-0.00205154298,-0.0248273928,0.108825684
83988.403500,0.112767132,0.147123904,0.205890821,0.0023016599,-0.0198251773,0.107339107
83988.413530,0.144908822,0.162274529,0.18043314,-0.000528747623,-0.0124032153,0.0988910273
83988.423559,0.126048054,0.131466353,0.149071787,-0.0045210924,-0.00938798394,0.0938733667
83988.433589,0.149436528,0.030324886,0.11198095,0.00719255581,-0.013606431,0.0958736688
83988.443619,0.164725283,0.00581544481,0.0830424403,0.0228852313,-0.0197476801,0.100748315
83988.453649,0.125162503,0.0220580112,0.117524556,0.0320992358,-0.0208787248,0.102657542
83988.463679,0.0858130741,0.0516766852,0.155969145,0.0374908075,-0.0127017554,0.102456473
83988.473709,0.0654641136,0.0934330659,0.201208217,0.0306275748,0.00286255684,0.101018362
83988.483739,0.0844371096,0.113327396,0.192629773,0.0238572862,0.021096956,0.0920861214
83988.493769,0.0813829827,0.147151705,0.163130707,0.00255492679,0.0405670591,0.0793612674
83988.503799,0.0283265153,0.142157769,0.121864631,-0.00540419668,0.0470404066,0.0626890808
83988.513829,0.00617313568,0.112150279,-0.0178688342,0.0132677583,0.0362934843,0.0490451753
83988.523859,-0.0212333422,0.0282599529,-0.0987339305,0.0408618338,0.0140070869,0.0437153876
83988.533889,-0.044286301,-0.0371457085,-0.0703343499,0.0571515933,-0.00265231729,0.0445785224
83988.543919,-0.0619084669,-0.114733573,-0.0307522811,0.0740213841,-0.0175652187,0.0548215732
83988.553948,-0.0467740261,-0.168056564,0.0238829799,0.0751375183,-0.0222667642,0.0671916902
83988.563978,-0.0748790076,-0.14415888,0.108092126,0.0563289411,-0.0169726666,0.0826534703
83988.574008,-0.123364514,-0.113724506,0.176623226,0.0234317128,-0.00864842441,0.0954148024
83988.584038,-0.111104752,-0.0852953338,0.170783852,-0.0105582122,-0.00337003917,0.0999203399
83988.594068,-0.0679348876,-0.0619946291,0.116622054,-0.0144165996,-0.00882232841,0.101347797
83988.604098,-0.124357617,-0.0186974122,0.0700783294,-0.013393946,-0.0184083767,0.0969477221
83988.614128,-0.178533443,-0.00190154104,0.0589309124,-0.0104769859,-0.0343718976,0.102194414
83988.624158,-0.104561029,-0.0632857283,0.00148234751,0.00581010804,-0.0625401512,0.118224517
83988.634188,-0.0216156195,-0.181068149,-0.0458346995,0.046149008,-0.0988001525,0.146358147
83988.644218,-0.0365279419,-0.247063393,-0.0364577993,0.103280738,-0.13045609,0.190069929
83988.654248,-0.0687210695,-0.191349926,0.0920686274,0.143277675,-0.136010632,0.232056007
83988.664278,-0.0808820474,-0.13076109,0.282738499,0.153173193,-0.115730934,0.279240012
83988.674308,-0.0508645103,-0.102071788,0.460875636,0.12396311,-0.067913346,0.329749018
83988.684338,0.0328740956,-0.00209770293,0.536618567,0.065106988,-0.0121813733,0.357779294
83988.694368,0.0906307035,0.147295936,0.509196307,0.00735154655,0.0317461379,0.358295441
83988.704397,0.0824094031,0.256304446,0.416210565,-0.0389802642,0.0559060685,0.344837397
83988.714427,0.085264208,0.327322102,0.276018835,-0.051285401,0.0512719005,0.324837595
83988.724457,0.131343822,0.297093333,0.149883103,-0.014885582,0.0313834138,0.311905026
83988.734487,0.142062785,0.258412451,0.180249015,0.026414454,0.0178782586,0.307305753
83988.744517,0.0741612148,0.204950545,0.286751242,0.0756389871,0.0145389205,0.309117228
83988.754547,0.0741331577,0.151931633,0.332678295,0.132270306,0.0267830696,0.330808401
83988.764577,0.0431412226,0.0617874343,0.368956062,0.174046516,0.0444190539,0.372567832
83988.774607,0.057037646,0.0485824273,0.42698155,0.174550653,0.066618897,0.40846619
83988.784637,0.0871463685,0.10885416,0.405692094,0.161557093,0.0837254524,0.444942713
83988.794667,0.12503157,0.21734935,0.336547246,0.142352507,0.103155605,0.469891727
83988.804697,0.21580782,0.222205814,0.271959331,0.131520629,0.118226968,0.452222466
83988.814727,0.235250187,0.230273823,0.312253932,0.119681552,0.138443023,0.416418642
83988.824757,0.123875386,0.27286344,0.307446239,0.124453939,0.165081561,0.380155712
83988.834787,0.0965799673,0.228535674,0.242931974,0.154932201,0.186376989,0.359780133
83988.844817,0.308082783,0.031857612,-0.0722393068,0.285809278,0.204596475,0.385398954
83988.854846,0.117093763,-0.164129436,0.221378898,0.297320515,0.202430531,0.402698308
83988.864876,0.159230777,-0.375106146,-0.0355313321,0.561351657,0.307978511,0.396613002
83988.874906,0.47362289,-0.440928388,0.277786429,0.43015182,0.309121281,0.487003058
83988.884936,-0.837585966,0.17084172,1.19991881,0.165372327,0.310223281,0.449088722
83988.894966,-0.356376566,-0.159245134,0.0975707319,0.0921183676,0.314667851,0.495690048
83988.904996,0.330852834,-0.383823742,-0.0887093801,0.0443306044,0.287576824,0.550527453
83988.915026,0.190937582,-0.379694606,-0.0131564187,-0.00780290551,0.273614138,0.56430316
83988.925056,0.0363987626,-0.380866572,0.0136456635,-0.0229693409,0.287056714,0.543290555
83988.935086,0.147967625,-0.403024117,0.00285305134,0.014164445,0.310892016,0.552071571
83988.945116,0.261444366,-0.455077033,0.0231190098,0.0122887809,0.332598627,0.546034694
83988.955146,-0.493486697,-0.0804029587,0.66286945,-0.0991032571,0.338743359,0.49522984
83988.965176,-0.223370364,-0.16059264,-0.0268844998,-0.0840217769,0.334769636,0.482717782
83988.975206,0.0474298597,-0.200059996,-0.166216398,-0.0471945181,0.304634631,0.481278062
83988.985236,-0.164034378,-0.0497591064,-0.201278359,0.0153018814,0.28953132,0.456034243
83988.995266,-0.247560802,0.0174091077,-0.208267487,0.0660097972,0.278820902,0.427741885
83989.005296,-0.131770523,0.0217906838,-0.231186591,0.12506485,0.259826422,0.395653188
83989.015326,-0.080202833,0.0706616822,-0.306209391,0.185346842,0.235441208,0.353440225
83989.025355,-0.141980952,0.159114165,-0.346824894,0.241220757,0.195147052,0.298166573
83989.035385,-0.152763042,0.163511158,-0.455076595,0.306836545,0.136047244,0.244785637
83989.045415,-0.100324415,0.159577618,-0.475201683,0.362467319,0.0785924718,0.207212701
83989.055445,-0.0842529852,0.135852166,-0.424596701,0.368330508,0.0337048918,0.192244411
83989.065475,-0.0685667557,0.109817708,-0.239009832,0.328167379,0.0186210144,0.185298353
83989.075505,-0.0318950214,0.0638346857,-0.125336691,0.269933105,0.0261955764,0.184164375
83989.085535,0.0525479334,-0.0258073721,-0.0684212098,0.20456554,0.0390434638,0.21108228
83989.095565,0.0122241063,-0.0600972528,-0.0380091204,0.147507578,0.0439367555,0.213265538
83989.105595,0.026167876,0.0280254865,-0.0218441675,0.109747961,0.0384964533,0.203484014
83989.115625,0.0539975476,0.0997811014,-0.0146948803,0.102838919,0.0288179927,0.179478005
83989.125655,0.0229039057,0.216344119,0.0520341386,0.0988010317,0.0257417746,0.141002789
83989.135685,0.0149123224,0.274949379,0.154788411,0.103330277,0.0333280563,0.103524663
83989.145715,0.0599959113,0.264745381,0.242612825,0.121080771,0.043778833,0.0629146546
83989.155745,0.111218149,0.272506955,0.347414677,0.133657008,0.0670529976,0.0186670292
83989.165775,0.201602769,0.222683843,0.423413628,0.144591421,0.102085017,-0.00781517848
83989.175805,0.236811445,0.151120097,0.518272179,0.12960422,0.145845547,-0.0245888326
83989.185835,0.19519524,0.0746693835,0.596824906,0.0938427597,0.201998293,-0.0292656105
83989.195864,0.216164963,0.0202763337,0.609476298,0.044530075,0.262876809,-0.0336558297
83989.205894,0.125647072,-0.00383665555,0.588438186,-0.00262039434,0.310699463,-0.0349874124
83989.215924,0.0376204133,-0.0411421577,0.420346057,-0.0271182805,0.333028734,-0.0224548411
83989.225954,0.0416506918,-0.0868858179,0.2637316,-0.0104676643,0.325666159,-0.00421911199
83989.235984,0.0550245526,-0.131594874,0.0884866772,0.043499697,0.299498737,0.000962867402
83989.246014,0.0402314726,-0.125997274,0.0523059413,0.101274848,0.27587676,-0.00150055718
83989.256044,0.0287526318,-0.0610877251,0.0604886632,0.146129921,0.255714506,-0.017142633
83989.266074,0.0886579421,-0.0563154692,0.00977612861,0.165460214,0.239323825,-0.0255430434
83989.276104,0.117089087,-0.0705927817,0.0450841734,0.123164967,0.2305796,-0.0120219067
83989.286134,0.062578329,-0.0445566423,0.133056471,0.0413172357,0.236747488,0.0189117752
83989.296164,0.0694610742,-0.0204477447,0.119268184,-0.0316118337,0.259487927,0.0540782809
83989.306194,0.0455044446,0.0778890031,0.118373866,-0.114620164,0.287283361,0.0621484593
83989.316224,-0.0466553682,0.269154868,0.135144968,-0.179419145,0.316267073,0.0274048615
83989.326254,-0.0771229872,0.401492815,0.00690846421,-0.188842744,0.325725019,-0.0238348898
83989.336284,-0.0884568666,0.420955129,-0.110053781,-0.154295415,0.321010679,-0.0646504983
83989.346314,-0.153064656,0.432220181,-0.0904582696,-0.12675193,0.333935529,-0.0982601196
83989.356344,-0.238476163,0.428798609,0.0405050289,-0.146068379,0.366306007,-0.126886979
83989.366374,-0.246564777,0.409232689,0.150992526,-0.19927913,0.412699342,-0.157471791
83989.376404,-0.170571671,0.372769264,0.235124515,-0.28052789,0.478844523,-0.192000464
83989.386433,-0.161358437,0.307368351,0.234933376,-0.355659395,0.54036653,-0.226886287
83989.396463,-0.210433726,0.226393073,0.00109305593,-0.368844181,0.564810038,-0.26338011
83989.406493,-0.230098795,0.177668643,-0.168200265,-0.34746778,0.592391372,-0.271553606
83989.416523,-0.363687766,0.122419488,-0.137580671,-0.322826356,0.63815403,-0.275871128
83989.426553,-0.403389662,0.0412705333,-0.234779062,-0.231586739,0.659908593,-0.283379376
83989.436583,-0.310982012,0.0941585123,-0.719798375,0.0163213387,0.604189456,-0.291715354
83989.446613,-0.365506798,0.147367028,-0.796878692,0.196609616,0.582901478,-0.313625157
83989.456643,-0.378874229,0.209619998,-0.607607582,0.229817629,0.586122274,-0.35353291
83989.466673,-0.337449748,0.140533968,-0.72931673,0.282101095,0.615882814,-0.377525598
83989.476703,-0.279127323,-0.0573721386,-0.789547619,0.140404135,0.555520177,-0.351498246
83989.486733,-0.58936933,-0.0928249987,-0.859298031,0.126815885,0.494959861,-0.343154579
83989.496763,-0.44149289,-0.306764102,-1.28024556,0.156983376,0.412489742,-0.319222867
83989.506793,-0.458250548,-0.304303192,-0.979791958,0.0621170551,0.351324379,-0.32669276
83989.516823,-0.930856662,0.0658354311,-0.6449597,0.309981465,0.404657125,-0.36632514
83989.526853,-0.69780457,-0.30485067,-1.15170218,0.37849021,0.368392855,-0.357085824
83989.536883,-0.446816424,-0.103639567,-0.56686816,0.286232442,0.336664736,-0.362416416
83989.546913,-0.526010956,0.11546397,-0.501709751,0.212986454,0.361379147,-0.398952574
83989.556943,-0.553735122,0.21305874,-0.35063247,0.176482767,0.394564003,-0.441198856
83989.566973,-0.452339863,0.299026457,-0.348031932,0.285287023,0.428714782,-0.484172404
83989.577003,-0.371935078,0.226907416,-0.647984016,0.480556667,0.432942808,-0.519547701
83989.587033,-0.255887901,0.184472734,-0.787704037,0.589618444,0.393392473,-0.538375735
83989.597062,-0.0686848292,0.183497477,-0.943688964,0.616745949,0.306129217,-0.54552418
83989.607092,0.0545417375,0.104171829,-0.998852048,0.572067678,0.197082639,-0.545380116
83989.617122,0.113489017,-0.0294922803,-1.12915834,0.581010282,0.0927559584,-0.525049508
83989.627152,0.178250535,-0.217159435,-1.22015262,0.543396056,-0.0294876583,-0.480555564
83989.637182,0.148427643,-0.297445161,-1.02222591,0.492324382,-0.117761858,-0.416396558
83989.647212,0.0944502618,-0.369739175,-0.980144425,0.479477286,-0.168864727,-0.345291764
83989.657242,0.102331078,-0.373452058,-0.872225902,0.45736292,-0.216514543,-0.260704964
83989.667272,0.20106384,-0.239256135,-0.836117062,0.460455656,-0.254145563,-0.180317715
83989.677302,0.293059402,0.00543930498,-0.929828781,0.417557985,-0.301934898,-0.129779443
83989.687332,0.361539064,0.288811334,-0.898007993,0.328054994,-0.36996457,-0.116104625
83989.697362,0.372232307,0.480987939,-0.84509298,0.247226983,-0.433540881,-0.123025127
83989.707392,0.243961317,0.567526879,-0.742913293,0.235057399,-0.467150241,-0.136922568
83989.717422,0.118973293,0.627751813,-0.590125117,0.240922213,-0.467089236,-0.143912569
83989.727452,0.0219482124,0.599008717,-0.36992403,0.241917446,-0.432308614,-0.150510281
83989.737482,0.106729605,0.435890613,-0.24479426,0.229279935,-0.39375326,-0.139534861
83989.747512,0.315984935,0.26591837,-0.160105222,0.183377966,-0.350096852,-0.109461643
83989.757542,0.481682277,0.171156302,-0.108256961,0.126634255,-0.316282421,-0.0739643723
83989.767572,0.467547954,0.246920349,-0.127512281,0.0647975281,-0.285848081,-0.0451036915
83989.777602,0.383883582,0.424143039,-0.215313314,0.0325218812,-0.278886318,-0.0429718345
83989.787632,0.312464944,0.592620075,-0.375884984,0.0377685726,-0.299995065,-0.0667988658
83989.797662,0.361964596,0.622465471,-0.424020362,0.0593292601,-0.331548452,-0.103426918
83989.807692,0.376190689,0.640589668,-0.37773675,0.0844215602,-0.359893292,-0.136024818
83989.817722,0.295988441,0.593139971,-0.359427771,0.10139975,-0.389473289,-0.168779835
83989.827751,0.322207755,0.376519337,-0.333112011,0.120168112,-0.422763318,-0.188133553
83989.837781,0.438915149,0.161985994,-0.179603118,0.107433669,-0.442881107,-0.178512886
83989.847811,0.494919945,0.0124226245,0.0936129342,0.0547291823,-0.434987783,-0.145974115
83989.857841,0.50995677,-0.0487722507,0.324456411,-0.00876776874,-0.400267601,-0.113267303
83989.867871,0.555524343,-0.0354795654,0.473072855,-0.0542726703,-0.356436759,-0.0918959677
83989.877901,0.57041913,0.0386995869,0.509880198,-0.0536537506,-0.316986293,-0.0907212421
83989.887931,0.477742015,0.13136976,0.584557546,-0.044722572,-0.281154275,-0.114598617
83989.897961,0.41633916,0.0805870831,0.742099639,-0.0416588746,-0.21938169,-0.133377105
83989.907991,0.434325483,0.00799702664,0.83089319,-0.0444341525,-0.151267618,-0.144798607
83989.918021,0.369881945,-0.031788127,0.789800717,-0.0492235832,-0.097680293,-0.148399726
83989.928051,0.303791224,-0.0621535642,0.716503425,-0.0567302331,-0.0635950267,-0.151802987
83989.938081,0.311322204,-0.0741251571,0.670401015,-0.0514374673,-0.0465662442,-0.156068563
83989.948111,0.340611427,-0.165963848,0.624742841,-0.0416117348,-0.0271462072,-0.140919447
83989.958141,0.357615168,-0.245585228,0.759793701,-0.0645332932,-0.00887026545,-0.124574549
83989.968171,0.380926486,-0.253971948,0.787380212,-0.0766948909,0.0131969536,-0.103051148
83989.978201,0.399423096,-0.197834393,0.701255587,-0.0882261097,0.0439487398,-0.0940299556
83989.988231,0.316146847,-0.0845555118,0.614337767,-0.0906373337,0.0624848753,-0.0909928903
83989.998261,0.240944015,0.00107942927,0.40811786,-0.0766594708,0.0538610257,-0.0997429714
83990.008291,0.207388366,0.03777575,0.183799986,-0.0345756635,0.0200782958,-0.11944557
83990.018321,0.204436531,0.0481840391,0.0459048421,0.0104741026,-0.0362563506,-0.146075591
83990.028351,0.198541043,-0.0132186337,0.0601525631,0.0384844318,-0.0768138915,-0.155268818
83990.038381,0.203299051,-0.0988693934,0.0783639271,0.0488497205,-0.107187249,-0.147382393
83990.048411,0.189438868,-0.149484678,0.11108254,0.0329013802,-0.135061488,-0.138430178
83990.058441,0.175072489,-0.230550704,0.115000006,0.0198633429,-0.151954725,-0.120517217
83990.068471,0.156453714,-0.264617297,0.0504682045,0.0265638568,-0.170971289,-0.0904349536
83990.078501,0.0541904399,-0.211438226,0.0531722027,0.0105244359,-0.199757129,-0.0781399384
83990.088531,0.0177139359,-0.106908834,0.0346498731,-0.00360922609,-0.229062557,-0.0728437081
83990.098560,0.0395697938,-0.0566331568,0.0251128139,-0.0129260281,-0.26086098,-0.0704303533
83990.108590,-0.003711714,-0.0554318913,-0.00451309351,0.00475389883,-0.297544152,-0.0729294643
83990.118620,0.00300502703,-0.040338294,0.0172375505,0.0282136854,-0.329823524,-0.0743851513
83990.128650,-0.0199316119,-0.00711969581,0.0861614491,0.0599119589,-0.364202559,-0.0868450105
83990.138680,0.0122094932,-0.00132350369,0.162931385,0.0878591686,-0.385158151,-0.0974518508
83990.148710,0.0117272627,-0.0284979263,0.305748787,0.0909428447,-0.388009608,-0.0985474735
83990.158740,0.0681400548,-0.0224167798,0.40363633,0.0712237358,-0.383342952,-0.0933524445
83990.168770,0.128012632,-0.0434935432,0.481200047,0.0574285612,-0.373266876,-0.0870905593
83990.178800,0.0993272202,-0.051242696,0.469286906,0.0552144088,-0.368764013,-0.0820462629
83990.188830,0.0640267742,-0.0785132725,0.456057422,0.0500039347,-0.370025814,-0.0662183017
83990.198860,0.029307343,-0.116545116,0.512107811,0.0181541257,-0.373436272,-0.0484238565
83990.208890,0.0692775344,-0.144005297,0.576168487,-0.0248146467,-0.368530452,-0.0211783871
83990.218920,0.120692664,-0.140291829,0.604998276,-0.0609180555,-0.364133298,-0.00407689903
83990.228950,0.150346629,-0.0569997982,0.627509968,-0.0793790892,-0.362998009,0.00258473214
83990.238980,0.141571202,0.0765486944,0.7009832,-0.0743198842,-0.354524076,-0.00646788441
83990.249010,0.0380021061,0.22205614,0.752774178,-0.0533626676,-0.335513651,-0.0222633611
83990.259040,-0.0688847357,0.327729733,0.817184398,-0.0368388183,-0.31180644,-0.0463457927
83990.269070,-0.056931263,0.365222209,0.874461114,-0.0381701328,-0.287862241,-0.0752458796
83990.279100,0.0546539657,0.307405322,0.884261792,-0.0185479615,-0.267556965,-0.102683097
83990.289130,0.0342775327,0.210596953,0.860951059,0.000888320385,-0.248575792,-0.119680189
83990.299160,0.0379547599,0.0793747847,0.905969766,0.00567508582,-0.218738005,-0.126421198
83990.309190,0.057745502,-0.0422544298,0.927904534,-0.0277238823,-0.184157401,-0.113880359
83990.319220,0.0791588769,-0.158336459,0.964241338,-0.0882516727,-0.150699571,-0.0910530761
83990.329250,0.0764689072,-0.174542182,0.934236076,-0.137752652,-0.122225583,-0.0633663163
83990.339280,0.0108878892,-0.13192133,0.867930251,-0.158960208,-0.0909137353,-0.050913915
83990.349310,-0.00337561391,-0.0411967375,0.791664757,-0.146804735,-0.0720284581,-0.0544111729
83990.359340,-0.00921966377,-0.0131996733,0.693100922,-0.116538703,-0.0700739697,-0.0665964708
83990.369370,-0.0188379715,0.040367374,0.589288081,-0.088562198,-0.0888132975,-0.0845818594
83990.379400,-0.0364566303,0.0788627435,0.593982376,-0.0832822174,-0.113031022,-0.100013547
83990.389430,-0.0225789116,0.0879358384,0.685730101,-0.093543373,-0.138246626,-0.112568751
83990.399460,-0.0318365692,0.075518913,0.741948248,-0.0866156965,-0.157310873,-0.127768487
83990.409490,-0.0861813229,0.00467829401,0.854509043,-0.0618650764,-0.153875917,-0.136495396
83990.419520,-0.1268658,-0.109647758,1.00768184,-0.0287145786,-0.132205248,-0.132948861
83990.429550,-0.113782447,-0.20657084,1.10048404,-0.0127537223,-0.0965662971,-0.121605657
83990.439579,-0.0488888263,-0.29372751,1.19946581,-0.0396409966,-0.0477779843,-0.0981445387
83990.449609,0.0331026437,-0.34760377,1.27555127,-0.0925891623,0.00442077266,-0.0645317212
83990.459639,0.0316249723,-0.303234247,1.22902858,-0.134288952,0.0515784323,-0.0367831811
83990.469669,-0.0235047942,-0.221890501,1.16668933,-0.148272946,0.0955101997,-0.0202777069
83990.479699,-0.0779132608,-0.0755753193,1.0249188,-0.13334246,0.130225837,-0.0199903511
83990.489729,-0.0891045169,0.0611979805,0.855634248,-0.110601991,0.147591516,-0.0258700792
83990.499759,-0.0836386527,0.153242496,0.747750796,-0.10666424,0.149604067,-0.0378961116
83990.509789,-0.052350365,0.222089969,0.657717474,-0.112217993,0.135461882,-0.0548905432
83990.519819,0.0287298354,0.208658313,0.622344548,-0.122703925,0.121673629,-0.0702796206
83990.529849,0.0230634802,0.153683007,0.650944619,-0.132711023,0.118018173,-0.072905764
83990.539879,-0.0367728566,0.0807711344,0.655519672,-0.142402798,0.119462676,-0.0649386495
83990.549909,-0.0359340677,0.023746421,0.645858694,-0.136801913,0.119639508,-0.0590751693
83990.559939,0.000336100087,-0.0146194039,0.597941928,-0.120188572,0.108655035,-0.0513788983
83990.569969,-0.0270569338,-0.0614836656,0.577319411,-0.108860284,0.0981230289,-0.0400133282
83990.579999,-0.011855273,-0.0302215353,0.619403233,-0.116945907,0.0995424986,-0.031739682
83990.590029,-0.0128057056,0.0253251415,0.663201459,-0.156065613,0.109366633,-0.024947824
83990.600059,0.00282967047,0.0797314161,0.635892596,-0.197793886,0.119147353,-0.0215022285
83990.610089,0.0359194546,0.185655623,0.547478984,-0.235992402,0.123047821,-0.0287958253
83990.620119,0.0192038822,0.206836322,0.4563415,-0.24970369,0.111478247,-0.0424495861
83990.630149,-0.0250385797,0.179188656,0.282232887,-0.229604542,0.0763309151,-0.0597268417
83990.640179,-0.0268833308,0.0879664527,0.212784673,-0.192412436,0.0227318704,-0.0788355544
83990.650209,-0.0407575423,-0.0324649668,0.115455933,-0.105045833,-0.0262556467,-0.0925124884
83990.660239,-0.0554518381,-0.155668335,0.0801911426,-0.0105701964,-0.0616791472,-0.0904208422
83990.670269,-0.0327221199,-0.232667696,0.158799984,0.0429992899,-0.0879363194,-0.0827994049
83990.680299,-0.0125602064,-0.215305642,0.261820798,0.0445385948,-0.107861027,-0.0751731768
83990.690329,-0.0189823484,-0.171920492,0.44923196,-0.0103845736,-0.101234548,-0.0629966706
83990.700359,0.0078641575,-0.152709522,0.673534052,-0.106648795,-0.064237386,-0.0432732999
83990.710389,0.0510275919,-0.192700062,0.872858355,-0.194956288,0.0023815902,-0.0190124381
83990.720419,0.0453869557,-0.258549229,0.964572762,-0.249782786,0.0860727578,0.00869961642
83990.730449,0.0373895272,-0.30780013,0.898542246,-0.242115811,0.173427105,0.0304736216
83990.740479,0.10276304,-0.307968948,0.77016838,-0.199332401,0.254084647,0.0468741655
83990.750509,0.0296750073,-0.205856481,0.554700752,-0.152729213,0.305633068,0.0568583608
83990.760539,-0.00954290437,-0.137990932,0.28636838,-0.112782314,0.323957205,0.0531776026
83990.770569,0.128114923,-0.0713908002,0.058960723,-0.100224182,0.311382025,0.0415257365
83990.780599,0.162312376,0.0260343858,-0.117221189,-0.107849613,0.273968071,0.0270634443
83990.790629,0.1423492,0.0763865261,-0.170357151,-0.12259607,0.25445804,0.0114970012
83990.800659,0.193549226,0.0782841764,-0.115661684,-0.141336471,0.262626469,0.0176294632
83990.810689,0.203922736,0.117302693,-0.129060095,-0.135477245,0.27175045,0.0201141909
83990.820719,0.19191198,0.192136656,-0.193628137,-0.122697003,0.269710749,0.00538051873
83990.830749,0.210291687,0.230284783,-0.222783504,-0.119808272,0.267129093,-0.00638026651
83990.840779,0.1813561,0.159080007,-0.241826058,-0.125111163,0.2536937,-0.00551127736
83990.850809,0.196941791,0.104201694,-0.277334009,-0.130288616,0.226573154,-0.00784340687
83990.860839,0.236022925,0.108670583,-0.264656899,-0.127958089,0.198264271,-0.0104924534
83990.870869,0.22565526,0.0698591702,-0.162769473,-0.116570935,0.18161872,-0.0145686883
83990.880899,0.15533903,0.0829857783,-0.0676361969,-0.0831562504,0.182390243,-0.0231826808
83990.890929,0.0977379052,0.0618689751,0.0890834741,-0.0647450164,0.20619145,-0.0296001006
83990.900959,0.0879571004,-0.0150056633,0.172114224,-0.0528947487,0.248376176,-0.0212785229
83990.910989,0.138315999,-0.156061865,0.151871062,-0.0629412606,0.289566487,-0.00603512116
83990.921019,0.182550862,-0.195345024,0.0645469987,-0.0790182278,0.309216082,0.0119356234
83990.931048,0.109158878,-0.171388065,-0.0929196912,-0.0888641998,0.310127139,0.022325946
83990.941078,0.0257855986,-0.0856538284,-0.231285375,-0.0769870356,0.28623113,0.02007664
83990.951108,-0.0504103368,-0.00773446671,-0.376928356,-0.0454203226,0.244745761,0.00395466248
83990.961138,-0.0866477714,-0.0182142135,-0.37050446,-0.0080497805,0.208662584,-0.0139114205
83990.971168,-0.0209597859,-0.109138566,-0.332186128,0.0221264977,0.191764295,-0.0200263038
83990.981198,0.05066928,-0.220725731,-0.285325008,0.0298541933,0.191234872,-0.0122509394
83990.991228,0.0836702169,-0.3115121,-0.291895034,0.0279375147,0.189693168,0.00108164456
83991.001258,0.0894873787,-0.292330247,-0.329855639,0.0095385341,0.188105911,0.0161599293
83991.011288,-0.00424538248,-0.213485259,-0.386470091,-0.0179237165,0.173018038,0.0211094134
83991.021318,-0.0901701003,-0.137005757,-0.478359271,-0.03491202,0.143813282,0.0248466283
83991.031348,-0.0685801998,-0.114110583,-0.489381015,-0.0357000493,0.121031009,0.0226471238
83991.041378,0.00447743767,-0.151573431,-0.486736638,-0.0364635773,0.0937674269,0.0217198096
83991.051408,-0.0096744218,-0.106747068,-0.468007388,-0.0252111908,0.0697363988,0.0216585584
83991.061438,-0.0493202035,-0.106063506,-0.401499903,-0.0322762914,0.054612305,0.0216367207
83991.071468,-0.0144546418,-0.145500285,-0.330462957,-0.0355631635,0.046363961,0.028209934
83991.081498,-0.0137397715,-0.125648424,-0.324571561,-0.0423182733,0.0413260609,0.0316209123
83991.091528,-0.0746183109,-0.108520617,-0.275541865,-0.0516704954,0.0394344181,0.0387917385
83991.101558,-0.0479822329,-0.13658713,-0.244333657,-0.0476491228,0.0349794813,0.0466581807
83991.111588,-0.0291249722,-0.146380429,-0.227131762,-0.0171468724,0.0335749313,0.0473676473
83991.121618,-0.01361936,-0.15729875,-0.214986567,0.0190758463,0.0390442647,0.0473298356
83991.131648,-0.0354243646,-0.170525822,-0.175358905,0.036811702,0.0470792875,0.0542218313
83991.141678,-0.013499533,-0.10219388,-0.127939567,0.0292461924,0.0559534729,0.0577593073
83991.151708,-0.00580547141,-0.00434022116,-0.140042092,0.014622774,0.0572895817,0.052836448
83991.161738,-0.0375754052,0.00921526159,-0.157030637,-0.00254049944,0.0623245537,0.0515046045
83991.171768,-0.0436965184,-0.0376481051,-0.188650933,-0.00814618729,0.063176766,0.0548649803
83991.181798,0.0189817638,-0.0944916715,-0.235793792,-0.00435970491,0.0510726981,0.0654009804
83991.191828,0.0574152471,-0.0299697525,-0.265707869,0.00516535714,0.0325208493,0.0643658116
83991.201858,0.056049804,0.0709649577,-0.247698165,0.00717870705,0.0161338877,0.0523541495
83991.211888,0.0274964942,0.161651447,-0.142530987,0.00648468733,0.0119391428,0.0333708748
83991.221918,-0.0146218151,0.260262171,-0.124732295,0.0129939858,0.00557658449,0.00551048107
83991.231948,-0.00674888974,0.254290531,-0.0339326647,0.020270275,0.0107252738,-0.0156078544
83991.241978,0.0357949515,0.111247759,0.0799433053,0.0111097991,0.0305546392,-0.0218271334
83991.252008,0.0433101494,0.0437049757,0.0918412484,0.0105726393,0.0574379191,-0.0171359759
83991.262038,0.0278419466,-0.0388979773,0.0305003522,0.0146821626,0.0719313771,-0.00420739409
83991.272068,0.0615004706,-0.0829160192,-0.0502332267,0.0183940772,0.0725694671,0.0082380902
83991.282098,0.000340776262,-0.0558955998,-0.136269004,0.0132848024,0.0631123111,0.017848108
83991.292128,-0.0546902061,0.0139348557,-0.165332601,0.00240126229,0.0483631976,0.0180473123
83991.302158,-0.0537701686,0.0743515497,-0.18804946,-0.00269389758,0.030442521,0.0139867906
83991.312188,-0.0472673626,0.048792161,-0.235225052,0.0177477282,0.00883842446,0.00437144702
83991.322218,-0.0598076952,0.0320934483,-0.217204243,0.0319128148,-0.00702655874,0.00166247971
83991.332248,-0.0934849239,0.0542658249,-0.151867555,0.0306084007,-0.0160797071,0.0016190703
83991.342278,-0.0771469526,0.0835033176,-0.221692786,0.0248421226,-0.0367655456,-0.00968045555
83991.352308,-0.0104202717,0.0752396942,-0.322325828,0.0215704292,-0.0638392419,-0.0210039504
83991.362338,-0.025474633,0.0648544572,-0.27527883,0.0230767131,-0.0821822956,-0.0302610975
83991.372368,-0.113641577,0.0280857105,-0.179147776,0.018158121,-0.0788954198,-0.034528546
83991.382398,-0.136353175,0.0291956811,-0.0300958631,0.00194666069,-0.0655188933,-0.0363416299
83991.392428,-0.100156072,-0.0430581657,0.0553133064,-0.00750676263,-0.0504981354,-0.0289484281
83991.402458,-0.0258195009,-0.122547553,0.0296551336,0.000628395937,-0.0489998423,-0.0154589824
83991.412488,-0.0343920989,-0.083973876,0.00414835185,0.00454137847,-0.0619776919,-0.0194872804
83991.422518,-0.0928279213,0.0501897529,-0.0232423439,0.0146992076,-0.0851274878,-0.0330861807
83991.432548,-0.1229723,0.116046683,-0.0895323869,0.034814328,-0.117912598,-0.0503176302
83991.442578,-0.0698883597,0.077650372,-0.131095985,0.0759151578,-0.154489249,-0.0664529204
83991.452608,0.0389753351,0.0556804227,-0.137853642,0.0984396413,-0.185973138,-0.0782200992
83991.462638,0.0886854147,0.00259323136,-0.036877486,0.0737907588,-0.19577916,-0.0680140704
83991.472668,0.0878811125,-0.0889221095,0.124422498,-0.00287499256,-0.181276649,-0.0439129919
83991.482698,0.0892249284,-0.108675881,0.143411277,-0.048288811,-0.160027832,-0.0148677602
83991.492728,0.123186235,-0.169954306,0.108784784,-0.0546031669,-0.135309964,0.00846445933
83991.502758,0.102436877,-0.145084909,0.0555365938,-0.0211000685,-0.117607132,0.025487652
83991.512788,0.00053191492,-0.0285470262,-0.0458797076,0.0378205068,-0.111884527,0.0227999892
83991.522818,-0.0332715705,0.0797170953,-0.0651455491,0.072085537,-0.110019252,0.00983545464
83991.532848,0.00424012179,0.091787107,-0.0553314266,0.0656121895,-0.108421892,0.00417730259
83991.542878,0.053017889,0.113964452,-0.0288888254,0.030599609,-0.112390533,-0.0017335834
83991.552908,0.037999768,0.131261514,-0.0368248791,-0.0068076821,-0.11865402,-0.00437277555
83991.562938,0.0473006804,0.145489215,-0.0267950679,-0.0272679497,-0.115159683,-0.0139100887
83991.572968,0.0212456171,0.178979068,-0.0119949737,-0.0247296914,-0.105069503,-0.0250873771
83991.582998,-0.0170347214,0.186060039,-0.0960328548,0.00528546609,-0.101190075,-0.038677223
83991.593028,-0.0121966338,0.151087437,-0.153537534,0.0283638872,-0.101530693,-0.0497919247
83991.603058,0.0259252994,0.0736547631,-0.174223179,0.0424943529,-0.112990804,-0.0520966202
83991.613088,0.0757084442,-0.00215140588,-0.246795079,0.048008427,-0.131828681,-0.0473737717
83991.623118,0.0664262366,-0.0597271408,-0.282140533,0.0530987941,-0.160154864,-0.038176015
83991.633148,0.0314022695,-0.0681420275,-0.283542801,0.0567049794,-0.188000605,-0.0301529747
83991.643178,0.00557867692,0.0144907726,-0.254975463,0.044616092,-0.210347459,-0.0324427634
83991.653208,-0.0567079756,0.0660886021,-0.187225868,0.0255385395,-0.223097876,-0.0340707526
83991.663238,-0.0147118314,0.0477543424,-0.0939350058,0.0025184413,-0.228665471,-0.0389840156
83991.673268,0.0419604884,0.0335149143,-0.00598199702,-0.008894003,-0.220671728,-0.041330792
83991.683298,0.0357534504,-0.00258292917,0.0354003992,-0.0106974952,-0.201862887,-0.0434413478
83991.693328,0.0139437697,-0.0354622855,0.0821200648,-0.0122152306,-0.179249451,-0.0374502987
83991.703358,-0.0706651893,-0.0124061483,0.0314712431,0.0107998075,-0.179464102,-0.0382947922
83991.713388,-0.103747959,0.0516254848,-0.0997083285,0.0366111659,-0.19682233,-0.0482491553
83991.723418,-0.0975076035,0.0984569767,-0.135070149,0.0522969179,-0.235092223,-0.0628579184
83991.733448,-0.103615273,0.0928981005,-0.148367438,0.0665003508,-0.278785914,-0.0785074532
83991.743478,-0.067706924,0.0202308506,-0.0593242956,0.0644774139,-0.313996643,-0.0852873325
83991.753508,-0.00492225883,-0.0688492625,0.0928922187,0.0353629403,-0.323275089,-0.0775002465
83991.763538,0.0764607239,-0.136654971,0.263963071,-0.0274810027,-0.30697149,-0.0598890334
83991.773568,0.127684131,-0.244934728,0.347684141,-0.100793831,-0.280181676,-0.0261172187
83991.783598,0.161706227,-0.266714744,0.339319633,-0.179588526,-0.252755105,0.0125723854
83991.793628,0.136448452,-0.250273459,0.29219314,-0.229598418,-0.235127643,0.0438123271
83991.803658,0.132818571,-0.1838995,0.151921915,-0.236074969,-0.225938126,0.0643716678
83991.813688,0.114684364,-0.0981787077,0.0174584998,-0.209116846,-0.23437795,0.0665725023
83991.823718,0.153006788,-0.0233771127,-0.0469365232,-0.170238167,-0.260654837,0.0466861501
83991.833748,0.202293089,0.0138294591,-0.00460486345,-0.115933105,-0.275602639,0.0326494239
83991.843778,0.0825637169,0.087807682,0.160603819,-0.0973911136,-0.254473656,0.0194870159
83991.853808,-0.018572014,0.138630764,0.286806771,-0.0989147052,-0.222048059,0.0104194861
83991.863838,0.0159673845,0.104313904,0.321963425,-0.100433238,-0.188007265,0.0063781389
83991.873868,0.0391015918,0.0979074531,0.334494989,-0.117101163,-0.153395757,0.00453523174
83991.883898,-0.00180325003,0.113526846,0.361900883,-0.149190664,-0.107643977,0.00335465232
83991.893928,-0.082685882,0.14458211,0.283966579,-0.198845565,-0.0740977377,0.00773608498
83991.903958,-0.127429864,0.176591808,0.104862058,-0.230454624,-0.0713560134,0.00502259005
83991.913988,-0.067077394,0.158872355,-0.0765256058,-0.233517006,-0.0948791802,-0.00406251755
83991.924018,-0.0138461545,0.138007975,-0.177928463,-0.20634982,-0.132311508,-0.0228569787
83991.934048,-0.0520592731,0.172230453,-0.252819161,-0.167308688,-0.170465812,-0.0370194018
83991.944078,-0.0749848061,0.189962509,-0.209851542,-0.149426088,-0.198085725,-0.0523829088
83991.954108,-0.0309130247,0.191745355,-0.131392337,-0.151312947,-0.217216283,-0.0581515804
83991.964138,-0.0112643213,0.164803024,-0.0506149195,-0.171188384,-0.228179187,-0.0663623735
83991.974168,0.00122281979,0.12403138,-0.0473836825,-0.18218644,-0.24665539,-0.0667506605
83991.984198,0.0167570735,0.116140207,-0.0311146847,-0.176546395,-0.266163319,-0.0744426697
83991.994228,0.000852232915,0.11950434,-0.0108370358,-0.154295683,-0.277023435,-0.0846598893
83992.004258,0.0252320564,0.0670076167,0.0339209743,-0.127029702,-0.286452621,-0.0907129869
83992.014288,0.0853074627,-0.0255293132,0.0429822326,-0.0918352231,-0.29829064,-0.0937426016
83992.024318,0.15969781,-0.0791212757,0.107960609,-0.0834252313,-0.292595744,-0.0886634216
83992.034348,0.150886727,-0.0944824653,0.22012276,-0.100576252,-0.278152615,-0.0780043826
83992.044378,0.164835173,-0.100033889,0.259388603,-0.124828331,-0.253106922,-0.0600203201
83992.054408,0.155478146,-0.0840156054,0.313573197,-0.153404325,-0.211351201,-0.0467085168
83992.064438,0.0903133081,-0.00499855721,0.252612825,-0.18108815,-0.179084077,-0.0393022671
83992.074468,0.0345160176,0.0535644078,0.126207628,-0.190000683,-0.176062182,-0.042935349
83992.084499,0.12781331,0.0711733854,-0.0169768538,-0.178656951,-0.194438532,-0.0553837568
83992.094529,0.139191029,0.111850382,-0.0773626411,-0.152213886,-0.2140567,-0.0697603002
83992.104559,0.0486328057,0.111303845,-0.0553308421,-0.134442881,-0.227241486,-0.0836598724
83992.114589,0.0434819989,0.114716622,-0.0104617728,-0.11698585,-0.242381558,-0.100470014
83992.124619,0.103693599,0.0725306818,0.0274094005,-0.0897691473,-0.244976267,-0.106649078
83992.134649,0.0845206962,0.0116538595,0.0157557875,-0.0648736507,-0.251538038,-0.108433932
83992.144679,0.0670756404,-0.00833851528,0.023258126,-0.0562593862,-0.250939369,-0.107891709
83992.154709,0.117594114,-0.00816786229,0.0598199702,-0.0736407712,-0.248733982,-0.10360349
83992.164739,0.137516958,0.0230404373,0.112343354,-0.113684066,-0.237635806,-0.0979711711
83992.174769,0.0920224501,0.0375017737,0.157544431,-0.155178517,-0.220678121,-0.0922573581
83992.184799,0.0410895508,-0.0221607546,0.120599725,-0.155555621,-0.206511706,-0.0873206556
83992.194829,0.0770101744,-0.134034148,0.064287471,-0.125271484,-0.20201017,-0.0806188062
83992.204859,0.0732142893,-0.154679836,0.0502718051,-0.0895377174,-0.19865191,-0.0678172633
83992.214889,0.035769817,-0.0765334512,0.0540992545,-0.0761784986,-0.193704024,-0.0629540607
83992.224919,0.0850794991,-0.0384045951,0.043044192,-0.0740884542,-0.186233863,-0.0624653697
83992.234949,0.0926911432,0.0616008531,0.0315559987,-0.0949537829,-0.18322289,-0.0696468502
83992.244979,0.0264694893,0.101999188,0.0268213714,-0.116725393,-0.185147554,-0.0756781101
83992.255009,0.00275660523,0.122971003,-0.0307727394,-0.131240427,-0.187722564,-0.0849554986
83992.265039,0.0231692787,0.112419305,-0.0690641839,-0.147730991,-0.194522157,-0.0856862739
83992.275069,0.0386637849,0.115505544,-0.0986719712,-0.181861535,-0.211575434,-0.0907755718
83992.285099,0.0757914463,0.0585721301,-0.0894037921,-0.219915435,-0.22457087,-0.0870980173
83992.295129,0.139506086,0.0164913056,-0.00397591789,-0.258109689,-0.21664317,-0.0777881369
83992.305159,0.0772621034,0.0268658065,0.0957756652,-0.296610475,-0.196372524,-0.0746064559
83992.315189,0.0305570508,0.0216429687,0.156875154,-0.338371485,-0.167896926,-0.0679187253
83992.325219,0.0752244601,-0.058442316,0.0716027624,-0.351153612,-0.143237397,-0.0584988594
83992.335249,0.0734404993,-0.0890252776,-0.0447580101,-0.337640733,-0.13585192,-0.0541350022
83992.345279,0.0197989254,-0.0610060701,-0.189048408,-0.278793126,-0.153477773,-0.058411777
83992.355309,0.00156651866,-0.0526519874,-0.306397607,-0.201664791,-0.187221095,-0.0694740117
83992.365339,0.0282698167,-0.0560668373,-0.224656312,-0.148917422,-0.207858205,-0.0802872479
83992.375369,0.0527478398,-0.0806223371,-0.0718342331,-0.115126431,-0.20736365,-0.079148747
83992.385399,-0.0270148482,-0.0575015463,0.0664846888,-0.107230425,-0.185645297,-0.0769156814
83992.395429,-0.0939864437,0.0200289257,0.133517659,-0.112586573,-0.161212131,-0.0787133202
83992.405459,-0.0571890372,0.0457906685,0.0954933411,-0.113599643,-0.150814354,-0.0861075819
83992.415489,-0.0126490537,0.0165352018,0.0389174674,-0.0922797099,-0.14509815,-0.0911830366
83992.425519,-0.0170002346,-0.0366077383,0.0389934553,-0.0843096673,-0.141672522,-0.0878274515
83992.435549,0.0120604401,-0.0917045433,0.0979290438,-0.0959234461,-0.132834285,-0.0747659802
83992.445579,0.0471428594,-0.101954664,0.116652449,-0.106362768,-0.126551628,-0.0621074438
83992.455609,0.0231961667,-0.0796531998,0.0945522609,-0.100779183,-0.119187452,-0.0552908182
83992.465639,0.01970774,-0.0880035425,0.0886228708,-0.0893124118,-0.116402321,-0.0520044789
83992.475669,0.0250812498,-0.0466035741,0.0881879865,-0.0815674067,-0.119209558,-0.0514899567
83992.485699,0.0393137733,-0.054244362,0.113302554,-0.0807839036,-0.124642938,-0.0512545332
83992.495729,-0.019519524,-0.00488945254,0.123322428,-0.0837394819,-0.126524985,-0.0517626628
83992.505759,-0.0354448229,0.0130030822,0.067985741,-0.0764690489,-0.148733884,-0.060190767
83992.515789,0.0573643937,0.00585774958,0.0634510202,-0.0580085516,-0.174138054,-0.0727760643
83992.525819,0.0893669672,0.0062876837,0.150260704,-0.0451031402,-0.189164937,-0.0890296027
83992.535849,0.0556862314,-0.0193128316,0.281033448,-0.0381136723,-0.194212958,-0.0948454142
83992.545879,0.0536076715,-0.0841480087,0.380317414,-0.027987536,-0.187808588,-0.0997504219
83992.555909,0.103873047,-0.171481698,0.493051813,-0.0267851185,-0.175254717,-0.0911092684
83992.565939,0.106252636,-0.217554828,0.547084432,-0.0112482375,-0.162219867,-0.0816111043
83992.575969,0.0470218634,-0.218046539,0.50004854,0.0163777974,-0.155067414,-0.07322108
83992.585999,0.0665676909,-0.232087485,0.48674716,0.0411180332,-0.152970716,-0.0669213757
83992.596029,0.144408471,-0.234504921,0.521820227,0.0502247103,-0.145680308,-0.0637894943
83992.606060,0.140907769,-0.274577843,0.600642419,0.0397763327,-0.133087292,-0.0551906824
83992.616090,0.139798931,-0.347794762,0.70053721,0.0113822408,-0.108537205,-0.0311423372
83992.626120,0.158134798,-0.408998844,0.78950904,-0.0128128445,-0.0672558099,-0.00404201169
83992.636150,0.130794956,-0.375102456,0.820031604,-0.0409760401,-0.0275073312,0.0240042694
83992.646180,0.110661684,-0.283631922,0.756001907,-0.0502869822,0.0156222945,0.0397118628
83992.656210,0.0936947673,-0.140323722,0.595770429,-0.0655186623,0.0407766514,0.041670084
83992.666240,0.0972276176,-0.0127417917,0.372694079,-0.0544258021,0.0295418389,0.0310312882
83992.676270,0.109375736,0.0763835852,0.219252992,-0.035157565,0.00344046298,0.00775339548
83992.686300,0.121634329,0.103076554,0.161325703,-0.0162459258,-0.014605117,-0.0140379202
83992.696330,0.118714642,0.0264740741,0.196096573,-0.00226512877,-0.0141276112,-0.0138333887
83992.706360,0.146290631,-0.0712882714,0.288974763,0.00185957528,0.00218371721,-0.00238499232
83992.716390,0.113559159,-0.102163366,0.313355171,0.0112490822,0.0288709886,0.0086202547
83992.726420,0.0522591795,-0.0686825824,0.274912335,0.0151918922,0.0524215885,0.0206071436
83992.736450,-0.00625964492,-0.015806029,0.20348376,0.0197634753,0.0631727651,0.0188526511
83992.746480,-0.00191489371,0.0395627978,0.103019645,0.0210308731,0.0669208989,0.0179972444
83992.756510,0.0190717802,0.0329171128,0.0309521876,0.0183772985,0.0673494041,0.0159663185
83992.766540,0.0438502476,0.0627282041,-0.00765957484,0.00269261212,0.0701912642,0.0149758887
83992.776570,0.0101356096,0.115347559,-0.0745873312,-0.0204574484,0.0695150867,0.00703301001
83992.786600,-0.0253512989,0.123799024,-0.179122057,-0.0272314642,0.0548607782,0.00149709731
83992.796630,-0.0320510888,0.121319007,-0.245424959,-0.0263670031,0.0333472304,-0.00581381284
83992.806660,-0.0625286446,0.127630948,-0.288857858,-0.0147865126,0.00848129392,-0.0175815225
83992.816690,-0.0856698662,0.146164813,-0.341269598,0.0143458061,-0.0262332764,-0.0331959054
83992.826720,-0.0607312398,0.104400039,-0.328176892,0.0356060863,-0.0548513383,-0.0456890538
83992.836750,-0.013844401,0.0573070832,-0.209549928,0.0429992899,-0.0700614527,-0.051736027
83992.846780,-0.0333200858,0.00941440089,-0.115713122,0.0326502435,-0.0774474591,-0.0488462374
83992.856810,-0.0528349336,-0.0411753476,-0.0413251131,0.021454582,-0.0832699314,-0.0426732898
83992.866840,-0.047317047,-0.111382025,0.008451602,0.00983254705,-0.0792661309,-0.032908015
83992.876870,-0.012149872,-0.156952165,0.0971007763,0.00174452667,-0.065187864,-0.0203597322
83992.886900,-0.0547428131,-0.187368346,0.124643448,0.000624667387,-0.0584841557,-0.011078082
83992.896930,-0.0721563047,-0.166410094,0.116238608,0.0172558427,-0.0513681918,-0.00854887813
83992.906960,-0.0674690236,-0.133953767,0.120015203,0.0238168053,-0.0472879596,-0.00474455301
83992.916990,-0.0856932471,-0.123303559,0.103750297,0.0279015619,-0.0542238988,-0.0011295788
83992.927020,-0.00375029244,-0.126929248,0.0654033233,0.0304115899,-0.0679833889,0.003068096
83992.937050,0.0884586202,-0.110405454,0.147397716,0.0149519425,-0.0674968287,0.0112597132
83992.947081,0.083913378,-0.0524283256,0.198639243,-0.0050236308,-0.0633518845,0.0164427571
83992.957111,0.0813093329,0.0122186858,0.207668937,-0.0175705813,-0.0683863238,0.0128597403
83992.967141,0.102368488,0.0583427281,0.213368025,-0.00992091745,-0.0755835176,0.00199324451
83992.977171,0.089055417,0.080490436,0.255833541,0.00477360561,-0.0709735826,-0.00970043056
83992.987201,0.0652221215,0.0679056387,0.343120194,0.021194391,-0.0544097871,-0.017273128
83992.997231,0.107209498,0.0695570454,0.421951155,0.0199650768,-0.0345354155,-0.0209706612
83993.007261,0.183693603,-0.00324377226,0.421604533,0.0354875773,-0.00890408736,-0.0170579441
83993.017291,0.164249482,0.0191904975,0.429713605,0.040139854,0.0137594128,-0.0167202558
83993.027321,0.121826637,0.0468324692,0.427186717,0.0413260236,0.0317863487,-0.0189477243
83993.037351,0.0802425805,0.0618742267,0.37791386,0.0329437256,0.043968983,-0.0229770858
83993.047381,0.119285136,-0.0188639416,0.414293918,0.00674514472,0.066278547,-0.0163364951
83993.057411,0.094942137,-0.0964354077,0.371481197,-0.0104002869,0.0839670002,0.00287794648
83993.067441,0.0516799184,-0.107668731,0.232830266,-0.00890864991,0.0963466987,0.0159167834
83993.077471,0.0596715016,-0.100282585,0.166225166,-0.0196768753,0.102088742,0.0325412974
83993.087501,0.0530436079,-0.0235506792,0.0299672682,-0.0200039111,0.0914190561,0.0401827097
83993.097531,0.0360907196,0.0799584663,-0.117862994,-0.0116762072,0.0656756088,0.0325522199
83993.107561,0.0697521661,0.182145241,-0.178680743,0.00379143213,0.0386170931,0.0154145109
83993.117591,0.0665513243,0.243621673,-0.194137255,0.00976277236,0.0148608964,-0.00253093336
83993.127621,-0.00941840121,0.288656564,-0.137895144,0.00388703984,0.00246734382,-0.0212412383
83993.137651,-0.0240559984,0.263809123,-0.0909264716,-0.00790570397,-0.00654026587,-0.034714967
83993.147681,0.015353052,0.171460254,-0.0418996981,-0.010103344,-0.0114812283,-0.0426527858
83993.157711,0.0284206233,0.0932622941,-0.0421007736,-0.00318285404,-0.0182509832,-0.0475394204
83993.167741,0.0333703547,0.0331318424,-0.00546527967,0.00782745332,-0.0223751552,-0.0480062738
83993.177771,0.0219189863,-0.0174247711,0.0724152479,0.0156901702,-0.0186195653,-0.0458856001
83993.187801,0.0142190795,-0.048367104,0.13353461,0.0103974035,-0.00902792439,-0.0415313318
83993.197831,-0.0196440271,-0.115146593,0.194640529,-0.000607310853,4.06714389e-05,-0.031960465
83993.207861,0.00414601376,-0.178931722,0.175506205,0.0020883407,0.0105881207,-0.0201775711
83993.217892,0.00505728339,-0.224983955,0.142307115,0.0118690664,0.0188969187,-0.00827963278
83993.227922,-0.0257101953,-0.185039081,0.136001877,0.0045818584,0.0165815651,-0.00259058829
83993.237952,-0.0578559766,-0.145504285,0.105921212,-0.000314096804,0.0084530646,0.00121027511
