t,ax,ay,az,gx,gy,gz
93267.493471,-0.139102254,-0.0100389443,0.0526905567,0.00187082088,-0.00871929433,0.00464962143
93267.503498,-0.161675759,0.00834826036,0.0393675493,-0.00130872708,-0.0078580277,0.00131694181
93267.513524,-0.161218261,0.0630031394,0.0600099398,-0.00350476988,-0.00880957488,0.000653814524
93267.523551,-0.182407782,0.0973579111,0.127042326,-0.00149195257,-0.00235939911,-0.00244743656
93267.533577,-0.174577454,0.109601654,0.103549806,0.00126681605,0.000209219521,-0.00442030653
93267.543604,-0.175233872,0.0617950879,0.0746720869,0.00105695892,0.00184413418,-0.00618971046
93267.553630,-0.198203153,0.0241035821,0.0565676904,0.000714210095,0.00312857679,-0.00761077274
93267.563657,-0.199133547,-0.0290105886,0.0642027153,0.00517367339,0.00217196927,-0.00532471575
93267.573683,-0.20385347,-0.118565406,0.061963412,0.00254380191,0.00338637084,-0.00250416156
93267.583710,-0.21107217,-0.134993221,0.0229097509,0.00103085989,-0.000163356657,0.000457805581
93267.593736,-0.192972102,-0.0801316857,0.0525362429,-0.00262219831,0.00032213761,0.00118777808
93267.603763,-0.125187802,-0.0419144207,0.0679506697,0.0134475827,0.00526336674,0.0285285898
93267.613789,-0.200780949,0.00679122191,0.165216866,-0.0162826162,0.0115484269,-0.00196114369
93267.623816,-0.165704138,0.0418405335,-0.0658195029,0.0127548939,-0.00331307715,0.00592634082
93267.633842,-0.147719166,-0.0435298474,0.130358903,-0.0130569953,0.00541356904,0.00123811234
93267.643869,-0.159015162,-0.0105877007,-0.0201765266,0.00298988121,0.00148913474,0.00449116342
93267.653895,-0.170935517,0.0301662979,0.091604517,-0.00546965003,0.00580212427,-0.000991486013
93267.663922,-0.157399872,-0.0215347819,0.0218757317,0.00291318214,0.0017250909,0.00335159665
93267.673948,-0.157272793,0.00469677951,0.0507575428,-0.0023590778,-0.000315423124,0.000319854356
93267.683975,-0.133537259,-0.0404962154,0.0366916081,-0.000100983518,0.000928539375,0.00261256937
93267.694001,-0.111535727,-0.00323468934,0.0461187771,-0.00278571621,0.00222949358,0.00350073399
93267.704028,-0.0866178329,-0.0121168556,0.0553980621,6.65293192e-05,0.00532888062,0.00587973557
93267.714054,-0.0971641695,0.010400124,0.0925122795,0.00289134448,0.0049134274,0.00661929511
93267.724080,-0.117333143,-0.0311045286,0.0521171407,0.00526741659,0.00757365907,0.0077303662
93267.734107,-0.0899306472,-0.0728740336,0.00378887089,-0.0018821056,0.00595738646,0.0087961629
93267.744133,-0.0945447352,-0.0787918337,0.0337169762,-0.00178730255,0.00399620784,0.00771128014
93267.754160,-0.121160455,-0.0998033589,0.0838467425,0.0029126443,0.00111253688,0.00998668466
93267.764186,-0.144801361,-0.105269013,0.0519745174,-0.00112870277,-0.00124782266,0.0100101205
93267.774213,-0.173931302,-0.0533603092,-0.0104278705,-0.00192152581,-0.00598345604,0.00786840636
93267.784239,-0.213581449,0.00402879886,0.030415012,-0.00337108457,-0.00844501611,0.0100985374
93267.794266,-0.238346692,0.0690452874,0.0527045852,0.00194565032,-0.00972359907,0.0079674758
93267.804291,-0.263708914,0.0446194784,0.0565910713,0.00277016498,-0.00860160962,0.00852833781
93267.814318,-0.277648025,-0.0176870296,0.0592804565,0.00181275851,-0.00784500502,0.0081797298
93267.824344,-0.278387391,-0.0575137299,0.0502992777,0.00124470633,-0.00487797754,0.00638422696
93267.834371,-0.286193827,-0.10246613,0.0696001904,-0.00096917944,-0.00253120018,0.00963381585
93267.844397,-0.313743732,-0.0766401904,0.0815688607,-0.00242326548,0.000150336768,0.0106181204
93267.854424,-0.321360673,-0.0315356592,0.0794727652,-0.000980897341,0.00229151826,0.0107808392
93267.864450,-0.352603185,0.0588924344,0.0514917023,0.000705149898,-0.00106433092,0.0095243603
93267.874476,-0.338105472,0.0818860095,0.0372767145,0.00221676007,0.000668587978,0.00784497056
93267.884503,-0.344098684,0.069440415,0.05089549,0.00497073494,-0.00113170885,0.00883593317
93267.894529,-0.362922262,-0.00298178316,0.0510462966,0.00127826224,-0.00231228815,0.00842980109
93267.904556,-0.374806688,-0.0232163418,0.0139344173,0.00196136301,-0.00479834899,0.0104122581
93267.914582,-0.368468205,0.00766107268,0.043258127,-0.00282806577,-0.00676615909,0.00545425108
93267.924609,-0.359676996,0.0300796426,0.0974228479,0.00237628352,-0.00520714419,0.00897921063
93267.934635,-0.347064804,0.0261965449,0.10685177,0.00511028478,-0.00207260391,0.00476768799
93267.944662,-0.310017733,-0.108980398,0.0710930594,0.00414249208,0.00205476326,0.00715920702
93267.954688,-0.287383438,-0.191507619,0.0634638797,-0.00219902722,0.00302228983,0.00799810234
93267.964714,-0.285628631,-0.229006434,0.0808235953,-0.00347734476,0.00636508921,0.00955472048
93267.974741,-0.280566178,-0.266315479,0.103120767,-0.0014485484,0.00746577373,0.0100130504
93267.984767,-0.281838134,-0.249345603,0.0651180766,0.00116134947,0.0039847563,0.00834857486
93267.994794,-0.268565925,-0.278593343,0.0763426504,-0.00401929766,0.00432990165,0.0115219969
93268.004820,-0.23563356,-0.262217835,0.0956441478,-0.00065226329,0.00222547189,0.0125949848
93268.014847,-0.238029917,-0.208985536,0.0833773714,0.00456513558,0.00313866977,0.0123470444
93268.024873,-0.244490382,-0.252762737,0.0562993948,0.00659419829,2.88967276e-05,0.0136322863
93268.034900,-0.286200512,-0.247525621,0.0141039287,-0.000806726632,-0.00187632872,0.013068229
93268.044926,-0.291069854,-0.146857508,0.0152981069,-0.00248691486,-0.00398688391,0.0147497486
93268.054953,-0.336482145,-0.0433314023,0.0435755224,0.00112246722,-0.00683859736,0.0159862544
93268.064979,-0.335283181,-0.0299939553,-0.0102963531,0.00361625152,-0.0080537973,0.0167284776
93268.075005,-0.296577383,-0.120897366,0.0224713595,-0.00290822703,-0.00521673169,0.0178872198
93268.085032,-0.281381458,-0.157502072,0.110301619,-0.00379958702,0.000168978935,0.0156850517
93268.095058,-0.2947079,-0.072151254,0.126313427,0.000564268732,0.0045749126,0.0102908183
93268.105085,-0.292198511,-0.0408508192,0.118833885,-0.00192818372,0.0056130127,0.010376838
93268.115111,-0.296892075,0.105495625,0.0742459704,0.00199039141,0.0061658849,0.00575252529
93268.125138,-0.294104655,0.0919828762,0.0931096609,0.00845388323,0.0052055493,0.00347791938
93268.135164,-0.292577463,0.103150085,-0.0301812033,0.00815667398,0.00485907169,0.00304488931
93268.145190,-0.287923518,0.169750162,-0.109787239,-0.00841138326,-0.00146380521,0.000309290364
93268.155217,-0.271289432,0.16422548,0.0938619405,-0.0033042389,-8.66844784e-05,0.00156710111
93268.165243,-0.288557031,0.187587761,0.17436814,0.00657928456,0.00184597145,0.000272272155
93268.175270,-0.244607834,0.054643627,0.0652881725,0.00289799692,0.00281935697,0.00354290055
93268.185296,-0.239596144,0.0148361519,-0.0310784444,-0.00742015429,0.00301190326,0.00243955292
93268.195323,-0.224569182,-0.00307224705,0.0851876357,-0.00297453953,0.00518104807,0.00416554743
93268.205349,-0.261783864,0.0234117548,0.0712789373,0.0114491405,0.00614351453,0.00374024082
93268.215376,-0.302722334,0.00411761879,-0.0816407569,0.00637581898,0.00219378038,0.000519679859
93268.225402,-0.309608459,0.0384273823,-0.100944592,-0.00294551114,-0.00443056645,-0.0013543861
93268.235428,-0.310301227,0.185290991,0.0898375073,0.00069103518,-0.00519302953,-0.00591531582
93268.245455,-0.266878538,0.192666452,0.25040041,0.0125287855,-0.00268033706,-0.00785356387
93268.255481,-0.218658533,0.054175562,0.206116447,0.00980730169,0.0012302486,-0.00528281555
93268.265508,-0.196432198,-0.0716879656,0.096437344,0.00187614176,0.00311230449,-0.00517948437
93268.275534,-0.171976752,-0.1901316,0.0950911901,-0.00589416316,0.00558611471,-0.00415709708
93268.285561,-0.198632831,-0.231056388,0.180982006,-0.00713998964,0.0105917919,-0.00136876758
93268.295587,-0.264340891,-0.139092637,0.0730973849,0.000900359591,0.00657574553,1.12820417e-05
93268.305613,-0.240655115,-0.134675058,0.0452682977,0.000700089906,0.00564896548,0.00160971191
93268.315640,-0.219534311,-0.171718831,-0.0162304193,-0.000616576872,0.00146407413,0.00113433786
93268.325666,-0.198038245,-0.221391666,0.00666471859,-0.00145201059,-8.56192783e-05,0.00379962893
93268.335693,-0.168252982,-0.280410969,0.1389391,-0.010132052,0.00269179139,0.00669608312
93268.345719,-0.159407248,-0.170755503,0.182329913,-0.00414420012,0.0089230556,0.00696825795
93268.355746,-0.204225683,-0.0626359592,-0.00680500384,0.00705572404,0.0093733957,0.00595039781
93268.365772,-0.177471148,-0.201442957,-0.0507943677,-0.00597698754,0.00531047769,0.0073474925
93268.375798,-0.176279837,-0.0804332168,-0.0564841038,-0.00529228849,0.0047988845,0.00504146097
93268.385825,-0.114255087,0.0208278392,0.0787906281,0.00174431538,0.00706070708,0.000841655768
93268.395851,-0.0277835127,-0.0795911765,0.150924721,0.00686344365,0.0142816016,0.00391467754
93268.405878,-0.0410049914,0.0645672286,0.0830003548,0.00109130831,0.0161993448,0.00507421792
93268.415904,-0.0740112986,0.138197195,0.0894441241,0.00414142665,0.0143697523,0.00366806891
93268.425930,-0.121885509,0.235654055,0.042470776,0.00855588168,0.0088527482,0.00101875607
93268.435957,-0.108734114,0.214701923,0.0318581966,0.0115727112,0.00574457273,-0.000704042614
93268.445983,-0.111624373,0.243329668,0.0070282912,0.00848450977,0.00155675213,-0.00664315745
93268.456010,-0.124697242,0.233655575,-0.0200502699,0.0118773766,-0.00303666806,-0.00965972058
93268.466036,-0.15547263,0.225295268,-0.0501239211,0.00345912483,-0.00656961743,-0.0159860589
93268.476063,-0.11289843,0.161678937,-0.000595627806,0.00651510246,-0.00723993499,-0.0166880693
93268.486089,-0.0959131009,0.158586451,0.0846995599,0.000576252933,-0.00225289958,-0.0256123226
93268.496115,-0.0386284031,-0.050203343,0.265461201,0.00140343071,0.00654591806,-0.0193930417
93268.506142,-0.133339216,0.0842639267,0.0758785401,0.00278800819,0.00764953205,-0.0242322702
93268.516168,-0.133203406,0.0211958871,0.0206657714,-0.00409706216,0.00592193939,-0.0174020622
93268.526195,-0.135533118,0.0973923797,0.0920394013,-0.00731336139,0.00419700984,-0.0225299802
93268.536221,-0.185154652,0.16559496,0.190954534,0.0158774462,0.00475494238,-0.0222796407
93268.546247,-0.213061645,-0.086798441,0.108518242,0.0115479436,0.00176128291,-0.0215890836
93268.556274,-0.214821403,-0.204742565,-0.175042679,0.00439096475,-0.0101984413,-0.0191602819
93268.566300,-0.20315725,-0.19118078,-0.145872698,-0.0104441745,-0.0181852616,-0.020418359
93268.576327,-0.150274185,-0.121452378,0.0950245546,-0.0130210491,-0.0182611607,-0.0178723764
93268.586353,-0.130222864,0.156496877,0.326801512,0.00395953283,-0.0066495128,-0.0211991984
93268.596379,-0.104226783,0.0807171757,0.360628379,0.0178569723,0.0057006306,-0.0249196347
93268.606406,-0.0389474698,-0.157057671,0.0613736294,0.0175499115,0.0131939668,-0.0225749854
93268.616432,0.00442078015,-0.204665828,-0.149152451,-0.0065991017,0.0164179895,-0.0251270924
93268.626459,0.0442542801,-0.235290647,0.035648821,-0.0188568328,0.0217046309,-0.0220410228
93268.636485,-0.0351052476,-0.0437972525,0.112717448,-0.00129861245,0.0223136954,-0.0234993715
93268.646511,-0.0336700363,-0.11583178,0.128140058,-0.00585261779,0.0232687052,-0.0193602853
93268.656538,-0.0561142338,-0.0348493229,-0.136266081,-0.00629177317,0.00893237721,-0.0181075335
93268.666564,-0.0859943307,0.00506621561,-0.0484346528,-0.00965188351,-0.000598011422,-0.0214348864
93268.676591,-0.0220389549,-0.113737658,0.112569564,0.000462535943,-0.00505374651,-0.0156694092
93268.686617,-0.0574025795,-0.176837782,0.0447848981,0.00785706844,-0.00877950899,-0.0156880524
93268.696644,-0.129930211,-0.326731881,-0.0457511128,-0.009226311,-0.0169942956,-0.0127415303
93268.706670,-0.142289725,-0.192457668,0.022765374,-0.00985348504,-0.0165703204,-0.0111361779
93268.716696,-0.20779249,0.0137632437,0.139172908,0.000407408515,-0.012814464,-0.0143865645
93268.726723,-0.168633688,0.00541629856,-0.00597790537,0.00379867805,-0.00969829969,-0.0115809254
93268.736749,-0.118378834,0.119557541,-0.0472884054,-0.0200999957,-0.0068511134,-0.0151168033
93268.746776,-0.034161843,0.246267621,0.311529124,-0.00808513351,0.00839098264,-0.0149392895
93268.756802,-0.152935604,0.339605574,0.37962534,0.0134933954,0.0215829518,-0.0185294971
93268.766828,-0.17704368,0.277666931,-0.0243722247,0.0186625905,0.0193094108,-0.0184746366
93268.776855,-0.140298405,0.315228052,-0.303732771,-0.00560200214,0.00618641824,-0.0278742649
93268.786881,-0.0547311866,0.120547867,0.149811207,-0.0148378452,0.00732039195,-0.0264670476
93268.796908,-0.0867250196,0.171718028,0.201291219,0.013958117,0.00896782335,-0.0244971104
93268.806934,-0.0903013254,0.0711968942,0.000491582909,0.0116568794,0.00480982987,-0.0318397097
93268.816960,-0.0748106003,-0.317825704,-0.0771685799,-0.00730775716,-0.00301720016,-0.0261594541
93268.826987,-0.15544324,-0.247115579,-0.0661047495,-0.00434712088,-0.00919253845,-0.023642499
93268.837013,-0.211238758,-0.119690291,-0.0468085129,0.000102754973,-0.0167484581,-0.0251008458
93268.847040,-0.235076456,-0.215953293,0.202622759,-0.011304629,-0.0199818034,-0.0223418139
93268.857066,-0.306339301,-0.0205278151,0.2012655,0.0075705247,-0.0191631466,-0.0187739749
93268.867092,-0.32203565,0.0759298547,0.0827513484,0.0114073409,-0.0173745677,-0.0232129321
93268.877119,-0.189140397,-0.162369879,0.0294786079,0.00495130615,-0.0121060358,-0.0147693809
93268.887145,-0.118645924,-0.191474393,0.110725982,-0.0112404469,0.00219087745,-0.0127845258
93268.897172,-0.104879466,0.0336872934,0.12419395,0.00103406236,0.0130435256,-0.0155739207
93268.907198,-0.0989171964,0.0633758634,0.265167186,0.00379176578,0.0295418072,-0.0179449338
93268.917224,-0.117180117,0.0271079607,0.104778471,0.0136649031,0.0363592319,-0.0136452597
93268.927251,-0.182381753,0.100512768,-0.198511817,0.00703709386,0.025685817,-0.0197678674
93268.937277,-0.120510677,-0.114145763,-0.0828361041,-0.0149534261,0.0146752438,-0.0173622333
93268.947304,-0.162427235,-0.0740267473,0.0259445886,-0.00904733408,0.00168674113,-0.0154442247
93268.957330,-0.17161623,0.0231953995,0.186950559,-0.00133774884,-0.00290002115,-0.0222832225
93268.967356,-0.134262303,0.0851055104,0.00154722944,0.00248122402,-0.0108162677,-0.0229242444
93268.977383,-0.200356148,0.230404537,-0.147348616,-0.000801654533,-0.0165401995,-0.0252987221
93268.987409,-0.256591519,0.151582272,-0.0744862089,-0.00603822805,-0.0191599503,-0.0249663591
93268.997436,-0.280108954,0.139850789,0.12316753,-0.01020208,-0.0205642357,-0.0255977921
93269.007462,-0.236114019,0.210841119,0.282971723,0.00890317094,-0.00869426038,-0.0257104449
93269.017488,-0.232867109,0.0849080698,0.160875037,0.0117586125,0.00177542435,-0.0283653513
93269.027515,-0.300073153,0.048132181,-0.203785958,0.00150703976,0.00032000686,-0.0255157687
93269.037541,-0.361763337,0.0271894239,-0.0174929866,-0.0167292207,-0.00076549768,-0.0311491527
93269.047568,-0.306748904,-0.00275087874,0.457149894,0.000424997474,0.00941896345,-0.0233295783
93269.057594,-0.302455847,0.282590322,0.28029812,0.0264946818,0.0108517436,-0.0346261747
93269.067620,-0.279192935,-0.00798220353,0.0215957457,0.0167480446,0.00917475112,-0.03311643
93269.077647,-0.351039918,-0.105676142,-0.230085936,-0.00386801828,-0.00288271066,-0.0328847356
93269.087673,-0.392161764,0.0069993665,-0.171142749,-0.0146570159,-0.0134567916,-0.0289307386
93269.097700,-0.40351833,0.145768361,0.00841010095,-0.00460411608,-0.0156520344,-0.0304806978
93269.107726,-0.500615964,-0.0032487407,0.125267133,0.0044354517,-0.0180930886,-0.0291595049
93269.117752,-0.579621295,-0.026566045,-0.0869265883,-0.000458905706,-0.0271214712,-0.0370067768
93269.127779,-0.519046232,-0.242259171,0.36405543,-0.0228558257,-0.0195461102,-0.0353204608
93269.137805,-0.431444338,0.209987644,0.41222471,0.0100688366,-0.00593922054,-0.0350173935
93269.147832,-0.531363898,0.39909233,0.24075346,0.0241289958,0.00427453453,-0.0512480289
93269.157858,-0.552605935,-0.00562437922,-0.246752409,0.0061545223,-0.00207151193,-0.0462167859
93269.167884,-0.446436119,-0.0886408905,-0.105052028,-0.0153731406,-0.00159161014,-0.0480290651
93269.177911,-0.418547155,-0.17314227,0.363913392,0.0119892415,0.0181791652,-0.0442119576
93269.187937,-0.545125224,-0.16917428,-0.309261764,0.0749993622,0.0213629734,-0.0360602885
93269.197964,-0.657935501,-0.381956085,-1.1082687,0.0606281497,0.00236158608,-0.0460468754
93269.207990,-0.667170508,-0.63561261,-0.861964036,-0.0305241309,-0.0332675166,-0.0464623272
93269.218016,-0.474539347,-0.0220929227,0.144895962,-0.0288684443,-0.034426257,-0.0350046121
93269.228043,-0.430965761,0.905178543,0.871067379,0.0242357887,-0.0179756433,-0.041900333
93269.238069,-0.302058993,0.447044935,0.970143255,0.0269948244,0.00463858899,-0.0401218757
93269.248096,-0.286929338,-0.00927741727,0.516601615,-0.00997970626,0.0134757562,-0.0422265716
93269.258122,-0.397158841,0.134939536,0.461848865,0.0302345566,0.0257673096,-0.0449051782
93269.268148,-0.637677507,0.0568834646,-0.33329029,0.0331507213,0.00558188045,-0.0491502583
93269.278175,-0.780067331,-0.220961531,-1.08641927,-0.0148751289,-0.0382862426,-0.0429387018
93269.288201,-0.685697003,-0.184528866,-0.420741779,-0.0613161288,-0.0628376529,-0.0487526469
93269.298228,-0.0802526361,-0.330630386,1.48573306,-0.0238896646,-0.0117236059,-0.0392526202
93269.308254,-0.438691606,-0.109169345,1.03654027,0.0683726221,0.0179192405,-0.0343838297
93269.318280,-0.691515699,-0.356323667,-0.671374828,0.0475714728,0.00630918983,-0.0395072177
93269.328307,-0.582317548,-0.578809796,-0.34697044,-0.0959481448,-0.00951957423,-0.0358051583
93269.338333,-0.653144102,0.185342064,0.682020725,-0.00368505903,0.014994557,-0.032470081
93269.348360,-0.828694292,0.762461459,0.350321504,0.0990088284,0.0221363567,-0.0443451144
93269.358386,-0.632857174,-0.273013571,-0.698753249,-0.0200381987,0.00257091061,-0.0413602442
93269.368413,-0.496507433,0.0510990589,-0.920258988,-0.0814610794,-0.017486155,-0.0497760996
93269.378439,-0.480196021,0.272068636,0.819689074,-0.00484166993,0.00835023634,-0.058827389
93269.388465,-0.368368873,-0.106752274,0.856696324,0.0735101253,0.041570507,-0.0488999188
93269.398492,-0.392639683,-0.49408174,-0.570050881,0.00462693302,0.0216713678,-0.0532166362
93269.408518,-0.446516272,-0.619140052,-0.18984628,-0.108656488,0.00104332133,-0.0437246002
93269.418545,-0.502515003,0.0954386335,0.547510548,-0.0163007192,-0.00109865901,-0.0243599564
93269.428571,-0.448178579,0.71952533,0.52853463,0.0774396211,0.0133343423,-0.0463813692
93269.438597,-0.401302079,-0.59267955,-0.0753729286,0.00444210973,-0.00460178126,-0.0335340127
93269.448624,-0.3098278,-0.284056596,-0.947166284,-0.00769844279,-0.01769761,-0.016768083
93269.458650,-0.661797583,0.304919333,-0.530761073,-0.0587621592,-0.0374132581,-0.0483483784
93269.468677,-0.597697598,0.268810986,0.405607338,-0.0288575254,-0.041171778,-0.028349638
93269.478703,-0.477276553,0.739236504,1.31345108,0.0541018099,-0.00458686752,-0.0450170301
93269.488729,-0.261918541,-0.108386451,0.945700303,0.0820093378,0.0275668073,-0.042580504
93269.498756,-0.128738115,-0.52057472,-0.654017451,0.0180617832,0.02946724,-0.030856736
93269.508782,-0.294390614,0.0915337168,-1.2605086,-0.0785688907,0.0041624154,-0.034382496
93269.518809,-0.326443091,0.798758003,-0.0673527038,-0.0805121958,-0.00400869502,-0.0509926304
93269.528835,-0.339748563,0.895440043,1.58148827,0.0224429481,0.0373147726,-0.0497502685
93269.538862,-0.176034722,0.221696531,0.991844799,0.094070524,0.053277228,-0.0569373406
93269.548888,-0.123572549,-0.768592363,-0.937211877,0.0365917906,0.0301018711,-0.0440620221
93269.558914,-0.338107919,-0.642432446,-1.63513277,-0.0523300916,-0.0368020646,-0.0442726761
93269.568941,-0.173971542,0.018623799,-0.151546068,-0.0660669431,-0.0528257713,-0.0505612008
93269.578967,-0.036943916,0.270493313,1.30782973,0.0329227522,-0.021130424,-0.0370728225
93269.588994,0.000597006912,0.11442321,0.843230694,0.038301006,-0.000590794138,-0.0327292047
93269.599020,-0.263876763,-0.0858737456,-0.622606413,0.0235404372,-0.0104724532,-0.0291009173
93269.609047,-0.174270416,-0.157366207,-0.464905915,-0.0384603478,-0.0205796827,-0.0406204201
93269.619073,-0.0586548856,-0.359095762,0.776895642,-0.031723883,-0.0042377268,-0.0317451693
93269.629099,-0.260265861,0.291795885,0.779157158,0.0497376882,0.0228394307,-0.0371673629
93269.639126,-0.500541438,-0.0365718541,-0.538801172,0.0525337383,0.0062143812,-0.0430761203
93269.649152,-0.284304122,-0.699645595,-1.02976273,-0.0300423652,-0.0235818643,-0.033339601
93269.659179,0.197079994,-0.631876273,0.384261183,-0.0968110114,-0.00864206254,-0.029130742
93269.669205,-0.148607895,-0.02164422,0.559918779,0.0612638481,0.0137862805,-0.0166242719
93269.679232,-0.243778398,0.145963774,0.0567313565,0.0320220739,0.0122051621,-0.0431280509
93269.689258,-0.13513209,-0.221295987,0.22610768,-0.0756199732,0.00392353022,-0.0454143733
93269.699284,-0.323105507,0.82999836,-0.0504372248,0.0291714258,0.00494165672,-0.0339270942
93269.709311,-0.61654704,0.928292365,-0.841687556,0.0644095689,-0.0334558003,-0.0516227372
93269.719337,0.0499457698,-0.449187829,-0.583892944,-0.0755336881,-0.0462666713,-0.0469922982
93269.729364,0.304258951,-0.519642079,1.24983639,-0.0619851165,-0.0159902573,-0.0365348645
93269.739390,-0.16098427,-0.412310562,2.07750186,0.0553598851,0.0530663058,-0.0336746275
93269.749417,-0.0470304394,-0.335787915,-0.511140427,0.0987837687,0.0464160107,-0.0128950616
93269.759443,-0.292507723,-0.247462055,-1.5843156,-0.0516233109,-0.0125578269,-0.0356302001
93269.769469,-0.191799789,-0.457867796,0.0566886864,-0.111502089,-0.0170042403,-0.0142498119
93269.779496,-0.506888396,0.715952513,1.13958095,0.0399489477,0.000349183334,-0.0115110176
93269.789522,-0.639865445,0.704576402,0.18616613,0.149738312,-0.00359655637,-0.0385961644
93269.799549,-0.269518732,-0.783647089,-1.7147844,0.0550589263,-0.0476649478,-0.0287584476
93269.809576,-0.106797474,-1.017198,-0.146339731,-0.0985005423,-0.0603605025,-0.0125869336
93269.819603,-0.249928828,-0.225869341,2.10230312,-0.158024043,0.000735341688,-0.0137478067
93269.829629,-0.292691847,0.659114847,-0.130407418,0.107003354,0.00280088931,0.0137429405
93269.839655,-0.23133294,-0.0334740617,-0.584796615,0.0677880347,0.0276124962,-0.0268074125
93269.849682,-0.112814688,-1.05677729,0.0290291106,-0.0758711249,0.0117432512,0.0125423875
93269.859708,-0.549720297,-0.322420082,0.0400444256,-0.0784448087,0.0137773743,0.0183246434
93269.869735,-0.120913632,0.296603468,0.179659817,0.0204114672,0.00676260749,0.0168694928
93269.879761,0.322259193,-0.37464156,0.981591116,-0.0342653617,0.0370520689,0.00973115489
93269.889788,-0.168258425,-0.350239744,-0.469561047,0.0325131379,0.0170850214,0.03787411
93269.899814,-0.500546187,-0.25158529,-0.273693607,-0.0818214267,-0.0111530097,0.0153405704
93269.909841,-0.222772051,0.277966809,-0.729816496,0.0462462604,-0.0393497609,0.0330652408
93269.919867,0.162738237,-0.202571048,-0.433209046,0.10068953,-0.0313102081,0.0176668428
93269.929893,0.252670254,-1.53026077,0.0380354239,0.0918004289,-0.0367121659,0.0568704382
93269.939920,-0.377098708,-1.10008211,0.890825388,-0.00563131832,-0.023776127,0.0536581315
93269.949946,-0.417338181,-0.52856528,1.35134154,-0.151026055,-0.0191411618,0.033277493
93269.959973,-0.0106345629,-0.549823172,0.593954319,-0.029751569,0.0132101206,0.0671821982
93269.969999,-0.210650821,0.647584203,-0.632732086,0.0337560363,0.0194712132,0.0782795846
93269.980026,-0.60087473,0.768312961,-0.761557203,-0.0406052805,-0.00341173261,0.0358844623
93269.990052,-0.332400721,0.287730845,-0.6969424,-0.0299680829,-0.0137229599,0.0606313534
93270.000079,-0.194413186,0.0785318493,0.352264455,-0.0668858886,-0.0267876294,0.0504716597
93270.010105,0.563433399,-0.28399544,1.78769882,-0.0336653516,0.0517191626,0.0548714697
93270.020131,0.528022954,0.0670003741,0.944430137,0.085175015,0.107168041,0.0502042808
93270.030158,-0.318990181,0.0962734221,-1.41211428,-0.00405446067,0.0512986518,0.0354447737
93270.040184,-0.643206718,0.138056892,-1.33405372,-0.121436745,-0.0267372951,0.033470571
93270.050211,-0.309187311,1.16396852,0.423974185,0.0200743116,-0.0301924795,0.0288664997
93270.060237,-0.0300567092,0.549736371,1.27571493,-0.007854525,-0.0220911447,0.0039686067
93270.070264,0.0438052669,0.221446301,-0.193143568,0.0420853384,-0.0104089221,0.0316463076
93270.080290,-0.420077689,1.17629441,-1.13464116,0.0490772016,-0.0422523394,-0.0230520926
93270.090317,-0.089568061,-0.722809174,0.272401229,0.00695877522,-0.016016474,-0.0139198462
93270.100343,-0.302198054,-0.827565872,0.052243982,-0.0406628065,-0.0295312181,0.0301677212
93270.110370,-0.31462172,0.90787728,-0.593918664,0.00231715199,-0.0234751888,-0.00147808995
93270.120396,-0.490567595,0.428165463,0.630951048,-0.109532148,-0.0272078756,-0.0354605578
93270.130423,-0.221035053,0.251518965,1.37507372,0.0856032521,0.0309188105,0.0199009683
93270.140449,-0.407713224,0.961309303,-0.345214536,0.0766720772,0.021909602,-0.0349199362
93270.150475,-0.291262033,-0.441863112,-1.28268302,-0.0729315281,-0.0287932549,-0.0325832777
93270.160502,-0.294055372,0.0287892009,0.142501761,-0.123906299,-0.0248565711,-0.0234425105
93270.170528,-0.713193716,1.14175742,1.95817873,0.0674141273,0.00707632815,-0.0439509824
93270.180555,-0.50563982,0.374922496,0.573534632,0.111478791,0.0278670937,-0.0404491909
93270.190581,-0.37201545,-0.0201789834,-2.19066997,-0.0226513147,-0.0477083586,-0.0424276516
93270.200608,-0.132229665,-0.157824198,-0.655805503,-0.168652728,-0.0389596075,-0.0618708618
93270.210634,-0.504085467,0.478376879,2.40565069,-0.00598099176,-0.00506875152,-0.0367045179
93270.220661,-0.754895992,1.69837877,1.28934774,0.19292812,0.0554758199,-0.0565975346
93270.230687,-0.924467765,0.425387449,-2.76767198,0.0191198345,-0.033856459,-0.0773848444
93270.240714,-0.301556596,-0.992396515,-1.08467798,-0.208750069,-0.0752875134,-0.0642192364
93270.250740,0.0482076757,0.105886853,2.44256383,-0.0102444468,0.027866561,-0.0428159423
93270.260767,-0.90086046,0.725567972,1.68506438,0.142423406,0.0574785173,-0.059466023
93270.270793,-1.04026849,-0.664916446,-1.61819741,0.108733341,0.0216368958,-0.0380707197
93270.280819,-0.443603562,-0.96986495,-1.91031047,-0.0409213975,-0.0689380094,-0.0414534695
93270.290846,0.323714068,-0.589742218,2.70098564,-0.102806069,0.00133348769,-0.0300892293
93270.300872,-0.839875465,-0.551224819,2.73642812,-0.0405674651,0.0681841597,0.0101537984
93270.310899,-0.639928647,0.719896283,-2.07951144,0.24114652,0.0659013018,0.0251220949
93270.320925,-1.04373361,0.795755095,-2.45537655,-0.0119025307,-0.108852133,-0.076937966
93270.330952,0.263038723,-0.90039708,1.83079036,-0.0956658721,0.0282386057,-0.0476383939
93270.340978,-1.23786363,-0.156700838,-0.353461556,0.0797853097,-0.0297674388,0.0222618598
93270.351005,-0.366879475,0.510836476,-0.404150709,0.0153232319,0.0132436762,-0.0201673545
93270.361031,-0.149023436,-0.00674419073,-0.160581023,-0.111402221,-0.00312757352,-0.022990305
93270.371058,-0.392446755,0.516053261,0.223823368,0.033814624,0.0143110715,-0.0171910077
93270.381084,0.0142968209,-0.60735832,0.50205988,0.103973471,0.0347098187,-0.00794371311
93270.391111,1.22991472,-1.46826609,1.71812611,0.0398613326,0.117122941,0.0296412148
93270.401137,-0.414912488,-0.400747842,1.94755212,-0.226782873,0.108282313,-0.00240034331
93270.411164,-0.734957366,1.22753338,-3.63546253,0.385414481,0.120556287,0.0011549769
93270.421190,-1.00351967,-0.097316885,-3.27434433,0.0685201436,-0.197842196,-0.0576228537
93270.431217,0.492251383,-1.32767528,2.90976633,-0.268362552,-0.051114805,0.0253559202
93270.441243,-0.508039356,0.81151987,2.58833249,0.0229555853,0.0456053428,0.0100454073
93270.451270,-0.19404976,2.11889448,-1.37260353,0.0908842981,-0.0197733957,-0.00113693904
93270.461296,-0.21848957,-1.72517866,-1.099443,0.141513661,-0.031372793,-0.0311129466
93270.471322,0.396537458,-1.68795016,0.775802586,-0.0957777202,-0.00158586947,0.0300071314
93270.481349,-0.621872838,-0.348538493,1.16777887,-0.176709577,0.0142058767,-0.0212976001
93270.491375,-0.231865513,-0.0540843948,-2.32627028,0.123975411,-0.00063538726,0.0111887027
93270.501402,-0.26434754,-0.173896504,0.18611703,-0.0122543341,-0.00590098929,-0.0149811162
93270.511428,-0.379087215,-0.528405012,2.68593011,-0.134535491,0.0299387667,0.0180476736
93270.521455,0.466127712,0.432617364,-1.13054834,0.106448881,0.0463438407,0.0455037989
93270.531481,-0.149730506,0.908978227,-0.584646393,-0.0179082248,0.0381383747,-0.0346261896
93270.541508,-0.329620223,-0.738908442,0.271449043,0.0299905911,0.0313718133,-0.00275507569
93270.551534,-0.0637214072,-0.797260677,0.734745769,-0.0623816848,0.021812398,0.032108631
93270.561561,-0.335354712,0.767767164,-0.360483417,0.105114371,0.0442969352,0.0106430212
93270.571587,-0.432727108,1.67100648,-1.77497086,0.0455479808,-0.0554672107,-0.0343870372
93270.581614,0.150683962,-0.639365533,0.113591308,-0.0618927255,-0.0349797793,-0.0305225253
93270.591640,-0.0582739737,-0.681218323,0.707556733,-0.0920431688,-0.0527784824,0.00833485927
93270.601667,0.436807473,0.403334169,3.12413623,-0.0403048769,0.0751720294,-0.00846595783
93270.611693,-0.0853758517,1.40475983,-0.810446614,0.148200855,0.0514086373,-0.000558767468
93270.621720,-0.518969258,0.112226139,-2.23657715,0.0108997207,-0.0150556061,-0.0723919496
93270.631746,0.252601975,-1.03647604,0.382598218,-0.224157795,-0.00818385091,-0.0255115218
93270.641773,-0.192061581,0.80227266,0.283769011,0.0803384483,0.00203922531,-0.0128087746
93270.651799,-0.721306003,0.761326537,0.158565591,0.0897380784,-0.0170891955,-0.0600407384
93270.661826,0.353162792,-1.36765628,-0.15156828,0.0656098351,0.00379131921,-0.00504166633
93270.671852,0.34026159,-0.746877155,-0.331148017,-0.106454603,-0.00287217647,-0.00795516465
93270.681879,0.0647095049,0.226308043,1.05920043,-0.033626467,0.0308754016,-0.0264747851
93270.691905,-0.389587675,0.843972379,-0.0332166254,0.140313908,0.0253133886,-0.00332099758
93270.701932,0.0593359221,-0.367609104,-0.326142172,0.00810260326,0.0126527213,-0.0233389139
93270.711958,0.527372235,-0.473810448,0.59078095,-0.100377537,0.0264678691,0.00307138776
93270.721985,-0.272010969,1.1153298,-0.178028416,0.0791243166,0.011864692,0.000867355615
93270.732011,-0.421215168,0.116980813,-0.322383696,0.0237484071,-0.00546636153,-0.031125199
93270.742038,0.0885493855,-1.05599652,-0.253106746,-0.00194337312,-0.0523217507,0.0036626095
93270.752064,0.402823991,-0.317705877,1.89040984,-0.0999457464,0.0429415926,-0.00376353879
93270.762091,-0.534952095,0.521857928,-0.674053692,0.0802490562,-0.0477217287,0.0130956024
93270.772117,-0.16304639,0.115170394,-0.469640542,-0.009599071,-0.000131308683,-0.0243489742
93270.782144,0.0420120222,-0.318851576,-0.563901126,0.0742244571,-0.0289104935,0.00902549271
93270.792170,-0.433103467,-0.46035406,-0.112720955,0.0719128326,-0.0142191639,-0.0100065218
93270.802197,-0.464331293,-0.949850555,0.56977791,-0.0166931991,-0.0365945101,0.0134362206
93270.812223,-0.0319943217,-0.356241505,1.05019645,-0.178197145,-0.0110454755,0.0166362748
93270.822250,0.261808688,1.13824342,0.819292769,0.193045646,0.0554177053,0.0182192586
93270.832276,-0.65940645,0.909937793,-1.28088152,0.22533302,0.0320053212,0.0143544786
93270.842303,-0.0920445524,-1.63583697,-1.78928171,0.0435909145,-0.0327465087,0.0196520388
93270.852329,-0.381360164,-1.14737424,0.917175051,-0.0768609345,-0.0432092696,0.0254835635
93270.862356,0.385526563,-0.22067243,4.57682452,-0.151376709,0.10039264,-0.000851638615
93270.872382,0.0737013924,0.205975193,-1.73826639,0.299785674,0.0991273671,0.0519825481
93270.882409,-1.16273452,0.105295992,-3.29715529,0.0149930911,-0.0972442776,0.0278740153
93270.892435,-0.336935697,-1.02406387,0.485021066,-0.202949092,-0.0412190892,0.0338568054
93270.902462,-0.02073464,0.0158987716,2.46640473,-0.0876592547,0.0200013891,0.0385695361
93270.912488,0.14151422,1.04285683,-0.334863238,0.17358087,-0.00926089101,0.0410516039
93270.922515,-0.403349184,-1.30531907,-0.757961809,0.136346146,0.00748346793,0.0146857761
93270.932541,-0.492367447,-1.28321727,0.358314841,-0.224700198,-0.0240576807,0.0531532727
93270.942568,-0.151399015,0.426765679,0.206451962,-0.116491169,0.00245568599,0.0115453759
93270.952594,0.181068259,1.74742132,0.176394093,0.000559290813,0.0236866716,0.0146900369
93270.962621,-0.672932944,0.3386619,0.537948939,-0.0107010873,0.0532861091,-0.0172876045
93270.972647,-0.307340952,0.434055763,-1.63521168,0.0408603735,-0.0259309486,0.0137704471
93270.982674,0.812016202,-0.585804258,1.23186761,0.0337145813,0.0222187378,-0.0140856849
93270.992701,0.525451898,-0.443387472,1.76591662,-0.105507493,0.100900769,0.000631209463
93271.002727,-1.13167193,1.30592215,-3.0764486,0.0157036223,-0.079222396,0.0340573415
93271.012754,-0.112821611,-0.514459744,0.58428282,-0.0422763228,0.0145869171,-0.0410778858
93271.022780,0.14447686,-0.448393939,0.956817325,-0.0128907375,-0.00684753433,0.0229647458
93271.032807,0.544673352,1.65096849,-0.293247618,0.0201572273,-0.010891811,-0.00520217884
93271.042833,-0.388250691,0.150737053,0.724287503,-0.0504160076,0.0326338299,-0.0296199024
93271.052860,0.149430455,0.00310008947,-0.321078459,-0.0155677479,-0.00324534299,0.0241602361
93271.062886,0.377869436,0.845202432,0.38102527,-0.0149821183,0.0218903702,-0.0218442716
93271.072913,0.256743404,-0.752732823,1.49326229,-0.0984032452,0.0313043781,0.0268076845
93271.082939,0.122578633,0.0964496555,0.899763897,-0.0362951308,0.0763205886,0.0607398227
93271.092966,-0.19727464,2.07647237,-1.14273386,0.149227068,0.0612745285,-0.0008745417
93271.102992,-0.463354046,0.342390127,-2.73388779,0.126430675,-0.0374214202,-0.0311661325
93271.113019,-0.337985973,-2.27972188,-1.57015381,-0.107169837,-0.116020627,0.0198762752
93271.123045,-0.173093663,-0.115078441,1.76343649,-0.328700632,-0.0932250321,-0.0189337023
93271.133072,-0.191570108,0.818750771,2.1767753,0.239117801,0.0110758059,-0.0191749856
93271.143098,-0.196376723,-0.564422958,-0.100683311,0.293153346,0.0374216586,0.00695009157
93271.153125,0.0866624027,-1.6683716,-2.60822084,-0.0350423791,-0.0161076132,0.0312841944
93271.163151,-0.648449514,-0.582495535,0.27200317,-0.235886529,-0.0464002676,-0.00276778266
93271.173178,-0.158524236,-0.62564958,3.62979092,-0.0296233781,0.0535574853,0.0422542877
93271.183204,0.576303,0.655199427,-1.58332016,0.152137637,0.0526309721,0.0943936557
93271.193231,-0.159025171,1.0480384,-2.01589617,-0.0368892811,-0.0372203514,-0.0139168398
93271.203258,-0.415327024,-0.83456238,1.60363639,-0.155415133,0.0300154071,0.0254577287
93271.213284,-0.176625546,0.733690342,1.12657651,0.0382733792,0.00996127259,0.059585873
93271.223311,-0.30198074,1.56893157,0.0570259556,0.12989144,0.0456391089,0.025043074
93271.233337,-0.155957582,0.299934256,-2.27410112,0.0655936822,-0.053588409,0.03142827
93271.243364,0.118033482,-1.33082789,-0.373114351,-0.0801840276,-0.0624772385,0.0268977024
93271.253390,0.311251659,-0.307219883,2.79580444,-0.166839287,0.00526878284,0.019386787
93271.263417,-0.0607757639,0.952705652,1.25754332,0.26827088,0.076734446,0.0309651457
93271.273443,-0.785733321,1.07759928,-2.52157775,0.153898239,0.00115126965,0.0360339396
93271.283470,-0.29153833,-1.04227413,-1.41112761,-0.159917742,-0.0816309601,0.00358092645
93271.293496,0.378393314,-0.0580012669,1.15247434,-0.125135779,-0.0123288529,0.0343718641
93271.303523,-0.433660187,1.669365,1.49576171,0.141222671,0.0302396454,0.00978689082
93271.313549,0.193078394,-0.0402759785,0.525886745,0.0588612147,0.0513153709,-0.00590472016
93271.323576,0.401976544,-0.500368383,-1.0448171,-0.00344423926,0.0340610184,0.00558708608
93271.333603,-0.303651267,-0.498753897,0.270784442,-0.105897643,0.0122372108,-0.010751673
93271.343629,0.143322703,-0.0419484463,-0.196232766,0.117106676,0.0195505153,0.026443366
93271.353656,0.0381693319,-0.256206374,-0.345246101,0.00402938947,-0.00811759569,0.00612104964
93271.363682,0.614347631,-0.640497971,0.873060599,-0.0868110359,-0.00353163248,0.0193188768
93271.373709,-0.0701955534,0.165276085,0.773093912,0.0362477787,0.0300502945,0.0244087093
93271.383735,-0.198849178,0.230878328,-1.26550918,0.140603483,-0.0351169892,0.0151864495
93271.393762,0.380735018,-1.72001704,-1.40702661,0.094911091,-0.0567003116,0.047147315
93271.403788,0.556164687,-1.01469361,0.71778762,-0.179859221,-0.035568662,0.04155441
93271.413815,-0.567874304,0.281846646,1.32622581,-0.235795453,-0.0267485399,-0.00796147902
93271.423841,-0.190144423,0.837576248,0.134375737,0.0974187255,-0.0286628194,0.0458221249
93271.433868,-0.0239016937,-0.663401365,0.484585598,0.0930274352,-0.0013174807,0.0340879709
93271.443894,0.420001957,-1.01342301,-0.167683548,-0.0353366584,-0.00657269638,0.0505931787
93271.453921,0.253838513,-0.545649978,0.041337388,-0.0801877528,0.0398880132,0.0358078405
93271.463948,-1.03024416,-0.307119674,-0.840354846,-0.0186767224,-0.0156066706,0.061374452
93271.473974,-0.244992779,0.477699857,-0.620389322,0.0534483381,-0.0265197735,0.0540936366
93271.484001,1.15022254,-0.621847996,0.953532312,0.0505047478,0.0254355688,0.0517375395
93271.494027,-0.160405849,-1.11779692,1.08089145,-0.0184836425,0.033429049,0.0974970385
93271.504054,-0.630195992,-0.193261349,-0.648626405,0.0397421122,0.0287088603,0.0885671899
93271.514080,-0.130964413,0.238068824,-1.44214117,-0.00783765595,-0.0313137285,0.0709402561
93271.524107,-0.376632478,-0.48286451,0.196189512,-0.107221767,-0.052197706,0.071390599
93271.534133,0.34046778,0.179190775,0.737691175,0.00264587742,-0.0442401804,0.0924761817
93271.544160,0.148186473,0.679911259,2.78530233,-0.0578864403,0.058500845,0.0420548171
93271.554186,-0.306970511,0.892428586,0.142363813,0.238617122,0.0666479915,0.0760199726
93271.564213,-0.616283421,-0.517847597,-3.82172453,0.10649664,0.0294923633,0.062834397
93271.574240,-0.358744976,-1.27778443,-2.91544496,-0.30266875,-0.26978758,0.0626572967
93271.584266,0.444067965,0.272585719,5.40849395,-0.286774486,-0.00937647186,0.0262966268
93271.594293,1.07964291,1.26375298,3.77947996,0.291339993,0.15535149,0.0531412885
93271.604319,-1.19204369,0.445939056,-3.38497211,0.235102817,0.0883013532,0.0423312522
93271.614346,-0.271783536,-1.98906369,-3.53396557,-0.0637177005,-0.087694712,0.0563413426
93271.624372,-0.290149159,-0.656756082,1.66564715,-0.300545424,-0.0853929445,0.0380994901
93271.634399,0.0879310526,0.615160847,3.95305315,0.198287815,0.139360547,0.0356696211
93271.644426,-0.0466247539,1.40182611,-2.82697173,0.166883558,-0.00725020468,0.0795963332
93271.654452,-0.569377256,-1.20767505,-3.27571678,-0.119530365,-0.0810487941,-0.0230906308
93271.664479,-0.468412827,-0.139806475,1.76262576,-0.455680668,-0.110827461,0.0369082578
93271.674505,0.471387093,2.35128869,3.38606224,0.38973847,0.0902957916,0.0732673332
93271.684532,-0.351314753,1.1815592,-0.728783646,0.269428581,0.0540365912,-0.0107399551
93271.694558,0.230358104,-1.96043995,-2.95321209,0.115387343,-0.0027904748,0.0194570944
93271.704585,0.0540226775,-1.14219793,1.36111066,-0.253019989,-0.0266433451,0.0274122246
93271.714611,-0.161799221,0.582746478,3.66044558,-0.298725426,0.084801428,-0.010676573
93271.724638,0.0454847033,2.38584607,-2.58696704,0.152133897,-0.0539431386,0.0839873552
93271.734665,0.419258481,0.0325475602,-0.785575792,0.142944932,0.0558853559,-0.0612958074
93271.744691,0.251766036,-1.74184864,-0.395023985,-0.155391425,-0.0459597819,0.0546475723
93271.754718,0.100535354,0.279351121,2.01717744,-0.224918738,0.0332867093,0.00576821156
93271.764744,-0.546363789,1.43195179,-0.695271252,0.156854734,-0.0586120524,0.0251749326
93271.774771,1.15278048,-0.542823925,0.469417839,0.131548837,0.0339639522,-0.00520587619
93271.784797,0.00375443433,-1.34476713,1.85986799,-0.0677477494,0.00941653363,0.0550971478
93271.794824,-0.531114636,0.0502402729,0.135389883,-0.194170147,0.0302158222,0.016390495
93271.804849,0.100697148,2.28539642,-3.72331851,0.00268034241,-0.113849208,0.0423981249
93271.814876,-0.0248157809,1.59327705,-0.604257102,0.131948575,-0.0283372365,-0.0496228784
93271.824903,-0.14437403,-1.54443689,0.467318237,0.0656127036,-0.0742701069,0.0222675595
93271.834929,0.214479439,-0.241606241,2.58315245,-0.160932288,8.29525525e-05,0.0137968436
93271.844956,-0.142735505,0.960376625,1.73016901,0.00872491952,0.0943724364,-0.0425828099
93271.854982,-0.180053876,1.35530738,-2.66579742,0.0272290949,-0.0393115915,0.0349572562
93271.865009,-0.45008949,-0.00493707281,-0.901917276,-0.169403538,-0.0402580798,-0.0654585585
93271.875035,0.0230852902,0.537073106,2.09294375,-0.0816792771,-0.0189360119,-0.0199190415
93271.885062,0.622145883,1.482873,2.48281109,0.157875776,0.107770272,-0.0196849499
93271.895089,0.242958588,0.834307894,-2.17664086,0.156521305,0.0530859828,-0.0408437625
93271.905115,-0.965579016,-0.798345769,-3.88951621,0.0865057334,-0.147943541,-0.0756600648
93271.915142,0.0696348873,-1.64385705,1.46823072,-0.0314898789,-0.045386795,-0.050063096
93271.925168,-0.207997804,-0.737298157,4.04117275,-0.240702763,-0.0161737818,-0.0441490114
93271.935195,0.406160807,0.22994766,-0.638049482,0.205296293,0.0696953237,-0.0409580171
93271.945221,-0.658742214,1.098397,-2.95291399,-0.0986188427,-0.130298227,-0.0160689112
93271.955248,0.0404125648,-0.636700405,1.3099118,-0.0657679513,0.0307638999,-0.0513440743
93271.965275,-0.304346154,-0.44010403,2.49755448,-0.118098266,0.0467314124,-0.00782030076
93271.975301,-0.278505811,1.00805133,-1.80189862,0.194151238,0.0439798348,0.00720232353
93271.985328,-0.341570115,0.126653454,-2.03771228,-0.00226461515,-0.0225224905,-0.0774366632
93271.995354,0.163065569,-0.833505199,1.60621179,-0.179737672,-0.0170235969,-0.0325248465
93272.005381,-0.654396805,0.402013624,2.57564427,0.072642915,0.0887459815,-0.0171011519
93272.015407,-0.0256321845,1.40840564,-1.33888188,0.200903684,0.0310659017,-0.0127165224
93272.025434,0.526181892,-1.14492188,-2.25699742,0.0395880267,0.00362761994,-0.0659070387
93272.035461,-0.500547575,-1.53738171,-0.447475472,-0.17568408,-0.0637785792,0.00230024289
93272.045487,-0.782947417,0.228205675,1.4167057,-0.208521649,-0.0548649877,-0.0348034501
93272.055514,0.423450088,1.01600221,1.50799399,0.104548916,-0.00337995565,-0.0303429198
93272.065540,0.67733454,-0.303919745,1.29302964,-0.00202013692,0.0687592179,-0.0311349463
93272.075567,-0.147984247,0.181771786,-2.25766378,0.03292666,0.00500926794,0.024036698
93272.085593,-1.00221254,-0.119219012,-1.3544816,-0.0737049729,-0.0208529551,-0.0506226271
93272.095620,0.558749589,-0.300636029,0.747103731,-0.0881403685,-0.0102341333,-0.0143226758
93272.105647,0.133328037,1.09788737,1.59584237,0.099869743,0.0245241132,-0.0221691467
93272.115673,-0.0654546562,0.162286256,1.28813427,0.136982754,0.0625881404,-0.0471916795
93272.125700,-0.0551711032,-0.958464654,-2.47006909,0.0750328377,0.0264679547,0.0130729955
93272.135726,-0.113712815,-0.186102892,-1.91363582,-0.29991895,-0.122924194,-0.0493616164
93272.145753,0.403123047,0.943013475,1.42599259,-0.0667490661,-0.0600299202,-0.02718894
93272.155780,0.326182723,1.01825489,3.06441621,0.139163882,0.0827863589,-0.018587729
93272.165806,0.0169511257,-0.22798036,-0.454794855,0.168008849,0.0359695777,-0.023784088
93272.175833,-0.205852754,-1.6323465,-2.00796655,0.120295927,-0.0244572777,-0.00492358115
93272.185859,0.796552091,-0.935935135,0.477781178,-0.247519657,-0.00427877251,-0.0156079177
93272.195886,-0.389617851,0.339918512,0.297960618,0.0211983658,-0.00187819917,-0.0367265195
93272.205912,-0.866128973,0.622415494,0.499527731,0.0589651838,-0.0268093813,0.000197145157
93272.215939,0.566550983,-0.63969418,0.639502603,0.183416024,0.0781306177,0.0210757963
93272.225966,-0.530278368,-0.641150516,-3.94338984,0.102929182,-0.169513538,0.0393946171
93272.235992,0.49160008,-1.21642016,1.47687931,-0.101299047,-0.0282741208,0.0110961311
93272.246019,0.0868331561,-0.778945268,4.84996633,-0.14034766,0.0954598039,0.0256383233
93272.256045,-0.425421096,-0.105335018,-1.45393215,0.205411345,0.0953199938,0.0290825889
93272.266072,-0.56667461,0.527732994,-3.59598802,-0.174926937,-0.160473168,0.0458913967
93272.276099,0.366318736,-0.349625521,1.53529117,-0.151610434,0.0221949127,-0.00769220293
93272.286125,0.150951335,-0.320192798,3.29995048,0.0794430301,0.106784098,0.0372449085
93272.296152,0.12586034,-0.0225386069,0.184770292,0.188039809,0.125866979,0.0302610379
93272.306178,-0.870388311,-0.110465541,-4.92393816,-0.0186542422,-0.0562508963,0.0320948884
93272.316205,0.0536198232,-1.01452622,-0.579900075,-0.115618065,-0.0991930291,-0.00446099043
93272.326232,1.52784597,-0.652224064,6.39255175,-0.107062928,0.110897087,0.0212744661
93272.336258,-0.170261965,0.122252899,-0.115585697,0.240949363,0.0852865353,0.0213754009
93272.346285,-0.978235742,0.754895115,-4.81036907,0.0788307711,-0.065245986,0.0486022308
93272.356311,0.1407866,-1.66691731,-0.80370357,-0.131786659,-0.0908179209,0.00110022258
93272.366338,1.20771757,-0.622088746,4.09034331,-0.337738752,-0.00541461073,0.0290831216
93272.376365,0.0290142555,1.24270844,-0.211911981,0.278424293,0.041537717,0.055037491
93272.386391,-0.600270882,1.40588679,-1.25917472,0.046183344,0.00720717479,-0.0198886823
93272.396418,0.742854841,-1.53822167,0.44165831,0.0579896681,0.0459463112,0.0176317953
93272.406444,0.605328494,-0.966069868,0.473654454,-0.243348077,0.0143745402,0.0562164709
93272.416471,0.195109644,2.05405683,-0.82752459,0.109680034,0.0248538125,-0.0152585097
93272.426497,-0.850061197,1.8697676,-0.372443904,0.0281225853,0.000274966471,-0.0289924312
93272.436524,1.21833015,-1.09074181,1.47500183,-0.0357189775,0.040032763,0.0117651178
93272.446551,-0.181306726,0.208934482,0.928628173,-0.000937295554,0.0613388531,0.00867851358
93272.456577,-0.179228184,1.8324656,-2.8595068,0.0673538819,-0.0702559203,-0.0160132498
93272.466604,0.882226048,-1.20990537,0.530104071,-0.0130347041,0.00722128991,-0.0488955677
93272.476630,-0.725239105,-0.871381341,2.98152049,-0.252103209,-0.0218646899,0.0142873973
93272.486657,0.441142871,1.3432408,-1.01518768,0.16351743,-0.0170132089,-0.00543703884
93272.496684,0.910245178,0.345521995,0.824903594,-0.0818257481,0.0447116718,-0.0543377325
93272.506710,-0.148771452,0.317995434,0.446869907,0.211189076,0.131580785,0.0174214058
93272.516737,-1.33665952,1.88412667,-4.56012239,0.104946531,-0.0573212206,0.0176509693
93272.526763,-0.120256574,-1.50631978,-1.63546477,-0.0105920536,-0.120439202,-0.0610680729
93272.536790,0.486835057,-1.2136615,4.57949111,-0.156030744,-0.0649799332,-0.00579363573
93272.546817,-0.428323539,0.0692607842,2.74067759,-5.01965842e-05,0.0753105953,-0.0505770892
93272.556843,0.297270644,0.0292193451,-3.89142993,0.0166701935,-0.0381611064,0.0450567603
93272.566870,0.00766284451,-0.537343813,-0.914622444,-0.269077659,-0.0248961672,-0.031344533
93272.576896,0.2360666,0.435704735,0.916536753,0.0657429323,0.00437197369,0.0186440628
93272.586923,-0.247079156,0.776712029,1.85558286,0.102329977,0.0623604394,-0.0123753715
93272.596950,0.0222756383,0.217662362,-0.394744583,0.062204387,0.0290861093,-0.00814387575
93272.606976,0.386916082,-0.0279417903,-0.452376103,-0.0714372918,0.0319822952,-0.00927225687
93272.617003,0.316245303,0.0717496281,0.495882068,0.0326044187,0.0268064421,0.0165375024
93272.627029,-0.833695972,-0.0626064454,-0.452481902,0.0759284571,-0.0236961469,-0.00308599975
93272.637056,-0.0751237899,-0.876488747,-0.043646834,-0.0288592093,-0.0347948708,0.00314020412
93272.647083,0.311324469,-0.0999402375,-0.881817322,0.0278557353,-0.0381368734,0.0174983703
93272.657109,0.239298147,0.650479924,0.132539169,0.0448078215,-0.0537464581,-0.0035560485
93272.667136,0.396389684,-0.555153318,1.70555129,0.0460152999,0.0160323568,0.0261033103
93272.677162,-0.157627141,-0.155762407,-0.30943829,0.0551331639,0.0367349721,0.0500030518
93272.687189,-0.974993106,0.570661524,-1.56266725,-0.0231608432,-0.0606246032,0.0188352764
93272.697216,0.821928524,-0.199840143,0.717199006,0.0305596441,0.00464974111,0.0197849609
93272.707242,0.23963622,-0.825656824,1.50401808,0.00261695916,0.0203280374,0.0499007851
93272.717269,-0.299378266,-0.453170432,0.588092734,-0.0457242094,0.0426096395,0.056060411
93272.727295,-0.23166367,0.99449736,-2.50968273,-0.0110703567,-0.0636584759,0.0556223169
93272.737322,0.375228932,0.216484057,0.354340092,-0.0411939062,-0.0223547127,-0.00985495746
93272.747349,0.0436055841,-0.927471111,2.94156199,-0.00652460707,0.0356420092,0.0524142757
93272.757375,0.0186469652,0.239858192,-0.029760932,0.148424983,0.073605977,0.057227008
93272.767402,0.0594328386,1.24269427,-2.85054959,-0.0828505829,-0.0940133855,0.024781717
93272.777428,0.701297673,-0.909327114,0.755081285,-0.0132019967,0.0319472104,-0.00192739069
93272.787455,-0.500694911,-1.06333037,1.12483522,-0.00681973156,-0.00923298206,0.0557601415
93272.797482,0.499370531,-0.274618576,-0.146489953,-0.0021466827,0.0225334689,0.0321219228
93272.807508,0.40302313,-0.354011445,-0.380245518,-0.0662636161,0.00616754545,0.036381647
93272.817535,-0.208334196,0.0730699261,0.260765736,-0.000793264131,0.00343833817,0.039798215
93272.827561,-0.306373313,0.885774827,-0.639879035,0.0344723165,-0.023306191,0.00683254469
93272.837588,0.424689859,-0.0633364767,0.161246208,-0.0872559845,-0.0174381807,0.0107063791
93272.847615,-0.0602315604,0.328806276,0.164078217,0.0757273436,-0.0190477967,0.0221859347
93272.857641,0.244801019,-0.43743598,-0.04297931,0.0401469804,0.000852408702,0.00881872978
93272.867668,0.343947658,-0.860943899,0.190128604,-0.088785708,-0.0104660261,0.0329395123
93272.877694,-0.19934498,-0.0854651374,1.2100024,-0.0189008955,0.0161051303,0.0242139325
93272.887721,0.0919309359,0.319784437,-0.331207054,0.0925771594,0.0191643052,0.0344548523
93272.897748,0.174874117,-0.238775585,-0.70424191,-0.124647833,-0.00734586641,0.0150145739
93272.907774,-0.209427106,0.271090402,-0.954181132,0.0139276246,-0.0135518303,0.0418224856
93272.917801,-0.325776882,0.478750571,-0.385391064,0.0464099348,-0.0468778275,0.016363997
93272.927827,0.872252644,-1.01125429,1.60360132,-0.00289849285,-0.0103049045,0.0438696593
93272.937854,0.310955855,-0.55352042,3.9936026,-0.0814739987,0.0853470564,0.065238595
93272.947881,-0.2111848,0.702089919,-1.22792325,0.38687858,0.171514958,0.0566445738
93272.957907,-0.816349555,1.16960192,-6.19695728,-0.0365991965,-0.121730231,0.057778284
93272.967934,-0.445186996,-1.33996806,-0.950803764,-0.212915376,-0.134230837,0.0131658074
93272.977960,-0.169088264,-0.186865072,7.16007517,-0.238819137,-0.000126569299,0.0534881987
93272.987987,1.05402485,1.42708521,2.21675017,0.415420473,0.138061404,0.0350245014
93272.998014,0.579741597,0.838225579,-4.42933678,0.0938743874,0.0965467095,0.0154366847
93273.008040,-1.70067258,-1.59375256,-3.05420578,-0.292891175,-0.167171478,0.020306807
93273.018067,-0.183079453,0.160227825,1.36192724,-0.195899636,-0.0471137837,0.0184444599
93273.028093,0.641737523,1.52602153,5.09242426,0.235726342,0.147401899,0.0200247802
93273.038120,-0.550168808,-0.0638898454,-1.17458329,0.396369815,0.0798146054,0.0190641768
93273.048147,0.207872826,-1.63841573,-5.73903699,-0.0584315248,-0.0655300766,0.0475027412
93273.058173,-0.642544163,-0.268172652,0.131626146,-0.400063157,-0.12940599,-0.000148666091
93273.068200,0.379953001,0.83785996,6.50782239,0.24392195,0.16927205,0.0532261431
93273.078227,-0.297097717,1.48749861,-0.167407069,0.219326586,0.0497003756,0.056625668
93273.088253,0.00185147765,-0.772517427,-4.11549997,0.0208832696,0.0138720702,-0.0183950476
93273.098280,-0.236388635,-1.34159186,-1.08916126,-0.207548305,-0.13311711,0.0377616957
93273.108306,0.125322087,0.314162724,5.43099045,-0.174836963,0.0591226406,0.0246006213
93273.118333,-0.365919727,1.38661218,-0.820996065,0.394171357,0.05717507,0.0557473563
93273.128360,0.0305529226,-0.0777532388,-5.78346533,0.13686794,-0.0436822996,0.018236734
93273.138386,0.173716106,-1.69717056,0.181592831,-0.270369887,-0.153361127,0.0184977241
93273.148413,0.386435495,0.00827337763,9.08590587,-0.354230165,0.147964895,0.0143703558
93273.158440,0.330700018,0.920005671,-1.74275727,0.587262273,0.129574969,0.0863955468
93273.168466,0.229953249,-0.592510806,-5.26524283,0.254298687,-0.00696743093,0.0268818866
93273.178493,0.0410312904,-2.49844033,-0.465353074,-0.266909629,-0.131781265,0.0767557025
93273.188519,0.300208726,-0.536695432,5.38770485,-0.473262787,0.0122733749,0.0821414143
93273.198546,-0.146899055,1.84573045,-0.890946384,0.538970649,0.0684711337,0.0827392936
93273.208573,-0.0485418806,1.08676261,-1.73239604,0.214044213,0.00401118398,-0.00872723944
93273.218599,0.310272658,-1.92356816,-0.702680652,-0.0440922678,0.0307461247,0.0693843365
93273.228626,-1.03039541,-0.824726849,-2.60945477,-0.248769239,-0.195689946,0.0755721927
93273.238653,0.784353192,1.30958929,1.25793144,-0.120681852,-0.0889046416,0.0641741306
93273.248679,-0.00139950067,1.85402613,4.41738857,0.127741545,0.105283208,0.0522852466
93273.258706,0.111390263,0.817005681,0.106312841,0.231075123,0.0621336102,0.0353981405
93273.268732,0.228844174,-0.605430165,-2.98513283,-0.0770025477,0.048522193,0.0381305441
93273.278759,-0.946419704,-0.418249779,-1.06599666,-0.295566559,-0.124399781,0.0175288655
93273.288786,0.871818636,1.33735744,2.02394153,0.0642038435,-0.002427008,0.0151687711
93273.298812,0.142024005,1.46278722,-0.287576002,0.213411972,-0.0177407153,-0.0150341392
93273.308839,0.319460064,-1.8106926,-0.635283524,0.0671093538,-0.0409839861,0.0112427399
93273.318866,0.0523575391,-0.722281716,0.864016292,-0.277881593,-0.0250665396,0.00966508314
93273.328892,0.00676775427,0.729630837,1.10392687,0.019771399,0.0363472849,-0.0217133462
93273.338919,-0.603906572,1.43742101,-0.705582218,0.11243742,-0.0187417977,0.0216391869
93273.348945,0.411582467,-0.247479864,-0.00525426727,-0.00241646077,0.0119095873,-0.0229317434
93273.358972,-0.0154748654,-0.928082083,0.705985538,-0.0128131751,0.0417202152,0.00416459003
93273.368999,-0.603121815,0.107090328,-0.413301984,0.0446892679,0.0543302819,0.00537313242
93273.379025,0.0759363438,1.62702603,-2.76137902,-0.062887527,-0.104485199,0.0313525349
93273.389052,0.158071524,-0.512557016,2.28583422,-0.142295793,0.010428071,-0.0296370499
93273.399079,0.693125691,0.181493663,4.36022584,0.0393658765,0.170031577,0.0179469809
93273.409105,-0.817546802,2.24441895,-3.23145328,0.234974265,0.0188668296,0.0462995246
93273.419132,-0.217676317,-0.846258736,-3.803187,0.0985319912,-0.0811351314,-0.0937774181
93273.429159,0.142829367,-1.51652889,1.33601304,-0.27833432,-0.0964328647,-0.0096697323
93273.439185,0.339935281,0.153405377,5.04436487,-0.191477984,0.0815440565,-0.0190121029
93273.449212,-0.264819962,1.64054398,-2.64388428,0.292423964,-0.0029564444,0.0380991213
93273.459239,0.0716171426,-0.328488589,-3.42227396,0.152189627,-0.0897520557,-0.0742726922
93273.469265,0.819066705,-1.48697108,2.61584827,-0.293023527,-0.0191287547,-0.00468749087
93273.479292,-0.064560082,0.442410371,5.03929531,-0.216815576,0.159636736,-0.0317622535
93273.489318,-0.19569707,1.96910782,-3.49257557,0.275957376,0.0093138041,0.0487720035
93273.499345,0.149170735,-0.7599429,-2.84056537,0.112239547,0.01604601,-0.0980730951
93273.509372,0.0323704798,-1.15067109,0.473392003,-0.34992221,-0.087883316,-0.00353620667
93273.519398,0.124900391,0.868394799,3.94503293,0.0648667067,0.0869638622,-0.00777303055
93273.529425,-0.438016008,2.06509845,-0.535744707,0.262437314,0.0119354194,0.00124203693
93273.539452,0.454585267,-0.515290934,-2.39794085,0.0438303985,0.000503800926,-0.0511556566
93273.549478,-0.124071365,-1.24238988,-0.939032078,-0.291570246,-0.0914841816,-0.00784679875
93273.559505,0.330218079,0.757334763,1.03502519,0.0202752687,-0.0270082504,-0.0255312547
93273.569532,-0.0615901262,1.41345386,2.18650642,0.0938062072,0.0356239714,-0.0544358753
93273.579558,-0.087541414,-0.778768743,0.288422974,0.161568746,0.0458334647,-0.0061090868
93273.589585,0.0909661095,-0.784565958,-2.37076116,-0.0177621283,-0.0533530377,0.0142052397
93273.599612,0.115675759,0.0170344543,-0.165450674,-0.098178938,-0.00294046523,-0.0457326621
93273.609638,-0.432824577,-0.0989812015,0.966962872,-0.0146624744,-0.0444458313,-0.0138327871
93273.619665,0.469543548,0.0824059691,2.02789933,0.0137763573,0.0168585405,0.0165576097
93273.629692,0.133456357,0.714448758,0.236913152,-0.00422794325,0.0585631095,-0.000116175041
93273.639718,-0.324355361,1.55318704,-2.85484173,0.154137731,0.0254498981,0.00444768369
93273.649745,-0.926046486,0.0367837251,-1.80457339,0.0213847421,-0.142162532,-0.0750998706
93273.659772,0.638005423,-0.902012334,3.67614117,-0.151040554,-0.0105049079,-0.0332211331
93273.669798,0.573791712,0.319152313,1.91819977,0.132120579,0.094375968,-0.0344861336
93273.679825,0.166565924,0.981749449,-1.59057057,0.127446994,0.0429316871,-0.0222449116
93273.689852,-0.646171194,-0.996749377,-1.46874686,-0.02982172,-0.024162665,-0.0419823974
93273.699878,-0.181024493,-0.512510072,0.391195366,-0.263083994,-0.0178965107,-0.0287371688
93273.709905,0.63255936,1.48247786,0.207713945,0.0992382616,-0.0217391849,-0.0506765544
93273.719932,0.210929418,-0.07368377,0.972269161,0.180957898,0.0371318534,-0.0742426068
93273.729958,-0.395601054,-1.30316379,-0.24906127,-0.123020642,-0.00733361579,-0.0196837503
93273.739985,0.598075053,0.270950775,-0.572623947,-0.0772361085,0.00596993882,-0.0628687739
93273.750012,0.497246378,-0.0683431487,1.03777068,0.0562457889,0.0293421075,-0.0489769243
93273.760038,0.0731811953,-0.833874617,0.747950118,-0.0661330968,0.0225793235,-0.000515331514
93273.770065,0.184177094,1.23470502,-1.73019824,-0.0684471205,-0.0436122157,-0.0415551774
93273.780092,-0.0486844583,-0.06700421,0.910888518,-0.0453756228,0.0151283313,-0.0838285983
93273.790118,0.445801767,0.118688969,-0.589814151,0.0932413787,-0.0330099054,-0.000392027199
93273.800145,0.37007575,1.38915441,-0.557793457,-0.0306408852,-0.00909711327,-0.0775086433
93273.810173,-0.603869016,-0.633920346,0.628942046,-0.099835664,-0.048155833,-0.0592966191
93273.820199,0.420475675,0.180427696,1.26547352,0.0655977651,0.00504906569,-0.0259679593
93273.830226,0.2697888,0.793821204,0.0780038617,0.143860608,0.0259362385,-0.0738593191
93273.840253,0.143751414,-0.791045164,-2.12507843,0.000448857143,-0.0395764597,-0.0422681049
93273.850280,-0.117728198,-0.7345303,-0.298656199,-0.162928626,-0.0271413606,-0.0455259494
93273.860305,-0.191346382,0.269495662,2.89842602,-0.0849483311,0.0125858113,-0.0602180772
93273.870333,0.337930809,1.02666791,0.694648152,0.177143201,0.0425871201,-0.0327891149
93273.880360,0.0233610977,0.0255179881,-1.64967333,-0.0226522014,0.0206501298,-0.0772689581
93273.890386,-0.192798773,-0.786304253,-0.980374142,-0.144196481,-0.0119778542,-0.0474381
93273.900413,-0.407133013,0.527476133,0.561599864,-0.0134046404,-0.00303948694,-0.0491497107
93273.910440,-0.356815031,0.886425984,0.604264701,0.121371552,-0.0236230586,-0.058895018
93273.920466,0.705253352,-0.579873625,0.0935755248,0.0503373221,0.0142992893,-0.0566427819
93273.930493,0.664266896,-0.997930257,0.895186506,-0.0994495079,0.0150186094,-0.022222491
93273.940519,-0.45956017,-0.264037159,2.59579508,-0.187159657,0.0915373489,-0.030088935
93273.950546,-0.731071245,1.42452997,-3.97602135,0.406751364,0.0930212662,0.0166535359
93273.960573,-0.721630267,-0.0683851338,-4.55873941,0.000884017674,-0.303363115,-0.120908588
93273.970600,1.15820185,-1.19195368,3.45123702,-0.294603556,-0.0454769582,-0.0664717108
93273.980627,-0.35814343,0.0725863301,4.43247333,-0.0058766827,0.108433247,-0.045100376
93273.990653,-0.0575799636,1.19059342,-1.86578394,0.190825447,-0.0125349881,0.00287061185
93274.000680,0.111996851,-1.16274862,-2.3490678,0.0986577198,0.00312732882,-0.0728744864
93274.010707,-0.394650841,-1.31957877,0.0224801274,-0.233812124,-0.0704635382,0.00646108575
93274.020733,-0.901782836,0.305169471,3.32739846,-0.194010645,0.000637805904,-0.00832505152
93274.030760,0.485170814,2.08756425,0.268293794,0.170116439,0.0144777214,-0.00194518268
93274.040787,0.425396911,2.00336504,-1.91576056,0.0344411805,0.00568369683,-0.0808461159
93274.050814,-0.599885317,-0.865012463,-0.613323037,-0.112184212,-0.00777751673,-0.0443791933
93274.060840,-0.38066725,0.513134268,1.03083592,-0.012046162,0.0164330136,-0.0171086881
93274.070867,-0.297238624,2.01581901,1.01518768,0.209156796,0.0591586381,-0.0943496823
93274.080894,0.199065341,-1.38527319,-1.25774439,0.175689638,-0.00411247462,-0.0802921802
93274.090919,0.780190592,-2.15368946,-0.946796866,0.0468645617,-0.000873804325,-0.0105690304
93274.100947,-0.127227162,-0.7898797,2.03067873,-0.197428539,-0.0236219931,-0.0398044139
93274.110974,-0.124283035,0.170958533,3.47029068,-0.314700842,0.0796660408,-0.0545484759
93274.121001,-0.167387159,2.0378834,-3.9003094,0.284441948,-0.0117594758,0.0633992031
93274.131027,-0.549339261,-0.195663259,-2.99458514,0.17332688,-0.0991849303,-0.112290338
93274.141054,0.808202562,-1.82633937,1.95762401,-0.209609583,-0.0813806355,0.00443734974
93274.151080,-0.197323667,0.159414646,4.71194844,-0.306637853,0.0768452212,-0.0331680812
93274.161107,-0.12971676,1.4669325,-3.34699455,0.377940744,0.0307389833,0.0324386247
93274.171133,0.310358948,-0.202775758,-2.39337164,0.0764296427,-0.0665769204,-0.08356148
93274.181161,0.974732483,-0.964140946,2.65104525,-0.283376485,-0.0113389622,-0.0278177932
93274.191188,-0.335716567,0.474859738,2.7149031,0.00788014196,0.124406882,-0.0227599181
93274.201214,-0.23124844,2.01466765,-2.61207226,0.199057281,0.020742543,0.0227465816
93274.211241,0.135577112,-0.983610493,-1.95187816,0.0290741101,-0.069201462,-0.0927429944
93274.221268,1.39446143,-1.35758614,3.17513576,-0.170015022,0.0160657652,-0.00870508328
93274.231294,-0.342894386,0.0244979814,1.39624218,-0.0440616161,0.110772297,-0.0231806971
93274.241321,-0.0460777373,1.38406805,-5.13028608,0.0440946072,-0.0984530896,0.0517992713
93274.251348,0.823643876,-0.477637971,0.623200872,-0.19117704,-0.0240339842,-0.0972759575
93274.261375,0.387186496,-0.207940502,5.36739329,-0.206221506,0.0747021809,-0.0434127301
93274.271401,-0.353428749,1.07563346,-1.20144967,0.269104272,0.0225452352,0.00179655896
93274.281428,0.325283582,0.0248728312,-3.81183617,0.0935990438,0.00217098766,-0.0849263519
93274.291455,0.263911779,-1.61912417,-1.27059277,-0.212336659,-0.131536737,-0.028435912
93274.301482,0.26991491,-0.44284646,4.13930345,-0.182156652,-0.0463302359,-0.00698840991
93274.311508,0.526405764,0.718006377,2.23802618,0.261831462,0.120996974,-0.015919853
93274.321535,0.0340649174,0.491383733,-2.03763337,0.06998799,0.01787192,-0.0262268186
93274.331562,-0.549817693,-1.13494818,-1.05182318,-0.187468857,-0.0245027002,-0.0220408626
93274.341588,0.312420995,0.394623843,-1.82701143,-0.067314744,-0.077361919,0.0209902264
93274.351615,0.522929832,1.48226699,2.38701263,-0.0476590171,0.00523681846,-0.0757759959
93274.361641,-0.00512649443,0.117140342,2.76566591,0.213788822,0.0989444032,-0.0113235041
93274.371669,0.0881315802,-0.0168114204,-2.58766905,0.0936214104,0.0695319176,0.00419020839
93274.381694,-0.379727412,-0.18986272,-2.74661926,-0.242064714,-0.145979062,-0.0719234645
93274.391722,0.0601020796,0.418860276,1.06246849,-0.0270951539,-0.0326522402,-0.0313803032
93274.401749,-0.276079826,0.0677785645,1.65714352,0.0919233784,-0.00686724856,-0.0181619693
93274.411776,0.750298727,-0.595257365,0.217641465,-0.0464747064,0.00863288157,0.00740570854
93274.421802,-0.165499354,-0.0356876871,0.589463438,-0.0727971271,0.0180455595,-0.0121373665
93274.431829,-0.387968952,0.83055446,0.346920171,0.0851056874,0.0242552515,-0.0106273536
93274.441856,-0.36594055,0.773760486,-1.37401807,0.0875371546,-0.0271797106,-0.0317616686
93274.451883,-0.23466877,-0.801135984,-1.05606096,-0.0522721447,-0.0530216955,-0.0275152586
93274.461909,0.647804275,-0.726465578,0.339258843,-0.0660667866,-0.024790056,0.00759319542
93274.471936,-0.243320096,0.22953696,2.55941151,-0.00273521827,0.0501339845,-0.0231154487
93274.481963,-0.642847895,0.389271193,-0.22255554,0.252390534,0.0378171317,-0.00253960025
93274.491990,0.0911814053,-0.872270618,-3.10034853,0.0486653894,-0.0386368968,-0.0130212698
93274.502016,0.510838741,-0.929602717,0.939064226,-0.266738921,-0.0255384035,0.00754419342
93274.512043,-0.627292818,0.391295612,3.50752589,-0.0300142448,0.0797222406,0.0023214682
93274.522070,0.12040592,1.41024367,-0.702280839,0.153091654,0.0225614812,0.0229199529
93274.532096,0.475225576,-0.720027946,-0.971892729,-0.0230277069,0.0264699366,-0.0291600265
93274.542123,-0.142161331,-0.864489097,-0.725447779,-0.0256040487,0.0183283873,0.032700412
93274.552149,-0.604838044,0.618143808,-0.400165439,-0.0448504463,-0.0551663376,0.000386415049
93274.562177,0.469907194,0.118098565,1.87180042,0.0853432417,0.0627941191,0.000149659812
93274.572204,-0.34244288,0.117427415,-1.64616269,0.0324094556,-0.0467973538,0.023273889
93274.582231,0.566217696,-0.0500838722,-0.320253114,-0.109863535,-0.0182445385,-0.00557400566
93274.592257,-0.122718224,-0.380037172,2.03934134,-0.0863017514,0.0120177595,0.0180333182
93274.602284,0.280794251,0.242495774,1.13618254,0.139193952,0.030932596,0.0210698545
93274.612311,0.213182896,-0.80495094,-0.419406731,0.0831732973,0.0561881475,0.0103607522
93274.622338,0.640843058,-1.06605869,-2.14216284,-0.0480824597,0.00748479273,0.0476029292
93274.632364,-0.0856853195,0.0756410506,-0.319343598,-0.199313268,-0.0269943532,0.0272835437
93274.642391,0.209115391,1.27834762,2.00961022,0.112047024,0.0257567409,0.0435176417
93274.652418,0.165274368,0.588652121,0.313512992,0.133353099,0.0131227048,0.00940787327
93274.662445,1.28320573,-1.6083716,0.351556014,0.037352547,0.0425418466,0.056918934
93274.672471,0.159316738,-0.75600483,-0.0627940176,-0.227495372,0.032462582,0.0580369271
93274.682498,0.226280479,1.24706868,-1.84064774,-0.0231629964,-0.0760876015,0.0469725579
93274.692525,0.332138051,-0.153651132,1.58110365,0.0504675508,0.0485456772,0.0195268206
93274.702551,1.09375992,-0.557132655,0.439994176,0.13913855,0.0632002503,0.0948316902
93274.712578,0.11915929,1.53733495,-2.71972658,0.0492973588,-0.0235988237,0.0494679399
93274.722604,0.258454646,-0.787760151,-2.16907189,-0.0716149509,-0.0768492669,0.00315130921
93274.732632,1.66268099,-0.716034419,2.09804605,-0.357216865,-0.0478439778,0.0752569288
93274.742659,1.16936848,1.66732458,5.06263936,0.2343961,0.149826229,0.0812120289
93274.752686,0.396024321,1.44231346,-0.595317424,0.377275229,0.141872436,0.0307451207
93274.762712,1.1088986,-1.93889447,-4.60241839,0.096224457,-0.00584574789,0.0437567309
93274.772739,0.722177964,-1.6694765,0.490020482,-0.274156004,-0.0352784693,0.0623629056
93274.782766,0.580747303,-0.071322918,3.70550287,-0.321208984,-0.0203056484,0.0523707233
93274.792793,1.17119102,1.60974888,-1.56799224,0.245216608,-0.0280905999,0.13003996
93274.802819,1.46149586,0.315655557,-1.02762572,0.0879345685,-0.0133108553,0.00627247337
93274.812845,1.08598431,-1.60386815,1.01340781,-0.219136953,-0.0230183434,0.101360641
93274.822872,0.794130855,-0.0432933992,2.34047416,-0.156576902,0.0602267459,0.0868823603
93274.832899,0.656285103,1.12564873,-0.818172825,0.179991528,0.0398072265,0.103834182
93274.842926,0.722611679,-0.527821695,-2.20256148,0.0971459076,0.0162590202,0.0760358423
93274.852952,0.682825539,-1.37491414,-1.66313604,-0.187964916,-0.0832246915,0.102625906
93274.862979,1.0193025,0.0649542963,1.81135209,-0.199945152,-0.0251382198,0.0916190594
93274.873006,0.571596686,1.56028649,1.20444359,0.145974711,0.0179775581,0.114794157
93274.883033,0.982724943,0.255061533,0.155236739,0.0501317941,0.0142872166,0.0718184561
93274.893059,1.20112249,-1.16187469,-0.296376563,-0.115996458,0.0236471612,0.119319402
93274.903086,0.860924171,0.327799218,-0.105168932,-0.039900627,0.00861255359,0.113444999
93274.913113,0.575030533,0.67894088,0.480523171,0.0539190769,0.0193813108,0.0872770399
93274.923140,0.843558172,-0.625259485,0.203412449,0.035505183,0.0025032619,0.111037232
93274.933167,0.76282262,-0.435079553,-0.327202494,-0.0400966369,-0.00979761314,0.106028624
93274.943193,0.654546954,0.150317732,-0.271255566,0.00233018491,-0.0155218104,0.111555487
93274.953220,0.490609278,0.572915185,-0.41131461,0.0124166412,-0.0423803218,0.094739221
93274.963247,0.763421901,-0.0127695565,0.452821509,-0.0530057773,-0.0235256758,0.0934712887
93274.973274,0.776507812,0.523230422,0.292846051,0.00882403646,-0.00552190747,0.100879937
93274.983301,0.756179529,0.909207067,0.197535665,0.0227094926,0.0191959552,0.0748083889
93274.993327,0.767127332,0.469012035,-0.459202735,0.0432962589,0.013812908,0.0745676383
93275.003354,1.00194877,0.254997455,-0.30117958,-0.0426836312,0.0177714303,0.0518940203
93275.013381,1.185852,0.00301492737,1.10793669,-0.0639492348,0.0452629775,0.059323173
93275.023408,0.933248014,0.777549357,0.914919965,0.090878956,0.0686924011,0.0781754255
93275.033434,0.963691887,0.687000414,-0.761276048,0.0689038858,0.0325951166,0.0443894975
93275.043461,1.31094085,-0.90305724,-0.42010465,-0.0816448778,0.00301112654,0.0519744456
93275.053488,1.36962875,-0.22668126,0.663984718,-0.0322525613,0.00954732299,0.0747607201
93275.063515,1.08955874,0.867758474,0.552977581,0.134729251,0.0347240493,0.0539305396
93275.073542,1.26770771,-0.21045422,-1.12531628,0.0558067262,0.000232916907,0.0592203736
93275.083568,1.43257357,-0.729761112,-1.04841658,-0.128697067,-0.0341186635,0.0643493608
93275.093595,1.29339394,0.197569933,1.01130353,-0.0380774252,-0.00853767153,0.0747375488
93275.103622,0.996994803,1.04069286,0.941593453,0.123201214,0.019206075,0.057972949
93275.113649,1.08055776,-0.268782198,-0.54995911,0.0623634234,-0.000681080041,0.0494835936
93275.123676,1.15128155,-1.13554001,-0.911636121,-0.0780948848,-0.0360366739,0.0664045215
93275.133702,1.11962384,-0.254897922,0.488633996,-0.0786096752,-0.012753455,0.0608776622
93275.143729,1.05270098,0.771521402,0.877388984,0.0563452169,0.00370008638,0.0608632788
93275.153756,1.12170832,0.441500708,0.183545719,0.0652305856,0.0150872301,0.0541166924
93275.163783,1.1906659,0.156788243,-0.766495244,-0.0326541662,-0.00815364346,0.0426382013
93275.173810,1.33538351,0.118416079,0.43417643,-0.0569834746,0.0176752899,0.0442014784
93275.183836,1.25788132,0.444092332,0.874713043,0.0607852377,0.0336771607,0.044983115
93275.193863,1.1891631,-0.120952146,0.17233868,0.071411252,0.0376210362,0.0436355583
93275.203890,1.13039636,-0.567292559,-1.14610948,-0.0304184388,-0.00845964067,0.0442821719
93275.213917,1.12868473,-0.274263406,-0.32222646,-0.0862241834,-0.0162581764,0.043710392
93275.223944,0.989165278,0.365502707,0.549247163,0.0103324512,-0.0262958966,0.0470515937
93275.233971,0.971043419,0.385674594,0.510055555,0.0551872738,-0.0158560388,0.0405889004
93275.243997,1.00269922,-0.0546326672,-0.317279066,0.0159163028,-0.0255539399,0.0447173342
93275.254024,0.918418329,-0.0367516083,-0.275389305,-0.0409427211,-0.0354084335,0.0402536094
93275.264051,0.855421847,0.393083737,0.20074586,-0.00314048072,-0.0283129755,0.036564067
93275.274078,0.811331069,0.436878602,0.527106643,0.0251010116,-0.0064609386,0.0336039625
93275.284105,0.853285347,0.296857771,0.0488718752,0.0163133796,0.00229660049,0.0298470408
93275.294131,0.885439969,0.25699652,-0.112586515,-0.0171380546,0.00784130208,0.0174127426
93275.304158,0.936228565,0.192981473,0.071016487,-0.00510589359,0.0170630291,0.0163868926
93275.314185,0.982847765,0.0736620422,0.215719557,0.00865093153,0.0296643078,0.0125042703
93275.324212,1.07239674,-0.132848117,0.0521720858,0.00886531547,0.0321458429,0.0134214628
93275.334239,1.11189844,-0.197980267,-0.0633463908,-0.00715386448,0.0276000928,0.0178276636
93275.344265,1.09047081,-0.125501051,-0.0700818365,-0.00757304579,0.0170102995,0.0215379782
93275.354292,1.05629703,-0.00574582278,0.0264326644,-0.00574079109,0.00492061302,0.0185006447
93275.364319,1.02046548,0.0782409949,0.0164057759,-0.00100116327,-0.00875551812,0.0201557986
93275.374346,0.879906958,0.20619965,-0.0884907689,8.86022171e-05,-0.0274644922,0.0142734079
93275.384373,0.797555715,0.127539014,-0.103456283,-0.000814742001,-0.0408247709,0.0131567447
93275.394400,0.755982691,0.0818627016,-0.00529985997,-0.00771312835,-0.047399316,0.0122645851
93275.404426,0.747800262,0.119596804,0.129815297,-0.00109410752,-0.0401597768,0.0110251503
93275.414453,0.729763158,0.133460084,0.20612463,0.00392488576,-0.0284373444,0.00974709913
93275.424480,0.743783573,0.0987012703,0.201333304,0.000423095247,-0.012966508,0.00887704454
93275.434507,0.760327296,0.11543815,0.126663555,-0.00082699256,0.00259993458,0.00708873197
93275.444534,0.81319489,0.0806233965,0.223631061,-0.000921534782,0.021254845,0.00380745111
93275.454561,0.833871621,0.0233466468,0.20403438,0.00605994184,0.0339477398,0.00724266283
93275.464587,0.863027573,0.0386960204,0.0357002589,0.00834759697,0.0345634595,0.00742988288
93275.474614,0.868095086,-0.00555281639,-0.0237017781,-0.00956588984,0.0269622654,0.0048311702
93275.484641,0.839419319,0.136855781,0.00263210207,-0.00989479013,0.0137407361,0.00933777168
93275.494668,0.70938994,0.486582982,-0.103161099,0.00780990534,-0.00346781174,-0.00255004689
93275.504695,0.582112454,0.279055098,-0.0982218893,0.00679284381,-0.0288208388,-0.00289918762
93275.514722,0.44143948,0.0562956366,-0.126057991,-0.00273221778,-0.0501655415,-0.0042986786
93275.524748,0.303820559,-0.0477848106,-0.0418213722,0.00374006247,-0.0678329542,-0.0044874968
93275.534775,0.246344906,-0.180097551,0.0917892259,-0.00192448124,-0.0697120801,-0.00320598297
93275.544802,0.153333353,-0.0504447688,0.0355050286,-0.00157853658,-0.0652329102,-0.00225416943
93275.554829,0.0494015799,-0.0243913678,0.152798114,-0.00821566675,-0.0526372194,-0.00119396485
93275.564856,-0.0198375404,0.0685389544,0.163403094,0.000854527345,-0.0369573273,0.000440683216
93275.574882,-0.0884940568,0.0518275375,0.206785724,0.000739212497,-0.0193682164,-0.00233113486
93275.584909,-0.116880385,-0.0453144202,0.157400054,-0.00441640103,-0.00410643779,-0.000859205611
93275.594936,-0.140466382,0.0599015841,0.0885661722,-0.00681537669,0.00687137851,-0.00308054872
93275.604963,-0.143345554,0.20226158,0.142287241,-0.0105560524,0.0173844732,-0.00526780263
93275.614990,-0.138343956,0.356491863,0.0019359365,0.0170199163,0.0118118087,-0.00768755097
93275.625017,-0.124090189,-0.102441726,0.202460262,-0.00558499619,0.0235728603,-0.011436482
93275.635043,-0.194872072,-0.210034314,-0.141251468,0.000834553619,-0.0011252953,-0.00281716231
93275.645070,-0.221292663,0.129330199,-0.0641927784,-0.0224550553,-0.00726201758,-0.00993792247
93275.655097,-0.187918034,0.306154701,0.0924678558,-0.00357084721,-0.0155990431,0.0022628177
93275.665124,-0.20473429,0.607013488,0.160398067,0.012790815,-0.0163777526,-0.000623515807
93275.675151,-0.21224399,0.331804947,0.0347007265,0.0286909528,-0.02027875,-0.00626968406
93275.685178,-0.201759238,-0.440591412,0.0611859978,0.0153069701,-0.0140834386,-0.00347602833
93275.695204,-0.179411103,-0.565318957,0.0311012407,-0.0199404992,-0.0123774167,-0.0037982706
93275.705231,-0.20078294,-0.234181443,0.10845453,-0.0123299845,-0.00585799851,-0.00733361673
93275.715258,-0.162776852,-0.0374887087,0.25434944,-0.00252875267,0.00761839515,0.00224577356
93275.725285,-0.146790982,0.164185879,0.0596779314,0.0136217214,0.012194505,0.00237067603
93275.735312,-0.0876848411,-0.131613479,0.0852747294,-0.00038544042,0.0162126813,0.00243805395
93275.745339,-0.016621259,-0.229015384,0.065677464,-0.0100146318,0.0189837012,0.00375871547
93275.755366,0.0148749267,0.114006136,0.1062351,-0.00636476977,0.0217837486,-0.000482101925
93275.765392,0.0436053558,0.273070762,0.0721259095,0.000113290647,0.0198233668,0.00603477471
93275.775419,0.0718238807,0.453319668,-0.0186965172,0.00188402645,0.0166118611,0.00218677334
93275.785446,0.0780051403,0.232102518,0.0549316136,0.00553388894,0.010526537,-0.000487040728
93275.795473,0.0755520207,0.0421392516,0.0303963073,0.00566225313,0.00367528945,-0.00238427613
93275.805500,0.0745651833,0.00296816791,-0.0194330147,-0.00227396702,-0.00496427156,-0.00471347664
93275.815528,0.0537202605,0.00387388686,-0.026769349,-0.00125104678,-0.0138477776,-0.0033273017
93275.825554,0.025826095,0.0504201276,0.0586678775,0.00303504453,-0.0155727081,-0.00262262952
93275.835581,-0.0363009739,-0.0880860057,0.0936778161,0.00770276738,-0.0172345191,-0.00072006695
93275.845608,-0.0780363848,-0.171228472,0.0327688817,0.00122063304,-0.0185996555,-0.00119677279
93275.855635,-0.0740979905,-0.118377857,0.051763505,-0.00860004034,-0.017930137,-0.000808217563
93275.865662,-0.100268191,0.0837897333,0.0909592048,-0.00261618313,-0.0131889116,0.00135613326
93275.875689,-0.093259746,0.16109268,0.169365218,0.00280974107,-0.00399807654,0.00209782366
93275.885716,-0.062108483,0.062035573,0.137794021,0.00559434248,0.00531766098,0.00274896668
93275.895742,-0.0324436546,0.0475111813,0.082432784,-0.00234480714,0.0126253748,0.000247991644
93275.905769,0.00785199214,0.0708297048,0.0839355898,-0.00334935146,0.0200803615,0.000751862302
93275.915796,0.0243688135,0.156025022,0.0938198549,0.000137791736,0.0188254807,-0.00126415119
93275.925823,0.0546425676,0.11578089,0.0661462506,0.00514107244,0.0180012323,0.00140939653
93275.935850,0.0606157419,0.00254674589,0.0332347456,0.00256073568,0.0133135356,-0.00152567308
93275.945877,0.0487522811,-0.0442162223,-0.00282382525,-0.0015855399,0.00602606172,-0.00163326506
93275.955903,0.0169981431,-0.0178337355,0.00226268423,-0.00346919359,-0.00399940833,-0.000708082691
93275.965930,-0.00824285919,0.032196411,0.0178214879,0.0020456803,-0.0115683787,0.00050259009
93275.975957,-0.0243179738,0.0392591753,0.027692309,0.00116816885,-0.0181091018,0.0017079371
93275.985984,-0.0370690265,0.00200824825,0.0272357974,0.00205580029,-0.0205051489,0.000368100591
93275.996011,-0.0512513359,0.0325294994,0.0697241091,-0.000745845144,-0.018726157,-0.000746432692
93276.006038,-0.0704524462,0.0558285351,0.120592711,2.35421176e-05,-0.0121079348,0.000668238848
93276.016065,-0.0398331301,0.0930919791,0.127771809,0.000532738515,-0.00521088019,0.000463974662
93276.026092,-0.0219261741,0.07849486,0.142736154,0.00314396783,0.00604710029,-0.000835914165
93276.036118,-0.0122777727,0.025597394,0.127478379,0.00137056899,0.0132235205,0.000445332378
93276.046145,0.00835226068,0.0486442131,0.0813975957,-0.000555429084,0.016566854,-0.000386106782
93276.056172,0.00880531994,0.0474844394,0.0550683917,-0.000497638481,0.0167114623,0.000348126516
93276.066199,0.0246181166,0.0499663102,0.0279904152,0.0010416687,0.0127087319,0.000528955832
93276.076226,0.0260762111,0.0217141457,0.0318850846,-6.62063976e-05,0.00741303572,-0.000225784257
93276.086253,-0.00647086281,0.00536560499,0.0155757548,0.00150585757,-0.00293707335,0.000524162315
93276.096280,-0.0101229236,0.0179842772,0.0166202954,-0.00368783926,-0.00889003742,0.000109507702
93276.106306,-0.0266344432,0.091673381,0.0184112705,0.0017340905,-0.0146451276,-0.000381046906
93276.116333,-0.0259349988,0.0669940083,0.0730225661,0.00094739272,-0.0147370081,1.91573054e-06
93276.126360,-0.0220984437,0.0543648101,0.0619435382,0.00345502514,-0.0132642798,-0.00110089872
93276.136387,-0.0230106906,0.0315212905,0.0852817437,-0.00119352248,-0.00998859107,0.000968377106
93276.146414,-0.00526835516,0.0524075522,0.0876736073,0.00175699359,-0.00231096428,0.00109354593
93276.156441,-0.000233731124,0.0487340559,0.117002578,0.00154047878,0.00341776153,-9.84854996e-05
93276.166468,-0.00589260627,0.0257027221,0.0941121159,0.00106350658,0.00857417379,0.000148922205
93276.176495,-0.0112296656,0.0343947087,0.0631418081,-0.000416678406,0.0102160126,-0.0012497697
93276.186521,-0.00609130261,0.0245350643,0.0540174214,-0.000675271382,0.0106112259,0.000216833316
93276.196548,-0.00903111436,0.0710774599,0.0507283167,-0.00100603595,0.00573577685,-0.00202448294
93276.206575,-0.00139349562,0.0573990175,0.045342532,-0.000590316486,-0.000673919101,-0.00108838174
93276.216602,-0.00977392295,0.0694324555,0.0450426723,0.000804114679,-0.00287182583,0.000908988528
93276.226629,-0.00279769073,0.0774654348,0.038157589,0.00161984097,-0.00764607452,0.000570234843
93276.236656,-0.005187682,0.0450428961,0.0200485163,0.00068560394,-0.00877019484,0.000116432086
93276.246683,-0.00876214296,0.0517039066,0.0243839152,-1.08126551e-05,-0.0106133688,-0.000602355227
93276.256710,-0.0133632344,0.0208105342,0.0851326906,0.000425679435,-0.00534244068,-0.000196489505
93276.266736,-0.0169137391,0.00889356448,0.0906675284,6.50874281e-05,-0.00240710424,-0.000778123736
93276.276763,-0.0100462736,0.0146594939,0.108473234,-0.000863290508,-0.00128245133,0.000289005227
93276.286790,-0.0172603834,0.0304523278,0.0999444753,-0.000221735012,0.00398341706,-4.3890439e-05
93276.296817,-0.0115828949,0.0811819711,0.0873772547,-4.75642737e-05,0.00615362683,2.96132639e-05
93276.306844,-0.0145439184,0.0664328536,0.0685258392,0.000173211767,0.00592512777,-0.00013523642
93276.316871,-0.0109856368,0.0761270532,0.0483271008,-4.46347985e-05,0.00409686752,-0.000984785147
93276.326898,-0.00516638805,0.0656405661,0.03486147,0.000767096702,0.00293200114,-0.00093418546
93276.336925,0.00962537219,0.0467610571,0.0296241539,1.84821256e-05,-0.000100540463,0.000254116952
93276.346952,-0.00447027728,0.0350007209,0.0511713843,0.000476812129,-0.00135169353,-0.000477186404
93276.356978,-4.29897584e-05,0.0151388909,0.0550613775,0.00145472493,-0.00309100421,-0.000677456148
93276.367005,-0.000157862009,0.0251887538,0.0737643244,-0.00133546907,-0.00329233892,0.00205521332
93276.377032,-0.0144186663,0.0410014889,0.0550584549,0.00103660859,-0.00117805542,-0.000471061096
93276.387059,-0.0182891419,0.0444852393,0.064633508,0.00101610227,-0.00337782642,7.35549256e-05
93276.397086,-0.0114245854,0.0398408704,0.0626870501,0.000260829751,-0.0017069591,0.000542270951
93276.407113,-0.0157831505,0.0419619771,0.0701677612,-0.000984730665,-0.000653945259,3.60039994e-05
93276.417140,-0.00633720366,0.0482127035,0.0767518158,-0.000208685524,0.000175363035,-0.00016346667
93276.427167,-0.0112656548,0.0708331115,0.0614887802,0.00105977803,0.00159056683,-0.000147220679
93276.437194,-0.00654711552,0.0682017081,0.0697200174,0.000182266522,0.0026803324,-0.000455082394
93276.447220,-0.0118593418,0.0676023677,0.0644838703,8.37295665e-05,0.00152398786,-0.000304081477
93276.457247,0.00178682405,0.0435101929,0.0483235937,-0.000173265478,0.00258605648,-0.000930456445
93276.467274,0.00255881764,0.0224672017,0.0555061986,0.000951387396,0.000471506617,-0.00139544439
93276.477301,-0.00108254824,0.024933674,0.0596960515,0.000385732041,0.00134955079,-0.00100768823
93276.487328,-0.0144900693,0.0247234265,0.0535609098,0.000523151131,-0.000423315563,0.00128582586
93276.497355,-0.0217084945,0.0342623876,0.0451800349,0.0022036056,-0.00160336227,0.000642672181
93276.507382,-0.00607007259,0.029761448,0.0659784928,-0.00155118504,-0.0019319962,-5.18802553e-05
93276.517409,-0.000586051693,0.0492604453,0.0495160183,-0.000816418906,-0.0012009585,-0.0002638679
93276.527436,-0.0115509243,0.0600088256,0.0511596939,0.000295184553,-0.000602013548,-0.000249486417
93276.537463,-0.00261462578,0.0537076613,0.0656745414,0.000527944823,0.00027336739,-0.000155476853
93276.547489,-0.0162306476,0.0705766023,0.0825841752,0.000116220122,0.0013327729,-0.00085002929
93276.557516,-0.00304911277,0.0475398685,0.0791430948,0.00175512931,0.0031711529,-0.000564271584
93276.567543,-0.00617655604,0.035778215,0.0635813686,0.0012616457,0.000925575558,-0.00132726785
93276.577570,0.000238160704,0.0233721785,0.0745054981,0.00227497844,0.00103183568,-8.62348825e-05
93276.587597,-0.00777336025,0.034942577,0.0771995595,0.0011527224,0.00112291577,4.39938158e-05
93276.597624,-0.0158773864,0.0142524064,0.0578963087,0.00119133829,-0.000782043324,-0.000599159859
93276.607651,-0.0118780328,0.0164198432,0.044726446,0.000518890098,-0.00271656364,0.000597931445
93276.617678,-0.00456241254,0.0480238892,0.0586409895,0.000476545829,-0.00261669513,-0.000378116965
93276.627705,-0.0100682115,0.0607459442,0.0807861859,-0.00117860874,-0.000207865844,-0.000179179013
93276.637732,-0.0037084763,0.0640037587,0.0507078585,0.000465893187,-0.0023562382,0.000750530511
93276.647759,-0.00174461974,0.0421948269,0.0755465316,0.000706110324,-0.00057697983,0.000703925267
93276.657786,-0.00361030858,0.0573796598,0.0762947197,0.00228776154,-0.00120175758,-0.000246024691
93276.667812,-0.000816855641,0.0370304344,0.0741992087,0.000101306417,0.000305325375,0.000199522823
93276.677839,-0.0045713402,0.0441656611,0.0613309593,0.00021289289,0.00158284372,-0.00122713298
93276.687866,-0.011037673,0.0451653123,0.0571411064,-0.000988991698,-0.000637433608,0.000162238255
93276.697893,-0.0171492238,0.0280144331,0.0580383475,0.000779080961,-0.000151939457,-0.00223487336
93276.707920,-0.0108605948,0.0313596085,0.0722521663,0.00127416267,-0.000586034614,0.00012016017
93276.717947,-0.00423820839,0.0318973869,0.0513023172,7.92022038e-05,-0.000524515635,0.000922570936
93276.727974,-0.00838514004,0.0427689552,0.0562391891,0.000500780588,-0.00101453729,-0.000126182102
93276.738001,-0.0101024334,0.0588529427,0.0692564916,0.000326609879,-0.000369786052,0.00178836426
93276.748028,-0.00905035791,0.0592768124,0.060427873,0.0021556688,0.00119162537,0.000605122186
93276.758055,-0.0136822692,0.0505943516,0.0596791004,0.000405439408,-0.000353274401,-0.000490236096
93276.768082,-0.00349946405,0.0530541704,0.0623708237,0.000295915117,0.000701888988,-0.000722240657
93276.778109,-0.00993990433,0.0317358214,0.0670095894,-0.0003392488,0.00193546526,-0.00103276502
93276.788136,-0.00992059684,0.0459673951,0.0746405227,0.000792328385,-0.00039453432,-3.94061208e-05
93276.798163,-0.0077893387,0.0405707236,0.055636547,0.00114759407,0.000907751324,-0.0011507431
93276.808189,-0.00490503827,0.028124668,0.0661100102,-0.000198101261,7.41819385e-05,0.000805082731
93276.818216,-0.0116745918,0.0508630307,0.041270168,0.001834956,0.000718666881,0.0010612784
93276.828243,0.00496987453,0.0315286472,0.0683534053,0.000783806201,-0.000416904921,-0.000682292506
93276.838270,-0.00557399617,0.0367472769,0.0646112961,0.00116676884,-0.000138338306,-0.000281487592
93276.848297,-0.00913552458,0.0280747919,0.0744867934,0.000553709106,-0.000249125878,3.30321491e-05
93276.858324,-0.01277974,0.0352327396,0.0741869337,0.000896457932,-9.17504076e-06,0.00168392574
93276.868351,-0.00668804466,0.0434845835,0.0734381612,0.00156757457,-0.00119295018,-0.00125726964
93276.878378,-0.00632856827,0.0475481523,0.0788239459,-0.000591982738,0.000523457187,-0.000437548384
93276.888405,0.00730941883,0.0392046412,0.0729880793,0.00169833563,0.00130722555,-0.000472435728
93276.898432,-0.00480227658,0.0410437023,0.058173372,0.000984874903,0.00102785998,0.000497221015
93276.908459,-0.00123776163,0.0356010957,0.0536842439,0.000427741616,-0.000185742625,-0.000278824009
93276.918486,-0.0207680764,0.040701136,0.0705921241,-0.000222336035,-0.000336743775,0.000122514553
93276.928513,-0.0143898375,0.0417040477,0.0620621962,0.00139580062,-7.86834862e-05,0.00110415556
93276.938540,-0.0111542394,0.026882285,0.0701414577,-0.000780534581,-0.000958059216,-0.000955533236
93276.948567,-0.00900760562,0.0351353254,0.0644540597,9.16506688e-05,-0.000178552116,3.14339995e-05
93276.958594,-0.00297018405,0.0415237409,0.0882452697,0.000447182683,-0.000341271167,-4.65968624e-05
93276.968621,-0.000148605557,0.0427650554,0.0457481902,0.00117608986,-0.000736750662,0.000585904345
93276.978648,-0.00981989011,0.0551462884,0.0526309355,0.00102482236,-0.000931161456,-0.000667645596
93276.988674,0.00334673031,0.027510267,0.0613099165,0.000703911413,0.000368194887,0.00055554416
93276.998701,-0.00415737084,0.0430532794,0.0403594829,0.00233376608,-0.000648067333,-0.00135048013
93277.008728,0.00501491469,0.0230029137,0.07148352,-0.000172534914,0.00041346869,0.00033103954
93277.018755,-0.0150003569,0.0366685971,0.0693874245,0.00102535496,-0.00077696424,-0.000395203941
93277.028782,-0.000430888531,0.0573785593,0.0741752433,0.00124932674,0.000537571963,-0.000516644679
93277.038809,0.00565614433,0.0226348887,0.0735766929,0.00203096448,0.00122386857,-0.000120365992
93277.048836,-0.0108470777,0.0468565625,0.047839025,0.000548116455,-0.000418769196,-2.63564289e-05
93277.058863,-0.0043124792,0.0429486774,0.0454436543,0.000991799054,-0.000715977978,-0.00331882201
93277.068890,-0.0147695712,0.044882559,0.0346697468,-0.000315546669,-0.000436878763,-0.00163783506
93277.078917,-0.0146844959,0.019882697,0.0593587824,0.00035343942,-0.000596934697,-0.0005651135
93277.088944,-0.00522286291,0.0376041266,0.0942237596,-0.00130517734,-9.06677451e-05,0.000265259296
93277.098971,-0.0113806732,0.03874644,0.104848029,0.000326541485,0.000636108918,0.00118218642
93277.108998,-0.00262660391,0.0409573483,0.0856950007,0.00157343352,0.00132213917,0.00109350309
93277.119025,-0.00496374619,0.0422461186,0.0806079067,0.00106050866,0.00117806217,-8.22823495e-05
93277.129052,-0.00914177166,0.0499989704,0.0481371312,0.000470884785,0.0018883273,0.000984845683
93277.139079,0.00304743684,0.0366837787,0.0547217703,9.29822563e-05,0.000552219339,-0.00121545792
93277.149106,-0.00852372196,0.0192908732,0.0469406149,0.00118487829,-0.0014334335,0.000457806513
93277.159133,-0.0126805174,0.0240771667,0.0475379962,-0.000379995152,-0.00089281192,-0.00130786933
93277.169160,-0.00194596927,0.0172630206,0.0650450114,-0.000750707171,-0.00123156584,0.00109616574
