t,ax,ay,az,gx,gy,gz
104271.135973,-0.00276818607,0.0356944137,0.0817898099,-0.00255930726,0.000515651715,-0.0189275164
104271.146001,0.0200829666,0.0210211607,0.0486333903,-0.00752343936,-0.0117058605,-0.0160640851
104271.156029,0.0191481699,0.00537175617,0.058986442,-0.0127320495,-0.0170207303,-0.0157090854
104271.166057,-0.026119251,-0.0155745858,0.131489953,-0.0144244889,-0.0106603038,-0.0183693171
104271.176084,-0.0546537831,-0.00788439657,0.199030288,-0.0124239223,-0.00227427576,-0.027169466
104271.186112,-0.0736426708,0.0205851805,0.196621473,-0.00702569447,0.00369360182,-0.0378841609
104271.196140,-0.0424526558,0.0358485083,0.0688052407,-0.00213400042,-8.11626669e-05,-0.0453154482
104271.206168,-0.0430569418,0.0358129986,0.0687859515,0.00691861706,6.90396409e-05,-0.053688962
104271.216195,-0.0184833128,-0.00681311408,0.0480067828,0.0145128872,0.00759699661,-0.0525597781
104271.226223,0.0291160948,-0.0466082411,0.031895606,0.022705568,0.00663852505,-0.0457122587
104271.236251,0.0319999431,-0.0815359813,-0.00715396341,0.0242898837,0.000719117234,-0.0399947166
104271.246279,0.0255797373,-0.119308443,0.00141629654,0.0243841596,-0.00323354662,-0.0183429513
104271.256307,0.00420629258,-0.130940064,0.00585398673,0.020491682,-0.00638619624,-0.0045291353
104271.266334,0.0562416368,-0.183860557,0.037291912,0.00310550258,-0.00382210524,-0.00525964051
104271.276362,-0.0138642747,-0.0823445943,0.123191495,-0.00156461657,-0.00457471423,0.00567583134
104271.286390,-0.0206167812,-0.0867659909,0.188823367,-0.0101013789,0.00641748309,0.0107486211
104271.296418,-0.0216342146,-0.087792046,0.188903446,-0.0125789177,0.0180528332,0.0189988278
104271.306445,-0.0193371532,-0.0926251653,0.147230543,-0.0184040517,0.0200866908,0.0300408248
104271.316473,0.0152879874,-0.0587634469,0.0885755246,-0.0274633262,0.011258577,0.0365938023
104271.326501,-0.00566416324,-0.0343453372,0.0255476982,-0.0306641795,0.000587823393,0.0414487422
104271.336529,-0.00184303405,0.00453815489,-0.00351473012,-0.0236241128,-0.00194191327,0.0415909551
104271.346557,-0.0434528824,0.00995396939,0.0168161102,-0.0146362102,0.000189414481,0.0389283262
104271.356584,-0.0570704523,0.043820364,0.00507014287,-0.00321551017,-0.00453822874,0.03240145
104271.366612,-0.078667294,0.0762160284,-0.0334019189,0.0029936498,-0.0137849906,0.0206824765
104271.376640,-0.126481623,0.0850128636,-0.0183732766,0.0124278981,-0.0158361569,0.00568541884
104271.386668,-0.14700236,0.0816094849,0.0490104069,0.00866218843,-0.0143466517,-0.00863626227
104271.396695,-0.142918452,0.0882701119,0.0801736069,0.0133639993,-0.010687734,-0.0186619982
104271.406723,-0.0784838272,0.121779802,0.0443903459,0.0199044552,-0.00670337863,-0.0234194696
104271.416751,-0.00598554068,0.100367669,0.00598784224,0.028112052,-0.00749886502,-0.0210476592
104271.426779,0.043179801,0.0711668552,-0.0289957929,0.0257285219,-0.00945895165,-0.00952336192
104271.436806,0.0485976614,0.0320427593,-0.0109007487,0.0169086661,-0.0208839122,-0.000459559262
104271.446834,0.021127909,0.0126143477,0.0106628483,0.00475985836,-0.0295604914,0.00174180977
104271.456862,-0.00126541683,0.0365927508,0.041910804,0.00295556663,-0.0277940165,0.0116114849
104271.466890,-0.00977017379,0.0193497204,0.08961422,0.000620240753,-0.0197217092,0.0156451091
104271.476917,-0.00722611533,0.0243369342,0.131954063,-0.00459902221,-0.0201496799,0.0200731456
104271.486945,0.00137523388,0.0167952136,0.108682493,-0.00960896071,-0.0209225286,0.0210222974
104271.496973,0.00162007548,0.0269132875,0.113584294,-0.0171363857,-0.0192921404,0.020539999
104271.507001,-0.0136031761,0.0452373181,0.10067279,-0.010923231,-0.0201193187,0.0152634773
104271.517029,-0.0518118011,0.070342241,0.0406909068,-0.00634152861,-0.0170761254,0.0100838952
104271.527056,-0.00376198288,0.0656579556,0.0178682496,0.00637400057,-0.0213153437,0.00096363388
104271.537084,0.0166108335,0.0813153974,-0.020909517,0.01363937,-0.0234786309,-0.00477174949
104271.547112,0.0476660431,0.0611871669,0.00802080937,0.0193931293,-0.0242288429,-0.00262550823
104271.557140,0.0480989911,0.0256022049,0.0372445658,0.0166042671,-0.0276331622,0.00105471443
104271.567167,0.0419104387,0.00832666045,0.0931581762,0.00971839763,-0.0295722093,0.00690248329
104271.577195,0.0410137456,-0.00108742991,0.131045716,0.00405278942,-0.0292731356,0.00726653729
104271.587223,0.027971747,0.00725216309,0.159683781,0.00431750761,-0.0220112279,0.00736747123
104271.597251,0.0347870896,0.0186868726,0.194774384,-0.0015678124,-0.0138662169,0.00646572467
104271.607278,0.0261821237,0.0515323996,0.190535431,-0.0058275382,-0.0106437923,0.00179773616
104271.617306,0.0264363907,0.0851684926,0.163434074,-0.00861320458,-0.00529003982,-0.00448918808
104271.627334,0.0328273338,0.0849384102,0.138821611,-0.000866335758,0.00263233203,-0.00618136022
104271.637362,0.0543679153,0.0454451887,0.138203187,0.000468174287,0.0112215597,-0.00344096776
104271.647389,0.0750100867,0.00488360732,0.111809101,0.000291340373,0.0087307049,0.00304835662
104271.657417,0.0826462806,-0.0335536754,0.061657707,-0.00234785234,0.00210529263,0.0120767392
104271.667445,0.0997401118,-0.0453800876,0.0550806667,-0.00137553224,-0.00394194759,0.0202073697
104271.677473,0.0715867977,-0.0676055095,0.0540624296,-0.000795761996,-0.00408975314,0.0261595342
104271.687500,0.0361580126,-0.0479705424,0.0748801767,0.000618909195,-0.00619631354,0.0239752103
104271.697528,-0.0170924795,-0.000359480962,0.110102881,-0.00282242754,-0.00362476497,0.0192712694
104271.707556,-0.0527300485,0.0476168336,0.158085699,-0.00856873021,0.00135641161,0.010278306
104271.717584,-0.0725028531,0.0814843242,0.192437466,-0.00946541596,0.0133203967,0.00667904411
104271.727611,-0.0480889447,0.0860601807,0.180621356,-0.00476467097,0.0233312193,0.000929545611
104271.737639,-0.0309526625,0.0859312937,0.0892541545,0.00272546941,0.0199138504,-0.00220899004
104271.747667,-0.0182719351,0.0582048631,-0.00950432593,0.00926779117,0.0123504736,-0.00332219061
104271.757695,-0.0287341462,0.0485540414,-0.0589548778,0.0163936112,0.00371251022,-0.00387692731
104271.767723,-0.0199605457,0.0081897362,-0.068293784,0.0178905725,-0.00768022612,-0.00178661197
104271.777750,-0.0263749428,0.000387026556,-0.0368675491,0.015378681,-0.0160484109,-0.00223136041
104271.787778,-0.0346024538,0.0297165083,0.024245968,0.0139746619,-0.011160179,-0.00438585784
104271.797806,-0.0577037452,0.0512094513,0.0667816259,0.0155563131,-0.00789647456,-0.0115652066
104271.807834,-0.0875569952,0.0835066238,0.0868102684,0.0239133127,-0.00461572688,-0.0189472232
104271.817861,-0.113096218,0.0829427794,0.0909130276,0.0245684497,0.00267680688,-0.021320099
104271.827889,-0.0770173348,0.0334370632,0.118969494,0.0183012318,-7.35162757e-07,-0.0200662836
104271.837917,-0.0563581758,-0.00110291974,0.0579109217,0.0154647008,-0.00574330986,-0.0189142004
104271.847945,-0.0277400206,-0.0439472052,0.0361000719,0.0128635913,-0.0103401914,-0.0111271162
104271.857972,0.00969853332,-0.0590674713,0.0138373867,0.014633528,-0.0157895517,0.000801181421
104271.868000,0.0442327807,-0.0631890813,-0.0173708215,0.0135637363,-0.0199299678,0.00768944761
104271.878028,0.0447607136,-0.0420606608,0.0189659818,0.00907897297,-0.0235923473,0.00910172146
104271.888056,0.0115727297,-0.0167772395,0.0757142894,0.0066206092,-0.0219598301,0.0114386454
104271.898083,-0.0129281264,0.00990910733,0.131881582,0.00435808534,-0.0165536813,0.00711776502
104271.908111,-0.0454439466,0.0463447679,0.126953478,0.00728836143,-0.0117738396,-0.000320443884
104271.918139,-0.0824291673,0.0820204769,0.0613198534,0.0161609482,-0.00893970393,-0.00611947663
104271.928167,-0.0666881755,0.0625952071,0.0605073679,0.0219282899,-0.00837085303,-0.0071650343
104271.938194,-0.0276232259,0.021249928,0.0402010775,0.0208595637,-0.0135645494,-0.0076529244
104271.948222,0.000682794632,0.0196295602,0.0245990192,0.0159657393,-0.0202645306,-0.00825160462
104271.958250,-0.00256824305,-0.00337006095,0.0771557204,0.0133856684,-0.0187188331,-0.0110764178
104271.968278,-0.0138907974,0.049888651,0.0684895989,0.0150043378,-0.00858470425,-0.0103637567
104271.978305,0.0167263861,0.00756203275,0.130588035,0.015646426,-0.00391059089,-0.00421798043
104271.988333,0.0630317353,-0.000899140797,0.0902414119,0.00943886396,-0.00579690794,-0.000822715461
104271.998361,0.0472144268,-0.00467990144,0.0917787045,-0.000223616764,-0.00653247302,0.00557472929
104272.008389,0.0170602577,-0.0120338444,0.129869658,-0.00347453752,-0.00218832446,0.00909516215
104272.018416,-0.00825428933,-0.0023188714,0.119740478,-0.000327746355,0.000198933063,0.012099741
104272.028444,-0.00294211787,-0.0111580114,0.0739548785,0.00251384662,-0.00218779175,0.0123002771
104272.038472,-0.0094429146,0.0279967719,0.0351502238,0.00534105813,-0.00505069038,0.00881153531
104272.048500,0.0226038999,0.00626965485,0.0234486801,0.00692643784,-0.00366584631,0.0145972529
104272.058527,0.0531882771,-0.0170325295,0.0368149422,0.0107864235,-0.00293640653,0.0206412971
104272.068555,0.105555922,-0.00605754647,-0.00837502964,0.0133297425,-0.0112052551,0.0294116177
104272.078583,0.111695119,0.0302848098,-0.0168891755,0.014354527,-0.0140417879,0.0362511501
104272.088611,0.0777185784,0.0611061375,0.0331038127,0.015827788,-0.0163430255,0.0402991548
104272.098638,0.0142103117,0.0720790017,0.108866617,0.0100993281,-0.0139885247,0.0436890945
104272.108666,-0.0769913601,0.121232763,0.204894212,0.00224300311,-0.0135768,0.036417596
104272.118694,-0.152137878,0.18382512,0.260468799,-0.00403699744,-0.00800919533,0.024240559
104272.128721,-0.194134607,0.22946532,0.343895855,-0.00781602226,0.00866299123,0.0103830667
104272.138749,-0.180484285,0.211213039,0.348591319,-0.0102818441,0.0215577502,-0.00281502679
104272.148777,-0.154638335,0.159720314,0.270395735,-0.013931972,0.0223164856,-0.0114165051
104272.158805,-0.0770822533,0.111462625,0.146328041,-0.0169344209,0.0173124056,-0.0179324597
104272.168832,-0.0601243965,0.0280134308,0.0499526562,-0.0120248822,0.00662194472,-0.0210651383
104272.178860,-0.0519705719,-0.0134018448,-0.0499409657,0.00130343973,0.00079920952,-0.0284530111
104272.188888,-0.0859080954,-0.0133116093,-0.0585702624,0.0211570393,-0.00459315907,-0.0365101397
104272.198916,-0.10138682,-0.0395291696,-0.041869303,0.0282780658,-0.00961002149,-0.0465888716
104272.208943,-0.112344413,-0.0168247319,0.0245949276,0.0344443507,-0.00967500266,-0.0524723269
104272.218971,-0.0912837606,-0.0453489618,0.0713929191,0.0375032574,-0.00216169283,-0.0473974086
104272.228999,-0.00180186179,-0.0858786867,0.0793763191,0.0393405706,-0.00235956581,-0.034314096
104272.239027,0.060836125,-0.1124889,0.0626835429,0.0312719941,-0.00265198108,-0.0157324225
104272.249054,0.0757344554,-0.124689552,0.0845785639,0.0148682501,-0.00494922372,0.00780592579
104272.259082,0.0848248303,-0.0988739965,0.153801153,-0.00142922974,-0.00274865376,0.0248221941
104272.269110,0.0360571461,-0.0579853752,0.198657363,-0.0151650161,0.00763927214,0.0422685631
104272.279138,-0.0271207928,0.000709755705,0.250332021,-0.0259276479,0.0187489148,0.0449208058
104272.289165,-0.107627066,0.0682875735,0.251235107,-0.035417024,0.0281448141,0.0374548994
104272.299193,-0.162059096,0.11196188,0.23283728,-0.0340199284,0.0332383737,0.0250094123
104272.309221,-0.217721362,0.125600164,0.182488903,-0.028015567,0.0383772105,0.00735105807
104272.319249,-0.244658213,0.126883409,0.126316349,-0.0185810532,0.0399910845,-0.0172629431
104272.329276,-0.313676841,0.107845312,0.0953255833,-0.00938355923,0.0406797789,-0.038061697
104272.339304,-0.313683709,0.0828973328,0.0730167209,0.0058009862,0.040006265,-0.0530062914
104272.349332,-0.292215462,0.0558737898,0.0363461556,0.0195024163,0.0377985053,-0.0619137622
104272.359360,-0.281510309,0.0570548163,0.0131651865,0.0329686925,0.0349523872,-0.0648845285
104272.369387,-0.282879003,0.0580029839,0.0146890351,0.0422359593,0.0342141576,-0.0678680614
104272.379415,-0.322522447,0.0903368351,0.0927460882,0.0426625982,0.0419775397,-0.0692278743
104272.389443,-0.383578608,0.0607411767,0.214967277,0.0350177288,0.0506932661,-0.0643681362
104272.399470,-0.459486155,0.0207895439,0.281370133,0.0136224236,0.0519409552,-0.0653420538
104272.409498,-0.530351835,0.0502354186,0.324498496,-0.00265827845,0.0507052504,-0.0707461461
104272.419526,-0.620635259,0.0473392588,0.391066187,-0.0274943858,0.0648160055,-0.0756516829
104272.429554,-0.667901453,0.0116894879,0.485354828,-0.0474763475,0.0818642303,-0.0776927322
104272.439581,-0.687958153,-0.0410854591,0.440984356,-0.0697294548,0.0876179934,-0.0821194351
104272.449609,-0.682320804,-0.091112861,0.299077639,-0.0815927759,0.0915307105,-0.0921867192
104272.459637,-0.651883361,-0.162245668,0.102397714,-0.0708333328,0.0884377137,-0.104525946
104272.469665,-0.599946582,-0.257494752,-0.151515088,-0.0404685065,0.0746928751,-0.115661688
104272.479692,-0.54894723,-0.357309975,-0.412955947,-0.00110379141,0.0486511551,-0.124738
104272.489720,-0.561389107,-0.461874073,-0.572964138,0.0373503901,0.0112979235,-0.126412854
104272.499748,-0.559859596,-0.507736902,-0.596739566,0.0635007694,-0.0188141726,-0.118726186
104272.509776,-0.551949188,-0.547490163,-0.422815662,0.0787793249,-0.0397841707,-0.105770439
104272.519803,-0.561383591,-0.516282028,-0.180856918,0.0806600451,-0.0460985266,-0.0894423351
104272.529831,-0.626502544,-0.471203773,0.0816781663,0.0574276969,-0.026777558,-0.0614975132
104272.539859,-0.571916091,-0.473801242,0.397576592,0.0226710457,0.00119468896,-0.0329857096
104272.549886,-0.531149415,-0.473977548,0.576667669,-0.0337943584,0.0426222906,-0.00182326511
104272.559914,-0.477442411,-0.470894415,0.641889791,-0.080535233,0.0684099421,0.0241979491
104272.569942,-0.509594513,-0.47111361,0.551911998,-0.126105919,0.100813158,0.0472265705
104272.579970,-0.534715583,-0.501158474,0.492373767,-0.142340556,0.131066397,0.0575633645
104272.589997,-0.615976328,-0.500447403,0.232228793,-0.135552153,0.145839229,0.0656934604
104272.600025,-0.689364805,-0.531750669,-0.0655441931,-0.11678192,0.141754463,0.0646532252
104272.610053,-0.812601308,-0.552976705,-0.34600481,-0.091288276,0.11730212,0.0533992462
104272.620081,-0.889823664,-0.557968814,-0.528103252,-0.0538506247,0.089952521,0.041723948
104272.630108,-0.923304932,-0.58225431,-0.642300125,-0.00869113766,0.0587264225,0.0395867601
104272.640136,-0.923508345,-0.62128291,-0.639627106,0.0240937062,0.0274494626,0.0416954495
104272.650164,-0.933351767,-0.615663316,-0.469147206,0.0344025381,-0.000255135936,0.0467879474
104272.660192,-1.02880149,-0.620336423,-0.222505272,0.0188581981,-0.0167563483,0.0527084209
104272.670219,-1.08168253,-0.61457479,0.0426169065,0.00707743922,-0.0247421041,0.0609570295
104272.680247,-1.13415243,-0.543168281,0.216326291,-0.00766475545,-0.0189689025,0.0612467825
104272.690275,-1.15226815,-0.443507883,0.334318464,-0.0216364972,-0.00961215235,0.0559691936
104272.700302,-1.15479547,-0.388161625,0.358307827,-0.0340353735,-0.00724140601,0.0489192754
104272.710330,-1.07596261,-0.369411258,0.307289003,-0.0392897911,-0.00874396134,0.0458792783
104272.720358,-0.961012658,-0.361847253,0.186570035,-0.0384916402,-0.00970616192,0.0366423689
104272.730386,-0.902039222,-0.341667073,0.129205057,-0.0231078938,-0.00891813263,0.0293343887
104272.740413,-0.855475843,-0.383754622,0.0806254423,-0.00709377369,-0.00987074524,0.0273324884
104272.750441,-0.837309925,-0.437807991,0.0769599056,-0.000615634082,-0.0130606797,0.0231678374
104272.760469,-0.829919523,-0.473532143,0.158137137,-0.00111257983,-0.0133491,0.0199531354
104272.770497,-0.839414496,-0.493124659,0.229876677,-0.000763439515,-0.00692821899,0.0177325923
104272.780524,-0.839309721,-0.490203365,0.268161692,0.00765348086,0.00527624972,0.0185592379
104272.790552,-0.828176332,-0.495005723,0.308139482,0.00562894577,0.020106595,0.0243372321
104272.800580,-0.821872483,-0.510499499,0.356948229,-0.00270355237,0.024251271,0.0285812467
104272.810607,-0.808798555,-0.476733423,0.295726575,-0.010619266,0.0207113978,0.0326870419
104272.820635,-0.856701147,-0.4201783,0.300230316,-0.0121990535,0.0264936537,0.0312420093
104272.830663,-0.939544411,-0.375986472,0.387563732,-0.0126624433,0.0404598042,0.0230807513
104272.840691,-1.03428109,-0.334604733,0.410932332,-0.0118959853,0.0463206209,0.0124006774
104272.850718,-1.11339839,-0.285873363,0.398370373,-0.0164430663,0.0561436899,-0.00292315148
104272.860746,-1.13039877,-0.27651809,0.390414445,-0.0168223009,0.0716962814,-0.0190483257
104272.870774,-1.12472606,-0.319572657,0.370509721,-0.011331928,0.089378342,-0.0321771763
104272.880802,-1.09054117,-0.413070733,0.257236978,-0.0052878838,0.0973092392,-0.0371245295
104272.890829,-1.05503468,-0.480951844,0.108788876,-0.00793852843,0.0884395763,-0.0393615849
104272.900857,-1.03751832,-0.54090472,-0.0027583588,-0.00391701888,0.0728449672,-0.0398417264
104272.910886,-1.03879915,-0.593626914,-0.0916074396,0.0120441047,0.0642251149,-0.0407796912
104272.920913,-1.12765568,-0.599367065,-0.0840834738,0.0258464683,0.0669953302,-0.0400025807
104272.930941,-1.1970464,-0.639630979,-0.0310749372,0.0349795148,0.0665889308,-0.0431823954
104272.940969,-1.19115222,-0.658284534,-0.053231824,0.039113272,0.0539455749,-0.0378246456
104272.950997,-1.18874524,-0.687972035,-0.106440852,0.035072457,0.0390582383,-0.0310373157
104272.961024,-1.212102,-0.716704282,-0.0700315676,0.0302385539,0.0281858854,-0.0219250433
104272.971052,-1.2094897,-0.751335523,-0.0366863474,0.0274507571,0.0232427921,-0.0118111568
104272.981080,-1.21941006,-0.757496384,-0.00879413183,0.0172934607,0.0234489199,-0.00213669147
104272.991107,-1.18899906,-0.751797588,0.0298258139,0.00919106044,0.0209114607,0.00858226605
104273.001135,-1.12137777,-0.724162196,-0.0511918426,0.00694388431,0.0161140412,0.0221723765
104273.011163,-1.06905072,-0.705515802,-0.136902625,0.00460323226,0.00479267817,0.0294910111
104273.021191,-1.03490258,-0.689546883,-0.198158181,0.00659554265,-0.00511960732,0.039990522
104273.031218,-1.00780502,-0.686393607,-0.230541863,0.01428835,-0.013599379,0.0483347401
104273.041246,-0.997529202,-0.697629579,-0.271191853,0.0208831355,-0.027049141,0.0556075647
104273.051274,-0.988197237,-0.677727412,-0.27452772,0.0188386273,-0.03581094,0.0636401922
104273.061301,-0.961678794,-0.664420552,-0.192978148,0.0193235874,-0.0380357467,0.0759783536
104273.071329,-0.888835311,-0.682500983,-0.156198862,0.0206186827,-0.0392879657,0.0943570957
104273.081357,-0.817777542,-0.70536368,-0.112012514,0.00979053788,-0.043117322,0.114717759
104273.091385,-0.77775942,-0.669511226,-0.0562584783,-0.00805477239,-0.0519624799,0.133859485
104273.101412,-0.786279265,-0.61831047,-0.0566039308,-0.0150993653,-0.0539044589,0.144831717
104273.111440,-0.799115804,-0.537207985,-0.0254816473,-0.0128985289,-0.0524546318,0.151006252
104273.121468,-0.826938242,-0.431393229,-0.0385468805,-0.00945000257,-0.0532189608,0.143358454
104273.131495,-0.870874122,-0.317187296,-0.0600403349,-0.00172843342,-0.0587791055,0.126705438
104273.141523,-0.889608414,-0.22791283,-0.0658680182,0.00551483221,-0.0670767203,0.10713654
104273.151551,-0.900278569,-0.132744556,-0.0586316372,0.0186223779,-0.0693673044,0.085747093
104273.161579,-0.868185614,-0.0772121998,-0.0424649308,0.0383255072,-0.0732635111,0.0662543476
104273.171606,-0.848150322,-0.0235964911,0.0216033445,0.0437722057,-0.0749559477,0.0487842821
104273.181634,-0.829535346,0.0113721656,0.119022101,0.0415764302,-0.074927181,0.033034347
104273.191662,-0.83526461,0.0359209159,0.216467745,0.0371989906,-0.0717020929,0.0220107231
104273.201689,-0.841715905,0.0518828936,0.294030293,0.0342468768,-0.0629086047,0.00870583672
104273.211717,-0.870132437,0.0499717993,0.369812971,0.0263567306,-0.0579908118,-0.00222617388
104273.221745,-0.877058071,0.0319622414,0.38732817,0.0142971389,-0.0548709184,-0.0161276087
104273.231773,-0.898122414,0.0146175042,0.439693732,0.00300719962,-0.0517686009,-0.0259128585
104273.241800,-0.889900383,-0.0103974754,0.495910709,-0.00817354862,-0.0449831337,-0.040957056
104273.251828,-0.915043592,-0.00610620792,0.515810173,-0.0109405732,-0.0329568312,-0.0564281568
104273.261856,-0.92918566,-0.0204398537,0.474548188,-0.00448427256,-0.0179898664,-0.0766697824
104273.271883,-0.947135451,-0.0595838233,0.467992775,0.00730927009,-0.00187481206,-0.0960237682
104273.281911,-0.948764806,-0.144752243,0.44373044,0.0194727257,0.0067349216,-0.118480079
104273.291939,-0.97573881,-0.194967934,0.372643811,0.0258379467,0.0105831893,-0.134754136
104273.301967,-0.980813118,-0.274073985,0.361640186,0.0271865707,0.00913469587,-0.149493396
104273.311994,-1.02353085,-0.342601212,0.372352719,0.0247463174,0.0114468522,-0.165315762
104273.322022,-1.07967528,-0.41789618,0.430219217,0.0240051597,0.0223317239,-0.17469196
104273.332050,-1.07690209,-0.482208274,0.448292634,0.0315086171,0.0380249321,-0.171816543
104273.342077,-1.05480409,-0.565647824,0.435443673,0.0337880142,0.0449526161,-0.170447946
104273.352105,-1.07296402,-0.634750367,0.405254871,0.0247465838,0.0536614172,-0.159797698
104273.362133,-1.00665249,-0.723088868,0.366745985,0.0129349316,0.0564779751,-0.145219281
104273.372161,-1.03127767,-0.771237105,0.350537777,-0.0011912738,0.0629491881,-0.127875179
104273.382188,-1.09948845,-0.853114228,0.373942034,-0.018287437,0.0783981904,-0.114009164
104273.392216,-1.11657549,-0.874499692,0.459595533,-0.0400366746,0.104176253,-0.106403172
104273.402244,-1.17031015,-0.894833674,0.453873064,-0.0533415601,0.126268506,-0.0952916667
104273.412271,-1.14957365,-0.913436083,0.360386387,-0.0748649612,0.147354871,-0.0876278877
104273.422299,-1.08342959,-0.920258623,0.225555891,-0.0852763206,0.155839711,-0.0697905719
104273.432327,-0.985548622,-0.883201835,-0.0656739569,-0.0775483623,0.149975166,-0.0490184464
104273.442355,-0.970175039,-0.868693417,-0.260956291,-0.0644509345,0.146013185,-0.0263416283
104273.452382,-0.983408833,-0.886534413,-0.358708224,-0.0457251854,0.131654486,-0.000861037523
104273.462410,-1.02614922,-0.888458586,-0.432102546,-0.0366017297,0.1048503,0.0170790814
104273.472438,-1.10584746,-0.875584784,-0.435633643,-0.0164290834,0.0670840144,0.0286150947
104273.482465,-1.27921753,-0.767828027,-0.285257204,-0.0208512619,0.0588476583,0.0233063512
104273.492493,-1.47940211,-0.664732906,0.0981096611,-0.0226427708,0.0691365153,0.0086360611
104273.502521,-1.68316761,-0.606898922,0.354824661,-0.0282796174,0.0949776992,-0.0138399517
104273.512549,-1.85670017,-0.573212999,0.509222026,-0.0362632424,0.123055406,-0.0439957231
104273.522576,-1.99044828,-0.638253334,0.554505522,-0.0568550676,0.151160806,-0.0708475783
104273.532604,-1.99985835,-0.774205088,0.441435023,-0.0526083931,0.158007517,-0.0928663239
104273.542632,-2.0209365,-0.868903991,0.129953829,-0.0413062014,0.158014178,-0.105896376
104273.552659,-2.02368288,-1.00199707,-0.0881646057,-0.0177063346,0.140657827,-0.108303338
104273.562687,-2.05221719,-1.13335813,-0.300567001,0.00271798042,0.110703401,-0.110833339
104273.572715,-2.11876311,-1.25040689,-0.416882765,0.0236680023,0.0715538636,-0.104461461
104273.582742,-2.17517634,-1.37526676,-0.403432332,0.0406469852,0.0390337408,-0.0976613462
104273.592770,-2.2189392,-1.45500095,-0.262439223,0.0513270609,0.0208920203,-0.0910668299
104273.602798,-2.29362926,-1.50709295,-0.110777419,0.0694341585,0.0217756554,-0.0730984807
104273.612826,-2.282406,-1.62652554,0.019252982,0.0627898425,0.0107810618,-0.0549769998
104273.622853,-2.32503329,-1.72597141,0.107889297,0.0297804903,-0.00507806195,-0.0422087424
104273.632881,-2.33341051,-1.7653283,0.200444831,-0.00166691421,-0.00719314441,-0.0237647556
104273.642909,-2.23026008,-1.79287067,0.252893396,-0.01550896,0.0185732059,0.00542056095
104273.652936,-2.12846851,-1.82246546,0.249271113,-0.0188166071,0.0410649329,0.0282686204
104273.662964,-2.05956054,-1.78940928,0.112560796,-0.0222070776,0.0463611595,0.0518804714
104273.672992,-2.0025492,-1.79261275,-0.112248661,-0.0198951866,0.0302783307,0.0751799345
104273.683020,-2.00193194,-1.70371297,-0.303743877,-0.0114891846,0.0119967954,0.0905530304
104273.693047,-2.02276401,-1.61614077,-0.394005748,0.0113769826,-0.0065009892,0.10083843
104273.703075,-2.05915021,-1.49048026,-0.433809935,0.03153418,-0.02235239,0.107535481
104273.713103,-2.01693896,-1.39307027,-0.408994642,0.0428480878,-0.0486068986,0.120609738
104273.723130,-1.94091633,-1.2803575,-0.372684727,0.0414717682,-0.0728224888,0.130337998
104273.733158,-1.91366373,-1.16143601,-0.256595757,0.0438398495,-0.0961152911,0.142953917
104273.743186,-1.8886668,-1.01964671,-0.119082891,0.0245835967,-0.0961576402,0.151676297
104273.753213,-1.83767223,-0.916613983,0.132045833,0.00627250131,-0.093605265,0.156365335
104273.763241,-1.78989166,-0.759934644,0.187476628,-0.0208485983,-0.0792913064,0.154336259
104273.773269,-1.70075002,-0.63685808,0.294319631,-0.0501835831,-0.065403983,0.14830634
104273.783297,-1.62896898,-0.537543354,0.293104994,-0.0581344515,-0.050509993,0.137551427
104273.793324,-1.56711824,-0.453339907,0.145606741,-0.0588700175,-0.032368537,0.118767358
104273.803352,-1.51213475,-0.416842433,0.0850946967,-0.0508919843,-0.0253950525,0.100254126
104273.813380,-1.48364311,-0.386044267,-0.102635614,-0.034178786,-0.0344748311,0.0752896592
104273.823407,-1.48631466,-0.332282793,-0.241081377,-0.0178261772,-0.043579381,0.0460675918
104273.833435,-1.49807261,-0.362216963,-0.260831203,0.0204280019,-0.0548562706,0.0197963044
104273.843463,-1.48031951,-0.414793611,-0.318152926,0.0471328497,-0.0655059889,-0.00285814144
104273.853490,-1.45694273,-0.461559454,-0.228236509,0.0605615713,-0.0804503113,-0.0178362913
104273.863518,-1.46015702,-0.538122323,-0.098535193,0.0597128235,-0.0814407468,-0.0251344182
104273.873546,-1.43286335,-0.64201444,0.104470428,0.0580185205,-0.0733588487,-0.0232105516
104273.883573,-1.4157088,-0.722390364,0.235292857,0.0604084395,-0.0626739785,-0.01092033
104273.893601,-1.39455232,-0.808021141,0.241871651,0.0540719815,-0.061901398,0.00283995783
104273.903629,-1.39295322,-0.842327242,0.271538475,0.0298701487,-0.0602897853,0.0210162606
104273.913656,-1.37871485,-0.931463981,0.331335649,0.0149287498,-0.0632861108,0.0351741575
104273.923683,-1.43747187,-0.893684869,0.332445656,0.0105872648,-0.0520944409,0.0440225117
104273.933711,-1.48432553,-0.905044906,0.419293918,0.0189141706,-0.0331060998,0.0550349467
104273.943739,-1.46743461,-0.914812559,0.417417603,0.0240183845,-0.0276988186,0.0605056137
104273.953766,-1.46261668,-0.921868761,0.396209395,0.0196673125,-0.0275371633,0.069235459
104273.963794,-1.36992539,-0.916537703,0.393192678,0.0135452375,-0.0306013972,0.0801996887
104273.973822,-1.3264979,-0.884050049,0.352613414,0.0180451814,-0.0248721391,0.0858581066
104273.983849,-1.34621339,-0.849788664,0.367415847,0.0299460478,-0.0154200466,0.0942944735
104273.993877,-1.38713693,-0.819699742,0.422345122,0.0250242613,-0.00705053098,0.0971523076
104274.003905,-1.4136884,-0.751911496,0.477929647,0.017445704,0.00016849977,0.0965698808
104274.013933,-1.42807992,-0.694333533,0.505841152,0.0119289653,0.0136299804,0.0910259783
104274.023960,-1.4713962,-0.643614642,0.56963061,0.00773049146,0.037661545,0.0861792862
104274.033988,-1.50738916,-0.583281096,0.599478636,0.00460127741,0.0656511039,0.0723588169
104274.044016,-1.52242789,-0.530165299,0.522420531,0.00737469317,0.0696868598,0.0603234544
104274.054043,-1.51930026,-0.533972291,0.31339901,0.000819056062,0.0603535436,0.0463152267
104274.064071,-1.51139474,-0.540699261,0.146201784,0.0121747749,0.0353816152,0.0384048373
104274.074099,-1.53084705,-0.540215788,-0.0141021751,0.0227374043,0.0160478652,0.0245478787
104274.084126,-1.54086736,-0.511598035,-0.0437836121,0.0532417856,-0.0030379463,0.0151557084
104274.094154,-1.5869214,-0.507703511,-0.0790378809,0.0680462942,-0.0154030034,0.003530744
104274.104182,-1.58880765,-0.491277277,0.0850040958,0.0675056726,-0.0329606906,-0.00805027783
104274.114209,-1.6279243,-0.488262387,0.185631877,0.0553041361,-0.0464437455,-0.0229213685
104274.124237,-1.61134857,-0.466054573,0.318263401,0.0510023311,-0.0428338274,-0.0389053971
104274.134265,-1.621036,-0.476030828,0.463296141,0.0468675084,-0.0193250403,-0.0516914986
104274.144293,-1.60860307,-0.525128182,0.520431403,0.0350726321,-0.00371119333,-0.0635271221
104274.154320,-1.55938925,-0.569822479,0.527737342,0.0178310629,0.00834307261,-0.0724476427
104274.164348,-1.49212379,-0.624468992,0.447745521,0.00352003402,0.0296504907,-0.0783814341
104274.174376,-1.39998414,-0.694750005,0.423047133,0.00688041048,0.0527598038,-0.0728183538
104274.184403,-1.28312565,-0.797016932,0.26114626,0.015343138,0.0520673841,-0.0729616284
104274.194431,-1.26766154,-0.852283476,-0.0174210904,0.0269973967,0.0435058512,-0.0683522373
104274.204459,-1.22234092,-0.95045685,-0.147107793,0.0453846604,0.0450494215,-0.0652070343
104274.214486,-1.22468814,-0.975870693,-0.170741767,0.0775753558,0.0443111919,-0.0621361472
104274.224514,-1.25137705,-1.01900154,-0.219064191,0.0933865383,0.0362173133,-0.0634115338
104274.234542,-1.28385966,-1.03645493,-0.257758371,0.0991847739,0.0294164009,-0.0550342984
104274.244569,-1.27637194,-1.10656248,-0.19889351,0.0985935554,0.0270291418,-0.0387269631
104274.254597,-1.22603349,-1.13950321,-0.0903524711,0.0920248628,0.0394272208,-0.0151851531
104274.264625,-1.26843471,-1.09813484,0.0390326182,0.0775609687,0.0581292696,0.0165951476
104274.274652,-1.32272686,-1.07644543,0.228164028,0.0446562842,0.0656100884,0.0441886932
104274.284680,-1.38622026,-1.02620738,0.243430571,0.00992440339,0.0560072623,0.0597884245
104274.294708,-1.44701872,-0.941215559,0.106519178,-0.0140669495,0.0482121892,0.0610297248
104274.304736,-1.52513013,-0.821030552,0.0236146843,-0.0101928487,0.0526143946,0.0594462082
104274.314763,-1.58209471,-0.740537212,-0.0773801768,0.00129070191,0.049927,0.0486380346
104274.324791,-1.57366883,-0.670976769,-0.226749485,0.00974357501,0.0297482312,0.0338242017
104274.334819,-1.53250504,-0.598238134,-0.344526554,0.0191935357,0.00289184833,0.0172196589
104274.344846,-1.50606142,-0.594289104,-0.335962139,0.024146216,-0.0121456906,0.0158462655
104274.354874,-1.44313165,-0.628999329,-0.162684717,0.0354273655,-0.0177905262,0.0131756477
104274.364902,-1.46235759,-0.637191404,0.00740413878,0.0270437356,-0.011459128,0.0121388799
104274.374929,-1.46517177,-0.659842211,0.203092715,0.0110597089,-0.010967508,0.0106997071
104274.384957,-1.44182831,-0.686079938,0.216515091,-0.015540476,-0.0118761789,0.00413980894
104274.394985,-1.42839994,-0.680932492,0.190748197,-0.0124501437,-0.00508218864,-0.00663560629
104274.405012,-1.42211107,-0.686746,0.134793086,0.00194637221,0.0238969997,-0.0135054979
104274.415040,-1.39027538,-0.720494833,0.152482472,0.00156554009,0.042667225,-0.0158189852
104274.425068,-1.31902947,-0.769027101,0.101359603,-0.00710810907,0.0442241058,-0.0107379407
104274.435096,-1.23886433,-0.843179256,-0.0079547584,-0.0193983316,0.0462286696,0.00476884749
104274.445123,-1.14944659,-0.921519802,-0.117013684,-0.00485534128,0.0480963439,0.0352463275
104274.455151,-1.11097394,-1.02328389,-0.20345395,-0.00403215829,0.0456734002,0.0786630511
104274.465179,-1.11509562,-1.0926627,-0.197974641,0.000190816369,0.017336566,0.123398557
104274.475206,-1.20150469,-1.08650987,-0.226887432,-0.0227951929,-0.0149992676,0.154425189
104274.485234,-1.35110832,-1.01431674,-0.0944488005,-0.0157663114,-0.0422228985,0.173659608
104274.495262,-1.58263423,-0.923140389,0.0265665199,-0.0108796777,-0.0410625599,0.182324722
104274.505289,-1.72892047,-0.819525116,0.31834991,-0.0188435949,-0.0395016819,0.179322809
104274.515317,-1.79176827,-0.680220106,0.491761773,-0.0333983041,-0.047730051,0.164019227
104274.525345,-1.82241972,-0.520825224,0.625875644,-0.0622456633,-0.0488270074,0.140181541
104274.535372,-1.78626119,-0.418869555,0.711176677,-0.0540806763,-0.045404844,0.116212279
104274.545400,-1.72906003,-0.332867388,0.647507046,-0.0373251326,-0.0302064493,0.0889644176
104274.555428,-1.65795119,-0.278086727,0.5897972,-0.0158147812,-0.0252210125,0.0632678419
104274.565455,-1.56907609,-0.310250483,0.429201564,-0.00127738435,-0.0305531956,0.0349432603
104274.575483,-1.51122874,-0.337242827,0.392354473,0.0103228129,-0.0224103108,0.00952205714
104274.585511,-1.44451097,-0.39172772,0.41303252,0.0118205743,-0.00220064842,-0.0146621075
104274.595538,-1.38694916,-0.468937801,0.404156555,0.0648009703,0.00211260724,-0.0189324878
104274.605566,-1.25967404,-0.620934681,0.211903798,0.0456230119,0.0300126821,-0.0138948523
104274.615594,-1.06958665,-0.757484255,0.398854941,0.0273942072,0.0334343091,0.0175134055
104274.625621,-0.938611222,-0.845948136,0.163309571,0.0188840758,0.0260706693,0.0516719073
104274.635649,-0.897315335,-0.822844908,-0.00886310541,-0.0136467023,0.0376098789,0.0828332901
104274.645677,-0.953336644,-0.780889242,-0.00700549485,-0.00355358818,0.0402959436,0.110724315
104274.655705,-1.09306952,-0.628315877,-0.197902745,0.00539303524,0.0467748828,0.113452449
104274.665732,-1.21862819,-0.458941892,-0.173481421,0.0152038541,0.0475128442,0.112342179
104274.675760,-1.30023373,-0.359156406,-0.189378078,0.0132762585,0.038033057,0.0970551074
104274.685788,-1.35628923,-0.271299405,-0.23851065,0.0164856333,0.0109420512,0.0817816108
104274.695815,-1.32030489,-0.208487706,-0.332258024,0.0186260156,-0.00932380557,0.070447728
104274.705843,-1.239398,-0.202526167,-0.337281405,0.0306350086,-0.0238896981,0.0710930079
104274.715871,-1.16164066,-0.214455528,-0.368475,0.0302147623,-0.0467779711,0.0711348206
104274.725898,-1.09225733,-0.180779761,-0.385074253,0.018049974,-0.0707786456,0.0703715608
104274.735926,-1.09760264,-0.109538233,-0.263774855,0.0131508233,-0.0792347118,0.0619463846
104274.745954,-1.16517132,-0.0251760884,-0.0711205319,0.0130890384,-0.0591800474,0.049614083
104274.755981,-1.25895435,0.0798147105,0.180816001,0.0116733015,-0.0410689525,0.018597845
104274.766009,-1.31823861,0.131909493,0.251400527,0.00201454898,-0.0377053805,-0.0148043204
104274.776037,-1.3080178,0.106910369,0.265448341,-0.0107734175,-0.0445635542,-0.0464149788
104274.786064,-1.21606769,0.00893704743,0.164622407,-0.0192177687,-0.0505998731,-0.0710047483
104274.796092,-1.08307931,-0.0584653407,0.00232230547,-0.00690198038,-0.0620868877,-0.0921353251
104274.806120,-1.01372652,-0.144523768,-0.115919459,0.0210263226,-0.0674875081,-0.107360348
104274.816147,-0.985034243,-0.272213598,-0.180660519,0.0411481038,-0.0604714118,-0.11371918
104274.826175,-0.935123818,-0.405509577,-0.0577887566,0.0467668399,-0.058215715,-0.108050376
104274.836203,-0.857763077,-0.513967467,0.0118365683,0.0365565456,-0.0647862628,-0.099758625
104274.846230,-0.779938956,-0.611061522,0.0630950463,0.0304033142,-0.083061941,-0.0813133121
104274.856258,-0.696489323,-0.697090138,-0.022870588,0.0214002319,-0.0862042084,-0.0574527122
104274.866286,-0.595629523,-0.764477475,0.0662000266,0.0126554752,-0.0778291002,-0.0318919607
104274.876313,-0.632338557,-0.739187697,0.167039405,0.00211787969,-0.0602783337,-0.0143305454
104274.886341,-0.652693801,-0.728622171,0.183300219,-0.00749000628,-0.0470618643,0.000178090297
104274.896369,-0.645874549,-0.66630147,0.229962017,-0.0231872108,-0.0392899625,0.0100219324
104274.906397,-0.60751457,-0.593611497,0.103737438,-0.0228572432,-0.0405597575,0.0157647505
104274.916424,-0.562739462,-0.487647031,-0.0622784693,-0.00885114726,-0.0277219918,0.024103906
104274.926452,-0.564485612,-0.415416638,-0.00919336028,0.00193998136,-0.0134663563,0.0370580554
104274.936480,-0.540063118,-0.385779333,-0.00423193848,-0.0193682369,-0.0191703159,0.0493807681
104274.946507,-0.500179838,-0.329326209,-0.00697393067,-0.040708147,-0.0332200862,0.0604904108
104274.956535,-0.545964269,-0.307523104,0.0129039052,-0.0408588797,-0.0426117256,0.0681022555
104274.966563,-0.605937566,-0.307149302,0.0608610037,-0.033199098,-0.0360241272,0.075214766
104274.976590,-0.681870796,-0.30314635,0.177887547,-0.0326419622,-0.0402979702,0.0751399323
104274.986618,-0.816654967,-0.263122821,0.183341136,-0.0403875001,-0.0485891886,0.0602613762
104274.996646,-0.933613121,-0.166826493,0.279900645,-0.044429116,-0.0420918763,0.0294451416
104275.006673,-1.04255953,-0.0470803156,0.401651294,-0.0385813452,-0.0194632635,-0.00434797443
104275.016701,-1.06482309,-0.00211392341,0.461132826,-0.0355000682,-0.00194898376,-0.0350976326
104275.026729,-0.968919851,-0.0445819229,0.35507016,-0.0382284783,-0.00262116548,-0.0621862449
104275.036756,-0.807074361,-0.093328272,0.156105923,-0.031721577,-0.0222095158,-0.0809996054
104275.046784,-0.638655923,-0.14308789,-0.119826403,-0.0107534435,-0.0459087156,-0.0937737226
104275.056812,-0.481992622,-0.224650759,-0.309724121,0.0276312307,-0.063100487,-0.0905478373
104275.066839,-0.372603259,-0.337491979,-0.361010071,0.0696670935,-0.0555688031,-0.0781087428
104275.076867,-0.34290878,-0.462821802,-0.199960262,0.0859368816,-0.0410231501,-0.0573331602
104275.086895,-0.383193992,-0.551157819,-0.011989713,0.059988372,-0.0268522035,-0.0391855836
104275.096922,-0.476536877,-0.570827272,0.192754276,0.0331037603,-0.00579645252,-0.0141281681
104275.106950,-0.56145567,-0.618208325,0.340990781,0.0106463879,0.0373611376,0.0174721032
104275.116978,-0.578069864,-0.644034401,0.455999555,-0.0172145385,0.0623887293,0.0534860305
104275.127005,-0.631404052,-0.654401189,0.31354514,-0.0441090018,0.0535805896,0.0896046236
104275.137033,-0.655186933,-0.661475073,0.111591658,-0.0553020015,0.0356910713,0.122622229
104275.147061,-0.651402665,-0.589359539,-0.0721136346,-0.0362747833,0.0169309638,0.154015303
104275.157088,-0.672299834,-0.486293717,-0.203883573,-0.0161964111,-0.0210811347,0.180202425
104275.167116,-0.708248076,-0.368371832,-0.318641002,-0.00874142442,-0.0766983181,0.192301705
104275.177144,-0.833475242,-0.210973093,-0.190734169,0.0154243652,-0.121232234,0.192730993
104275.187171,-0.981433807,-0.0835150263,0.0607674802,0.0423481241,-0.140454128,0.17864421
104275.197199,-1.16153143,0.0863968653,0.573706481,0.0130919684,-0.13434884,0.154056311
104275.207227,-1.26306033,0.24243323,1.14730483,-0.0112565141,-0.145300552,0.114086263
104275.217254,-1.36246631,0.385391502,1.27046242,-0.0451210029,-0.132815659,0.0657344386
104275.227282,-1.32742349,0.475474217,1.41680332,-0.0519445539,-0.109863728,0.011195831
104275.237310,-1.29117919,0.576829289,1.31725632,-0.046964176,-0.0967559218,-0.0599332042
104275.247337,-1.16257473,0.654832859,0.999614849,-0.0273862146,-0.0835548937,-0.133794114
104275.257365,-0.975451445,0.589852145,0.737802234,0.0156299602,-0.0620235056,-0.199803233
104275.267393,-0.764706315,0.410022378,0.444281644,0.0831866339,-0.0480957069,-0.247426689
104275.277421,-0.569822699,0.170908063,0.208580791,0.116617829,-0.033628881,-0.272299528
104275.287448,-0.335238099,-0.0832915928,0.162483641,0.138736174,-0.0425512716,-0.271728814
104275.297476,-0.202666672,-0.317329774,0.188138307,0.132806107,-0.0429115966,-0.245963275
104275.307504,-0.0720042194,-0.531055672,0.285014627,0.109642744,-0.0297670327,-0.197235405
104275.317531,-0.0129297703,-0.658616031,0.375750544,0.0814073756,0.00785757415,-0.149175212
104275.327559,-0.0650431482,-0.770201405,0.615949294,0.0449212715,0.0615479685,-0.0931923538
104275.337587,-0.0622953108,-0.755057466,0.685259561,-0.0242900252,0.101734266,-0.0620272495
104275.347614,-0.129788556,-0.647468614,0.450457118,-0.0661855415,0.125243589,-0.0440253466
104275.357642,-0.190000009,-0.505683185,0.00404898313,-0.0599508174,0.160027668,-0.0399200842
104275.367670,-0.242083613,-0.379535762,-0.36384851,-0.0369474962,0.189873978,-0.042139031
104275.377697,-0.317405177,-0.385049557,-0.609332506,-0.000820651301,0.216740742,-0.0392953083
104275.387725,-0.248680198,-0.439530943,-0.867024826,0.0284448266,0.20524548,-0.0174046531
104275.397753,-0.147492956,-0.539404837,-1.21616677,0.0390974693,0.161783487,0.0355429836
104275.407780,-0.0328569983,-0.674067867,-1.38554718,0.043408595,0.0904933363,0.109459817
104275.417808,-0.10985066,-0.698686906,-1.28032915,0.00359140756,0.0172023401,0.17488037
104275.427836,-0.319915552,-0.547360472,-0.855539555,-0.0324973539,-0.0466245748,0.212294579
104275.437863,-0.716661758,-0.269324744,-0.379616572,-0.0676236525,-0.0826467574,0.212690592
104275.447891,-1.10845728,-0.0305021058,0.129427175,-0.091272518,-0.0873776004,0.185160697
104275.457919,-1.42682904,0.160266696,0.444992423,-0.0942163765,-0.0858452171,0.126198843
104275.467946,-1.61840492,0.364152753,0.501231028,-0.0972984582,-0.0694667771,0.0392903164
104275.477974,-1.66475546,0.490319027,0.586207651,-0.0771977156,-0.0711629391,-0.0665692687
104275.488002,-1.5884432,0.595114595,0.375597984,-0.0578471869,-0.0598924421,-0.18781288
104275.498029,-1.35180244,0.589530804,0.264766789,-0.00418209331,-0.0439512953,-0.285801768
104275.508057,-0.94779333,0.375941975,-0.0941366658,0.0568743348,-0.0248692147,-0.349312812
104275.518085,-0.41690589,0.0672604955,-0.454212087,0.107731655,-0.00594905159,-0.35877797
104275.528112,0.0232364621,-0.343579336,-0.550651184,0.119253822,-0.00408403995,-0.320286781
104275.538140,0.344016851,-0.693218704,-0.670371204,0.12302646,-0.0182003919,-0.240708858
104275.548168,0.480333603,-1.03606666,-0.633487873,0.0876871124,-0.0118689928,-0.13105613
104275.558195,0.470122809,-1.34073671,-0.291313435,0.031984698,-0.0201937687,0.00144946063
104275.568223,0.358215618,-1.50347462,-0.11652853,-0.0412301272,-0.0409501791,0.132880181
104275.578251,0.151234371,-1.54194683,0.0829839882,-0.11245504,-0.0557592176,0.252506196
104275.588278,-0.17400749,-1.44902494,0.342822673,-0.166777134,-0.0648949221,0.335382432
104275.598306,-0.446568111,-1.14283849,0.357249258,-0.198214963,-0.0821780413,0.372711152
104275.608334,-0.729221891,-0.758718327,0.321163214,-0.199514583,-0.0888900086,0.375559658
104275.618361,-0.852828835,-0.40993017,0.441919591,-0.181212276,-0.0940139294,0.351514518
104275.628389,-0.853233763,-0.0830751736,0.426176079,-0.154983327,-0.114151418,0.312479228
104275.638417,-0.747576755,0.214759187,0.370144395,-0.119689517,-0.142925277,0.265602022
104275.648444,-0.612636224,0.442209514,0.346578226,-0.0789237097,-0.162123471,0.217695475
104275.658472,-0.437205276,0.526708291,0.242071557,-0.0304986518,-0.171926573,0.166082084
104275.668500,-0.334738699,0.604366408,0.296126973,0.0143124955,-0.155511111,0.108311467
104275.678527,-0.313554274,0.670968001,0.563354014,0.0372164808,-0.117107794,0.0479972549
104275.688555,-0.272605757,0.682266809,0.847127701,0.0499993861,-0.061803259,-0.0101736402
104275.698583,-0.245041897,0.607539485,1.06044546,0.0349261612,0.0145583535,-0.059304703
104275.708610,-0.170349406,0.494987603,1.21233756,0.0117939441,0.0859193504,-0.0980853811
104275.718638,-0.0995071433,0.367571914,1.09135322,-0.0244175903,0.14962323,-0.129888326
104275.728666,-0.00919938816,0.225336403,0.730182991,-0.0444339067,0.188237205,-0.149096116
104275.738693,0.122549508,0.078433193,0.152667765,-0.0254184064,0.212526023,-0.152503356
104275.748721,0.323089689,-0.0716204442,-0.415968573,0.00165209372,0.213731915,-0.142840073
104275.758749,0.390987496,-0.21478213,-0.833760854,0.0366063491,0.200296268,-0.11562869
104275.768777,0.493433104,-0.300918591,-1.16959557,0.0638989583,0.162719324,-0.0845626518
104275.778804,0.472175577,-0.303299202,-1.40287007,0.0907468125,0.11342182,-0.0389698669
104275.788832,0.482897389,-0.38733796,-1.49609488,0.110828914,0.0725169927,0.0116211381
104275.798860,0.405375137,-0.389315982,-1.40223762,0.146655887,0.0274381991,0.0702338517
104275.808887,0.155577844,-0.323921719,-1.15291448,0.133929968,-0.00442119595,0.116095088
104275.818915,-0.0633507747,-0.168277422,-0.68801149,0.0959719345,-0.0437771231,0.165829346
104275.828943,-0.280943103,-0.020106384,-0.267621009,0.0395001397,-0.0743379593,0.204616427
104275.838970,-0.455878486,0.192893685,0.145318572,-0.0146565717,-0.0940325707,0.236553043
104275.848998,-0.583585559,0.410702615,0.52464639,-0.0701027885,-0.0908777863,0.255645514
104275.859026,-0.621486323,0.63337696,0.837179723,-0.126730382,-0.078397952,0.246330306
104275.869053,-0.771533896,0.826499923,0.950671662,-0.161118194,-0.08064273,0.216588393
104275.879081,-0.783784452,0.967973656,0.820269505,-0.173270717,-0.0906775221,0.153208897
104275.889109,-0.788119851,1.08909317,0.651441463,-0.143668622,-0.100439601,0.065752551
104275.899136,-0.8110627,1.16661801,0.444939231,-0.0881584883,-0.11571683,-0.0379932858
104275.909164,-0.758195326,1.15027186,0.284756853,-0.0118045975,-0.131325886,-0.141465545
104275.919192,-0.683380104,1.01314989,0.237172679,0.055880975,-0.122886591,-0.224541247
104275.929219,-0.536400687,0.782406222,0.451594598,0.100029521,-0.100632951,-0.28229028
104275.939247,-0.406564931,0.518323909,0.621232202,0.121688209,-0.0966555178,-0.307477653
104275.949275,-0.306872531,0.220150671,0.687156335,0.101759247,-0.0911986977,-0.307943463
104275.959302,-0.152971041,-0.08225582,0.810077781,0.0988710448,-0.0936064646,-0.277314961
104275.969330,-0.0581470685,-0.331962695,0.72352178,0.0696524456,-0.0788608044,-0.245225236
104275.979358,-0.0954300666,-0.5026067,0.840207546,0.048710946,-0.0702545345,-0.215452686
104275.989385,-0.186572008,-0.611758856,0.767121852,0.0245275777,-0.0542292334,-0.200806901
104275.999413,-0.301848894,-0.667578651,0.77681264,0.0171269178,-0.032637123,-0.198070765
104276.009441,-0.388906013,-0.727318688,0.64711717,0.0306717567,-0.0200888403,-0.202960595
104276.019468,-0.355046414,-0.720423814,0.394684377,0.0390383452,-0.0231599957,-0.211198553
104276.029496,-0.179572705,-0.751421302,0.135340198,0.0640478209,-0.0215024464,-0.192862958
104276.039524,0.168480562,-0.812083714,-0.155725984,0.0968747437,-0.0254934579,-0.154370427
104276.049551,0.4373795,-0.816696907,-0.404922278,0.113815375,-0.0327460468,-0.0974583998
104276.059579,0.668515712,-0.833735428,-0.523147091,0.112287253,-0.0308719799,-0.0225450099
104276.069607,0.744364661,-0.853825591,-0.353250543,0.0987195149,-0.0229211114,0.0654066876
104276.079635,0.663843556,-0.822159848,-0.0337239904,0.0371208675,-0.00291038491,0.145483404
104276.089662,0.461270152,-0.702636812,0.462628617,-0.0399225168,0.0131295677,0.211805433
104276.099690,0.242992124,-0.495441046,0.636543169,-0.126178041,0.035849262,0.243016884
104276.109718,0.0251677225,-0.22052535,0.700702045,-0.202486664,0.0762408972,0.248945877
104276.119745,-0.0994880368,-0.0193348151,0.460031002,-0.208125383,0.0880975574,0.232340276
104276.129773,-0.189254817,0.254857097,-0.0929857422,-0.20755519,0.09720397,0.167221457
104276.139801,-0.329275574,0.507481174,-0.309188114,-0.160568506,0.102089003,0.0919019431
104276.149828,-0.351978733,0.670518211,-0.582255698,-0.0871781856,0.112484656,0.0098768454
104276.159856,-0.302090813,0.77458079,-0.631220512,-0.0206598751,0.127455875,-0.0479635522
104276.169884,-0.172604547,0.694630908,-0.682742025,0.0198526643,0.119524188,-0.0763043761
104276.179911,-0.0873561206,0.521763966,-0.740949884,0.0325990878,0.0872512013,-0.0762069002
104276.189939,-0.0561690465,0.234643453,-0.68780457,0.0212854445,0.0514287539,-0.0506104678
104276.199967,-0.16183232,-0.0473874819,-0.367294851,-0.0172512941,0.0359339491,-0.0180642419
104276.209994,-0.322045221,-0.242831436,-0.00558276857,-0.0477468856,0.0176369697,0.0180889703
104276.220022,-0.518361537,-0.400459161,0.185651166,-0.102019712,0.0205209069,0.0409021378
104276.230050,-0.701950145,-0.481650129,0.512211271,-0.122350819,0.0254823752,0.0570978858
104276.240077,-0.823806739,-0.487377713,0.481480033,-0.14203237,0.039772097,0.0418835133
104276.250105,-0.963158657,-0.388344653,0.543313681,-0.137475714,0.0482822284,0.0135456165
104276.260133,-0.992250165,-0.311005977,0.34172611,-0.0983637273,0.0600880198,-0.0201044902
104276.270160,-0.901549246,-0.274659383,0.169352943,-0.0617471226,0.0884695947,-0.0387388952
104276.280188,-0.700447559,-0.34475744,0.1621189,-0.0280317701,0.100454621,-0.0356797203
104276.290216,-0.470392054,-0.370868179,-0.0204348853,-0.0262029786,0.0980649665,-0.0227277018
104276.300243,-0.301340652,-0.4172166,-0.0880897869,-0.0172752626,0.0949860886,0.0177800432
104276.310271,-0.0972356547,-0.570824496,-0.211705061,-0.0100189475,0.0885460302,0.0680176467
104276.320299,-0.110109567,-0.598584463,-0.274406139,-0.0132959671,0.0708605126,0.11493323
104276.330327,-0.234214962,-0.581128667,-0.264227275,-0.0180632919,0.0345831923,0.149702385
104276.340354,-0.451794504,-0.449299911,-0.301419234,-0.0314315595,0.00588470465,0.159887105
104276.350382,-0.748804982,-0.283584886,-0.140389298,-0.0220473818,-0.00706544891,0.154373571
104276.360410,-0.953942135,-0.137136361,0.00362345119,-0.00662421621,-0.00596423168,0.134119436
104276.370437,-1.07105058,-0.022210882,0.105918289,-0.00583538786,-0.0162666701,0.103226766
104276.380465,-1.01600798,0.0947509253,0.107303606,-0.0149801504,-0.030243475,0.0727405027
104276.390493,-0.888631385,0.15019458,0.112092594,-0.0104586352,-0.0463718437,0.048735559
104276.400520,-0.666689301,0.255448998,0.0362982248,-2.99631029e-05,-0.0570524521,0.0261479616
104276.410548,-0.536226828,0.350798036,0.0349240139,0.0121340249,-0.0747323707,0.000574956648
104276.420576,-0.499463945,0.4379436,-0.0563882422,0.0358167179,-0.10230621,-0.0338453352
104276.430603,-0.522893043,0.515515135,-0.078866616,0.0479367636,-0.118750431,-0.0785270482
104276.440631,-0.545839546,0.533879059,-0.0613099165,0.073281534,-0.119806111,-0.130133793
104276.450659,-0.53960931,0.511301755,-0.0653647448,0.0958166718,-0.101638027,-0.175011247
104276.460686,-0.448714549,0.384568934,0.0390635979,0.109909318,-0.0757497028,-0.205674618
104276.470714,-0.351982204,0.219364782,0.12885902,0.101425022,-0.0548793115,-0.220449835
104276.480742,-0.198218661,0.0571332153,0.164585582,0.0897542462,-0.0438082851,-0.212082982
104276.490769,-0.0337632265,-0.0957242273,0.128576111,0.0534164831,-0.0368704833,-0.181834534
104276.500797,0.144413056,-0.272943227,0.0518693034,0.0258562285,-0.0426287688,-0.127300456
104276.510825,0.259881026,-0.407895157,-0.168103819,0.0150025161,-0.0590490215,-0.0675652102
104276.520853,0.236329854,-0.444313793,-0.23970249,0.000941291742,-0.0707687885,-0.0195697248
104276.530880,0.169695819,-0.406622068,-0.156041041,0.00343427667,-0.0895230398,0.0147877149
104276.540908,0.0247420261,-0.335263636,-0.0654933397,0.00235329987,-0.0894790962,0.0330048017
104276.550936,-0.0929891945,-0.260438696,0.189935127,0.00158071669,-0.0836371854,0.029648155
104276.560963,-0.227943718,-0.155314626,0.32673663,-0.00683673657,-0.0638269931,0.0155618954
104276.570991,-0.21667125,-0.128513567,0.5349217,-0.00919709634,-0.0158903673,0.0062275161
104276.581019,-0.167213684,-0.137404291,0.618309593,-0.002094978,0.0248187147,-0.00570823904
104276.591046,-0.176204726,-0.112191962,0.460694434,-0.0088375695,0.0485892892,-0.018995814
104276.601074,-0.132804908,-0.0902510566,0.34177521,-0.0166105386,0.0658377856,-0.0227082632
104276.611102,-0.0642458421,-0.178369631,0.152463183,-0.00475813914,0.078868106,-0.013574685
104276.621129,0.0247084892,-0.314528598,-0.0701005412,0.00423322525,0.0839384943,0.00924487785
104276.631157,0.0843753877,-0.400760336,-0.228300222,0.0204151236,0.0624662228,0.0424017645
104276.641185,0.146744567,-0.485222142,-0.48451604,0.0353386812,0.0292126648,0.0872957408
104276.651213,0.174014541,-0.53893605,-0.544014523,0.0410687402,-0.0018885301,0.135782301
104276.661240,0.0274626285,-0.497004204,-0.438508906,0.0263377279,-0.0208981745,0.164153501
104276.671268,-0.187243422,-0.3612167,-0.212787595,0.0166297071,-0.0266916156,0.177462384
104276.681296,-0.327756146,-0.201386788,-0.0249491478,0.00449661165,-0.0201034881,0.18040517
104276.691323,-0.44524658,-0.0174748664,0.203265734,-0.0266397372,-0.0075874282,0.16864571
104276.701351,-0.5165767,0.142492408,0.340672801,-0.0198111255,-0.0214710198,0.155786648
104276.711379,-0.532572068,0.28495296,0.165843473,-0.0382588394,-0.0276341066,0.135859281
104276.721406,-0.442877038,0.371934786,0.153031338,-0.0486883111,-0.05888284,0.113224544
104276.731434,-0.384627057,0.401888756,-0.144823481,-0.0248183999,-0.109653607,0.0832083225
104276.741462,-0.311609021,0.409035413,-0.425330276,0.0312344823,-0.147886217,0.0460036919
104276.751489,-0.304208189,0.406094537,-0.43877954,0.0980566517,-0.179490745,0.00562644098
104276.761517,-0.324425321,0.451913893,-0.269443548,0.133882031,-0.206616119,-0.0377082489
104276.771545,-0.330535548,0.423581971,0.153417122,0.111760482,-0.207156733,-0.0762974545
104276.781573,-0.28042202,0.402127679,0.625426147,0.0739430636,-0.209785014,-0.115102105
104276.791600,-0.159977376,0.429740932,0.701157972,0.0451985039,-0.178443328,-0.143847212
104276.801628,0.0583679448,0.396331706,0.766945326,0.0500150956,-0.107114285,-0.157981664
104276.811656,0.260087508,0.345207084,0.763823395,0.0618006475,-0.0393594727,-0.161197707
104276.821683,0.427046103,0.277837137,0.568259906,0.0439974181,-0.00776799116,-0.151508063
104276.831711,0.54790057,0.178812114,0.275121009,0.0195943378,-0.00162540982,-0.127246663
104276.841739,0.601056407,0.0218755856,0.032204818,0.0118165761,0.0124986647,-0.0917256773
104276.851766,0.619551483,-0.131308751,-0.142183196,0.0152035849,0.0156435929,-0.0474524908
104276.861794,0.595046499,-0.266090292,-0.334242476,0.0146049056,0.00871404633,-0.00646297913
104276.871822,0.565467134,-0.325823461,-0.392591789,0.00416052109,-0.00260492042,0.0437730253
104276.881849,0.541737883,-0.38777942,-0.380923563,-0.00392350461,-0.0127459718,0.0948061198
104276.891877,0.415143265,-0.381109003,-0.325737683,-0.015949009,-0.021330405,0.133016348
104276.901905,0.200412938,-0.275180485,-0.22399931,-0.0245225243,-0.0245528296,0.152542382
104276.911934,0.00346279901,-0.109942284,-0.107778822,-0.0356391333,-0.0281031337,0.145110339
104276.921961,-0.154621895,0.102539314,-0.062419339,-0.0337331109,-0.0365000814,0.119683817
104276.931989,-0.201841108,0.283446062,-0.0944207435,-0.0126062548,-0.0349442624,0.0914247483
104276.942017,-0.0993118217,0.393227457,-0.0606137509,0.0135917934,-0.0312832147,0.0689231604
104276.952044,0.0746973264,0.455106551,-0.113435241,0.0287654195,-0.0414716676,0.0525929257
104276.962072,0.25524005,0.471497714,-0.227858908,0.0283078887,-0.0642571449,0.0455342196
104276.972100,0.339257016,0.464790325,-0.249905904,0.0256324764,-0.080754362,0.0411344096
104276.982128,0.36379583,0.480710948,-0.169441205,0.0265917461,-0.072666347,0.0325736776
104276.992155,0.282530665,0.451894604,0.0193090961,0.032177195,-0.0490683354,0.0276771914
104277.002183,0.188105866,0.413976376,0.22324703,0.0328573696,-0.020897951,0.0166562311
104277.012211,0.0813897504,0.361538918,0.300651172,0.0207668804,-0.00344226183,0.00170391425
104277.022238,-0.0289724303,0.327011502,0.266402281,-0.004510778,0.00332136825,-0.0190080218
104277.032266,-0.0613575642,0.290015796,0.193188576,-0.00734145194,0.0243685972,-0.0314612314
104277.042294,0.0369596296,0.192743901,0.0546872835,0.0174357984,0.0281241871,-0.018434111
104277.052321,0.220957567,-0.0111380646,-0.25404315,0.0237669311,0.000563398586,0.0122425752
104277.062349,0.330678756,-0.188327108,-0.397704018,0.0185383484,-0.0558141246,0.0415559895
104277.072377,0.324157172,-0.207539027,-0.476737807,0.00777092203,-0.109616369,0.0539516732
104277.082405,0.191439668,-0.0871919612,-0.379672686,0.0212430544,-0.129014567,0.0502578691
104277.092432,0.0403471851,0.106899117,-0.154121471,0.053318169,-0.115536578,0.0252348073
104277.102460,-0.110704537,0.272834214,0.0693541067,0.0810363516,-0.0842558891,0.000856762752
104277.112488,-0.120699514,0.307628902,0.253053555,0.0906357095,-0.062848337,-0.014528852
104277.122515,-0.0401507081,0.282849996,0.35859775,0.066815868,-0.0471849479,-0.0151576232
104277.132543,0.103746224,0.235993406,0.449424268,0.0354411677,-0.0437105894,-0.00295954756
104277.142571,0.201353014,0.260862182,0.443260485,0.00738902437,-0.0279963408,0.00949898642
104277.152598,0.254188733,0.290890387,0.460866868,-7.82126299e-05,-0.0149380621,0.0255330801
104277.162626,0.251605621,0.29056627,0.333474414,0.00388031011,-0.0145995747,0.0349103361
104277.172654,0.259892187,0.287668795,0.152744338,0.00827159639,-0.0272754226,0.0388584733
104277.182682,0.179325014,0.298229644,-0.00069908818,0.015542293,-0.0484901629,0.0362842605
104277.192709,0.0792847683,0.339926513,0.0092231709,0.0119973589,-0.0628576577,0.0224752389
104277.202737,0.0350719436,0.362442735,0.171408122,0.00164645049,-0.065194577,0.00628721435
104277.212765,0.0541501079,0.38281683,0.323403102,-0.00631240662,-0.062554054,-0.00043646805
104277.222792,0.116546103,0.389399861,0.37668461,-0.0256147329,-0.0618738793,-0.00477555674
104277.232820,0.213251888,0.378386154,0.351716173,-0.0278664343,-0.059900742,-0.00330309477
104277.242848,0.224181571,0.406999669,0.419938061,-0.0251750443,-0.0446094051,-0.014509676
104277.252876,0.140944768,0.487290327,0.462404161,-0.0216058753,-0.0438799672,-0.0405346192
104277.262903,0.0621519751,0.544170444,0.373278017,-0.0155551732,-0.0541879982,-0.0765328333
104277.272931,0.0532665848,0.525075283,0.30641748,0.00321052503,-0.0545286164,-0.116385706
104277.282959,0.0989696572,0.447889752,0.314514278,0.0281299893,-0.0531046242,-0.156325936
104277.292986,0.190318172,0.442850589,0.238034849,0.0649588481,-0.064304553,-0.195731938
104277.303014,0.27516905,0.38268765,0.111464233,0.0907803252,-0.0734130964,-0.239964098
104277.313042,0.333484059,0.314867037,0.109720019,0.117028438,-0.0720143989,-0.265914202
104277.323070,0.416255135,0.252993203,0.256619723,0.128139943,-0.0418434478,-0.285428524
104277.333097,0.479887065,0.185075851,0.44093701,0.135702521,-0.00804021023,-0.289174795
104277.343125,0.485446927,0.0558377687,0.476454314,0.123175278,0.0298853349,-0.27913788
104277.353153,0.534040095,-0.0575512946,0.477853075,0.0975103974,0.0697619095,-0.255214423
104277.363180,0.500484009,-0.204657919,0.484226117,0.0653263628,0.115193836,-0.220825821
104277.373208,0.486417197,-0.347595002,0.415332029,0.0405685492,0.153505549,-0.179084778
104277.383236,0.445848346,-0.447202792,0.252684721,0.0124335848,0.180272713,-0.136634797
104277.393264,0.450852912,-0.566570492,0.0371942969,-0.0148859201,0.186967626,-0.0753818154
104277.403291,0.510920501,-0.696193482,-0.275361248,-0.0201275554,0.178194121,-0.0102912299
104277.413319,0.500802208,-0.7997145,-0.594409662,0.00844603404,0.161164805,0.0639007092
104277.423347,0.368230342,-0.853878052,-0.836210586,0.0246646833,0.116671622,0.133545041
104277.433374,0.191508806,-0.825466343,-0.853931536,0.0188568626,0.0504217707,0.202515841
104277.443402,-0.0635316979,-0.741438837,-0.573891775,-0.0109766666,0.00130961637,0.253212035
104277.453430,-0.37145292,-0.564366114,-0.0782101979,-0.0412842371,-0.0224899892,0.284806997
104277.463458,-0.632399493,-0.263680601,0.282660173,-0.0552796796,-0.0431657061,0.287971646
104277.473485,-0.783793147,0.0496842145,0.472740846,-0.073115401,-0.0464445911,0.267524689
104277.483513,-0.813607343,0.317320129,0.686993838,-0.0872117803,-0.0428658351,0.222256273
104277.493541,-0.82370021,0.499735674,0.755488113,-0.0964135379,-0.0372859798,0.15910846
104277.503568,-0.811356788,0.61777534,0.775484607,-0.102001384,-0.025347827,0.0748993009
104277.513596,-0.717972694,0.761762371,0.689186964,-0.0906238258,-0.00296449102,-0.0159624312
104277.523624,-0.495361478,0.748010909,0.505707881,-0.0469245464,0.0202963576,-0.101649903
104277.533652,-0.209436549,0.700468382,0.159382168,0.0135707548,0.0428195111,-0.177038133
104277.543679,0.0411416874,0.568842236,-0.184299167,0.0860116631,0.0500587784,-0.214403629
104277.553707,0.283770015,0.288507145,-0.568687192,0.129825711,0.0509597287,-0.219605297
104277.563735,0.473793935,-0.0370575188,-0.660998396,0.151055634,0.0407361202,-0.193418175
104277.573762,0.512458889,-0.299189429,-0.675165453,0.143577218,0.0487327911,-0.151239038
104277.583790,0.46122697,-0.497089544,-0.352127092,0.117172249,0.0894874111,-0.0922673196
104277.593818,0.445128397,-0.687440412,-0.00838029033,0.051818274,0.120646663,-0.0116803348
104277.603846,0.525867821,-0.770815592,0.020521979,-0.0395374708,0.106965199,0.0787984356
104277.613873,0.592697707,-0.809607679,-0.2555103,-0.102846138,0.0818161741,0.164040357
104277.623901,0.522167652,-0.712288438,-0.600209288,-0.107050471,0.0664398819,0.232815683
104277.633929,0.322464141,-0.520998389,-0.852803993,-0.0997523442,0.0525650829,0.272503465
104277.643957,0.167019239,-0.307397139,-0.931360812,-0.0870160386,0.0230564568,0.286233127
104277.653984,0.103103652,0.0158672851,-0.950343161,-0.0828463286,-0.00484920992,0.269375056
104277.664012,0.0485254181,0.328639395,-0.769904176,-0.0807075426,-0.0168779083,0.236636251
104277.674040,0.0612663331,0.553389231,-0.578036035,-0.066943258,-0.0132235195,0.191132426
104277.684067,0.0858075394,0.703503074,-0.544443562,-0.0498396419,-0.00219297316,0.142654657
104277.694095,0.158134342,0.776391492,-0.53149231,-0.0264408439,-0.00445958925,0.0990243405
104277.704123,0.172879071,0.826287596,-0.590107581,-0.00508841779,-0.0317796282,0.0635031015
104277.714151,0.200033017,0.826091635,-0.607586539,0.0191735122,-0.0543829389,0.0436902456
104277.724178,0.164046909,0.777828393,-0.429603131,0.0323012993,-0.0696377978,0.0329883322
104277.734206,0.0705245799,0.699165337,-0.20234745,0.0070433463,-0.0616339259,0.0255141724
104277.744234,-0.0919659342,0.564966125,0.218040109,-0.0127295591,-0.0495642163,0.0311158653
104277.754261,-0.221133198,0.391799762,0.375313907,-0.0331240445,-0.0565369055,0.0343590602
104277.764289,-0.283535914,0.289969911,0.445589804,-0.0477357432,-0.0749428123,0.0311350394
104277.774317,-0.440976977,0.165012429,0.546014172,-0.0642193779,-0.0807391852,0.00972455647
104277.784345,-0.557504594,0.131107968,0.597850742,-0.0544612929,-0.0909824967,-0.0301592089
104277.794372,-0.610872904,0.132473849,0.455191745,-0.02982812,-0.092348434,-0.0884217173
104277.804400,-0.587389116,0.136603058,0.348874228,0.0146354865,-0.0877848417,-0.142678291
104277.814428,-0.432345671,0.111104606,0.174285138,0.0727882758,-0.0881528929,-0.188777626
104277.824456,-0.188502537,0.0599047259,0.00937163946,0.123950526,-0.0886013657,-0.20600906
104277.834483,0.138546118,-0.069941259,-0.00231295312,0.15412946,-0.0894282758,-0.199281663
104277.844511,0.373827906,-0.170719555,-0.0264297418,0.161554083,-0.106316447,-0.164975077
104277.854539,0.562558516,-0.269736248,-0.026435587,0.145492822,-0.121294603,-0.105787128
104277.864567,0.647903571,-0.372141999,0.130546534,0.136881769,-0.126619056,-0.0309166126
104277.874594,0.543864995,-0.444699724,0.31259237,0.107717231,-0.112422012,0.055969283
104277.884622,0.412562126,-0.458130429,0.688784228,0.0454914048,-0.10360162,0.12742269
104277.894650,0.24608419,-0.4030049,0.976934231,-0.035482008,-0.0918735936,0.1847893
104277.904677,0.208618091,-0.276768484,1.05514384,-0.0942659602,-0.0846529678,0.222444028
104277.914704,0.226407065,-0.0962289619,0.91942546,-0.121245854,-0.0809110776,0.238421515
104277.924732,0.251517029,0.0588011485,0.724644062,-0.101125404,-0.0691947713,0.224314481
104277.934760,0.154466376,0.279351194,0.55837038,-0.0713272989,-0.0557511337,0.174485937
104277.944787,-0.0401063119,0.458189904,0.503524691,-0.0157220941,-0.0606971532,0.101303071
104277.954815,-0.167388365,0.551843901,0.368563263,0.0352737084,-0.0482748412,0.0196609385
104277.964843,-0.147498199,0.52498965,0.442434555,0.080268085,-0.0249101315,-0.0461337864
104277.974871,0.0792593964,0.341009194,0.430021648,0.109406531,-0.0110584972,-0.0763763785
104277.984898,0.435280592,0.137073744,0.304429522,0.11063531,-0.00171160069,-0.0733965635
104277.994926,0.805022909,-0.00357274392,0.266477684,0.0937300995,-0.00524055492,-0.0455066115
104278.004954,1.03842586,-0.115293874,0.268136557,0.0595636033,0.0132218087,0.000852630474
104278.014982,1.08781964,-0.11129516,0.405112248,0.0403590165,0.0495779552,0.052646853
104278.025009,0.925874563,-0.0627042935,0.466641945,0.0284680035,0.0913320556,0.100839682
104278.035037,0.611567498,-0.00144070033,0.540304562,-0.0149742793,0.122560285,0.131263629
104278.045065,0.259863436,0.0559730855,0.709924631,-0.0814478397,0.137828991,0.145945907
104278.055092,0.0184990584,0.131389999,0.61271981,-0.114880636,0.133068323,0.141940519
104278.065120,-0.142200476,0.271830151,0.218344645,-0.119947031,0.124558985,0.106946312
104278.075148,-0.15175624,0.432657404,-0.164745741,-0.0709632412,0.108125418,0.0693142414
104278.085176,-0.101114551,0.509123242,-0.604137275,-0.00669078249,0.0789046809,0.0291079693
104278.095203,-0.0825465009,0.5420894,-0.837837895,0.0480187982,0.053374555,-0.00727533642
104278.105231,-0.108221534,0.558968638,-0.655099985,0.0710871071,0.0475281179,-0.0465708114
104278.115259,-0.14453828,0.626284517,-0.309452903,0.0747484192,0.0302282218,-0.0931055546
104278.125287,-0.195874363,0.674100308,-0.337366161,0.0755931735,0.0100403959,-0.132176265
104278.135314,-0.156505499,0.576890372,-0.346075537,0.0905883685,0.0113253715,-0.147239104
104278.145342,-0.0637393173,0.423821332,-0.328376214,0.11478132,0.00779215619,-0.144349307
104278.155370,-0.0382212196,0.302204247,-0.293922156,0.0874828547,-0.0135674616,-0.142802268
104278.165398,-0.0698579372,0.245736656,-0.168448687,0.0468797646,-0.0522216447,-0.146135479
104278.175425,-0.111400903,0.219636877,-0.135657594,0.00565536553,-0.0484250411,-0.157318637
104278.185453,-0.00697112679,0.163138598,0.0501291818,0.0186414719,-0.0147839934,-0.159509614
104278.195481,0.054300193,0.150411657,0.00182487734,0.0298041105,0.0165379774,-0.170183823
104278.205509,0.00757556809,0.138549662,-0.0834007523,0.00146568054,0.0155651243,-0.180497721
104278.215536,0.119812274,0.0177156894,-0.270620191,0.0017892546,0.00405201223,-0.170752943
104278.225564,0.274544488,-0.115189683,-0.443702383,0.0356188565,0.00748482719,-0.159388706
104278.235592,0.267447972,-0.241510124,-0.530398085,0.0618613772,0.00975250825,-0.131517664
104278.245620,0.305170659,-0.389733185,-0.523474424,0.0627311692,-0.0186863225,-0.0919300392
104278.255647,0.344611164,-0.521463376,-0.574901828,0.0355253778,-0.0758292377,-0.0508774072
104278.265675,0.28355345,-0.547050091,-0.533942042,0.0171303935,-0.116763882,-0.0123987263
104278.275703,0.231824578,-0.533082064,-0.325678061,0.0289803948,-0.0966527611,0.0206090249
104278.285731,0.166458938,-0.485173334,0.0888812295,0.0354257748,-0.0828655735,0.0368013084
104278.295758,-0.00727431099,-0.389218221,0.295436652,-0.00206886698,-0.0729900375,0.0359152779
104278.305786,-0.0510151891,-0.279143105,0.514661002,-0.00588224689,-0.0499443747,0.0331399962
104278.315814,-0.124531484,-0.130797148,0.632218291,-0.0152299423,0.00407571439,0.0231968183
104278.325842,-0.11315309,-0.0425305433,0.728196786,-0.0239800252,0.0558116138,0.0124991667
104278.335869,-0.00627599326,-0.0500333202,0.465818938,-0.0107917842,0.0743530765,0.0153479502
104278.345897,0.169134514,-0.0885479059,0.0329693727,0.0173530336,0.0670988932,0.0411779508
104278.355925,0.353831522,-0.218189162,-0.253757903,0.0466898829,0.0399833843,0.108866453
104278.365953,0.484305356,-0.383102953,-0.315145561,0.04855223,0.00290312478,0.196008012
104278.375980,0.378200568,-0.40948944,-0.0450157843,0.0213706791,-0.00824060664,0.27466768
104278.386008,0.0625216486,-0.34975861,0.470769838,-0.0277145747,-0.00819240324,0.333689451
104278.396036,-0.28824422,-0.169679983,0.95316874,-0.110962056,-0.00560620707,0.361628652
104278.406064,-0.501580425,0.0183342597,1.26059627,-0.177291825,0.000918537204,0.354257822
104278.416091,-0.517975863,0.241639888,1.06731534,-0.195857257,-0.0052520074,0.315281928
104278.426119,-0.494460584,0.45506505,0.684329587,-0.166945979,-0.0265618227,0.244696453
104278.436147,-0.430590534,0.641922816,0.229882522,-0.0957538113,-0.0448095351,0.13914606
104278.446175,-0.39278501,0.847921628,-0.0153735102,0.00674513122,-0.0469677597,0.0123803895
104278.456202,-0.278887577,1.02305257,-0.147231712,0.100142725,-0.0270630307,-0.125656039
104278.466230,-0.0813911843,1.1087201,-0.135834119,0.16570282,0.000755019137,-0.241092622
104278.476258,0.270009585,0.976067385,-0.231928933,0.205924273,0.0261882078,-0.305952579
104278.486286,0.733671564,0.698034725,-0.381755922,0.225537658,0.051634714,-0.298824638
104278.496313,1.20626533,0.397373617,-0.445434906,0.207641751,0.0750843808,-0.233820334
104278.506341,1.51246062,0.153418584,-0.395923564,0.160063311,0.0809337422,-0.124527127
104278.516369,1.57882986,-0.0488965712,-0.399892468,0.100345656,0.0673942342,0.0159330461
104278.526397,1.45007737,-0.198761554,-0.35950142,0.0179442558,0.0434923656,0.14545323
104278.536424,1.03734815,-0.197504686,-0.152497669,-0.0575422458,0.00400860328,0.24072887
104278.546452,0.552595048,0.0418612658,-0.0145189392,-0.11406038,-0.0567367673,0.280899733
104278.556480,0.0544544611,0.377288714,0.0923953751,-0.151645839,-0.0812506303,0.264548451
104278.566508,-0.309579452,0.797762489,0.364155968,-0.143776745,-0.0886821821,0.189192176
104278.576535,-0.553115455,1.26923551,0.465797311,-0.111482441,-0.0915701166,0.0635325238
104278.586563,-0.632156624,1.7073747,0.621256168,-0.0725909695,-0.0719269067,-0.101945654
104278.596591,-0.588262245,1.9832797,0.759680304,0.000905884139,-0.0383098237,-0.283168167
104278.606619,-0.445060191,2.05519255,0.760089469,0.0754879788,0.03648692,-0.444693416
104278.616646,-0.173506683,1.83114721,0.862370863,0.13454996,0.105001263,-0.578138828
104278.626674,0.176190588,1.49575294,0.621470687,0.168931901,0.143033609,-0.676687777
104278.636702,0.512008113,1.05499684,0.16666005,0.194233522,0.158217877,-0.722347915
104278.646730,0.816340787,0.416472285,-0.278297301,0.206982613,0.170394912,-0.707253933
104278.656757,1.03864652,-0.247027426,-0.666954089,0.230094597,0.156655133,-0.627485573
104278.666785,1.14819184,-0.807675542,-0.922341055,0.232493564,0.123170681,-0.502603829
104278.676813,1.0536756,-1.21527303,-0.726885703,0.166357428,0.0855109245,-0.359367341
104278.686841,0.791183111,-1.46752769,-0.287810395,0.0509133898,0.0497470647,-0.20717141
104278.696868,0.526355276,-1.53194566,0.09249942,-0.074900724,0.033966504,-0.061649628
104278.706896,0.326452918,-1.46781469,0.277349207,-0.174186572,0.0434641354,0.0674572214
104278.716924,0.136103465,-1.26951242,0.317246333,-0.242231399,0.0515433662,0.155288279
104278.726952,-0.0475892652,-0.973593688,0.173701785,-0.274880677,0.0541716404,0.212419733
104278.736980,-0.103915918,-0.764587365,0.00370177713,-0.287810057,0.0598495007,0.239826858
104278.747007,-0.0989928189,-0.492376982,-0.155189977,-0.270001501,0.0541306287,0.23722975
104278.757035,-0.109415045,-0.237087193,-0.289749839,-0.212743819,0.0628487468,0.226107582
104278.767063,0.0367927007,-0.0748731624,-0.332922041,-0.145869717,0.0822749138,0.212875932
104278.777091,0.111900606,0.0380170114,-0.302449161,-0.104646109,0.0816701129,0.20368591
104278.787118,0.162276118,0.100803869,-0.320901933,-0.0853760019,0.0458620451,0.198141471
104278.797146,0.178086321,0.125362702,-0.344578577,-0.0477029309,-0.00217365916,0.199618459
104278.807174,0.149647888,0.124662152,-0.233093301,0.00578159932,-0.0181555543,0.212675139
104278.817202,0.0214011182,0.12846929,0.185408005,0.0292344615,-0.00810292084,0.229095384
104278.827229,-0.161299564,0.0924776466,0.726434452,0.00952254143,-0.0001065135,0.247728989
104278.837257,-0.321956557,0.129525667,1.10747609,-0.0623487197,0.0154849626,0.250187099
104278.847285,-0.566446902,0.221537888,1.44120711,-0.117824495,0.0316671282,0.238993034
104278.857313,-0.701088925,0.338430283,1.45409523,-0.162914485,0.0664402917,0.200645104
104278.867340,-0.778967846,0.492362369,1.38183897,-0.175112292,0.100734614,0.148909211
104278.877368,-0.703135117,0.500764871,0.945159621,-0.141339153,0.112961456,0.0962931365
104278.887396,-0.550585864,0.483999468,0.401367801,-0.102565378,0.109702274,0.0427630618
104278.897424,-0.386508451,0.425591995,0.0076584058,-0.0448600091,0.0817691758,-0.00246966258
104278.907451,-0.207792052,0.360733154,-0.322954774,-0.0146174151,0.0587458871,-0.0515541174
104278.917479,-0.0806084547,0.352481751,-0.371762352,0.0395453386,0.0261134412,-0.0945914313
104278.927507,0.0651529789,0.275794963,-0.557859508,0.115971677,0.0057895286,-0.124370635
104278.937535,0.183646549,0.171889329,-0.577002016,0.183887348,-0.0109542981,-0.122681126
104278.947563,0.307145174,0.000393821623,-0.431919591,0.17851308,-0.0210157204,-0.0960785449
104278.957590,0.361854632,-0.1096471,-0.0725239689,0.147466749,-0.0465604924,-0.0502790958
104278.967618,0.36404827,-0.186481188,-0.0379144279,0.0949100628,-0.0486990102,0.0038911989
104278.977646,0.342218204,-0.121205728,0.425461209,-0.00177812995,0.00293435343,0.0489558801
104278.987674,0.366779156,-0.0333000659,0.667375529,-0.0340686925,0.00961143058,0.0890510976
104278.997701,0.379672906,0.189498051,0.291216404,-0.11044202,0.0277470257,0.0945537239
104279.007729,0.42489035,0.308971695,0.337781756,-0.123042502,0.0179806799,0.0878574699
104279.017757,0.461700689,0.4301311,-0.103212537,-0.118153475,0.0126224002,0.0488285795
104279.027785,0.361126245,0.629647126,-0.226983294,-0.0751319677,0.0209556986,-0.0130092204
104279.037813,0.25740205,0.722261258,-0.326233357,-0.0033035886,0.0300091133,-0.0882339329
104279.047840,0.181888307,0.765710378,-0.384382179,0.0299108233,0.0443606228,-0.172963738
104279.057868,0.131503086,0.716508248,-0.319512524,0.0799223259,0.0471284464,-0.224487379
104279.067896,0.286356981,0.464374584,-0.527085015,0.112503707,0.0583952181,-0.240394175
104279.077924,0.456475757,0.207740979,-0.435364763,0.124454111,0.062085025,-0.232810557
104279.087951,0.549681316,0.0227266495,-0.477435141,0.124735072,0.0435334481,-0.203556269
104279.097979,0.603944164,-0.129306325,-0.493974188,0.0982818902,0.0361953713,-0.159919307
104279.108007,0.577510988,-0.301682415,-0.378558003,0.0807921141,0.0479854532,-0.0974969417
104279.118035,0.44574821,-0.410216878,-0.23090602,0.0500999801,0.0832979009,-0.0381838158
104279.128062,0.223600538,-0.453498824,0.039614802,0.0125147896,0.104736879,0.0124918781
104279.138090,-0.0166693861,-0.395178152,0.105624859,-0.0514514111,0.114498168,0.0365338326
104279.148118,-0.244644111,-0.304876535,0.175960378,-0.104550846,0.134598628,0.0363327637
104279.158146,-0.419592609,-0.193190184,0.201460145,-0.119489849,0.166811958,0.0166546647
104279.168174,-0.448366429,-0.0798404294,-0.0581610971,-0.110567458,0.182005569,-0.00673374906
104279.178201,-0.264489707,-0.126128426,-0.543067597,-0.0828111917,0.171438947,-0.0246706717
104279.188229,-0.0470846813,-0.130856623,-1.01352296,-0.0519249216,0.135880142,-0.036610689
104279.198257,0.10440993,-0.158057934,-1.41679981,0.00448935293,0.0689703599,-0.0262190327
104279.208285,0.191526908,-0.161728147,-1.64248021,0.0623547807,0.0128687434,-0.00313821435
104279.218312,0.156432232,-0.147794168,-1.38442841,0.086528562,-0.0252930243,0.0314163007
104279.228340,0.0414044619,-0.14347835,-1.07946171,0.0774700865,-0.0842495486,0.0706526488
104279.238368,-0.125074003,-0.126336662,-0.770692696,0.0393008627,-0.151653096,0.112913556
104279.248396,-0.195072088,-0.122318804,-0.332935485,0.0194131751,-0.196534291,0.154475376
104279.258424,-0.307616481,-0.0886839534,0.165354228,0.00161793316,-0.208039403,0.182598889
104279.268451,-0.444704254,0.00020735914,0.726391198,-0.0315386914,-0.211663172,0.19857946
104279.278479,-0.529867486,0.0920958076,1.04565355,-0.0894025192,-0.229632318,0.194288835
104279.288507,-0.556563221,0.239821148,1.20576987,-0.15360041,-0.242840797,0.157419503
104279.298535,-0.56196603,0.433799121,1.26445996,-0.140325084,-0.236687571,0.0990075916
104279.308562,-0.529074837,0.671713266,1.07688923,-0.0751921609,-0.201710135,0.01745601
104279.318590,-0.446642967,0.799596134,1.04729839,-0.00986508466,-0.139927998,-0.0658553913
104279.328618,-0.313839776,0.827749193,1.16238608,0.0245552063,-0.0650281832,-0.151773497
104279.338646,-0.130660224,0.720663468,1.21242992,0.0475883521,0.00676184893,-0.213028327
104279.348674,0.109276714,0.520927223,1.01820615,0.0454245359,0.0948432386,-0.24583368
104279.358701,0.397647319,0.168845724,0.961527403,0.0286871009,0.18116188,-0.235910207
104279.368729,0.731044795,-0.219307937,0.560693855,0.035103187,0.213742182,-0.185336247
104279.378757,0.953015376,-0.590340951,-0.178089207,0.0277185105,0.222293332,-0.103462152
104279.388785,1.02996513,-0.92141488,-0.519203907,0.0435043946,0.215428233,0.00899860915
104279.398812,0.968378657,-1.1792773,-0.799552295,0.0267214216,0.198865771,0.136084393
104279.408840,0.790049138,-1.24619336,-0.681339757,-0.0379683599,0.150985867,0.257422268
104279.418868,0.534072646,-1.20983055,-0.724161831,-0.0939831585,0.059698835,0.351454496
104279.428896,0.171158385,-0.953214917,-0.903856719,-0.105890147,-0.0305618215,0.420154989
104279.438924,-0.194027767,-0.661669573,-0.757205438,-0.0831683278,-0.0905923992,0.460782826
104279.448951,-0.450189188,-0.287263867,-0.440155504,-0.0607106909,-0.160459369,0.459853411
104279.458979,-0.599956994,0.164311149,-0.230551215,-0.0521041527,-0.25397253,0.425093532
104279.469007,-0.640534577,0.538088932,-0.0116851771,-0.0428051949,-0.288812011,0.359778225
104279.479035,-0.684254622,0.832835264,0.547764815,-0.0209643412,-0.260578245,0.267416596
104279.489063,-0.682934114,1.13616603,0.94536771,0.0353718996,-0.231657654,0.148701906
104279.499090,-0.560429614,1.33784464,0.919475144,0.0736836046,-0.209325448,0.0168802347
104279.509118,-0.236136943,1.35804732,0.89183252,0.135817811,-0.214343637,-0.0999822021
104279.519146,0.154191322,1.27361475,0.639193391,0.203604594,-0.21088925,-0.196390763
104279.529174,0.450326185,1.13189464,0.731995009,0.245901972,-0.155113608,-0.251140833
104279.539201,0.72865432,0.789012197,0.980523195,0.284647256,-0.111208998,-0.258155048
104279.549229,1.01779633,0.565900045,0.906620923,0.263454348,-0.0591252856,-0.233659312
104279.559257,1.190023,0.374959686,1.32724697,0.187800318,0.0185977351,-0.175112903
104279.569285,1.26124173,0.137475018,1.66509477,0.0768410489,0.116332553,-0.102001674
104279.579313,1.21095911,-0.0295911284,1.85074536,-0.0461115092,0.215559259,-0.0182702951
104279.589340,1.03392139,-0.168873635,1.68538704,-0.132849067,0.306475848,0.0594364814
104279.599368,0.780557964,-0.252659295,1.38433956,-0.18577832,0.386550456,0.115120515
104279.609396,0.508583984,-0.260468653,0.919987185,-0.204392225,0.421323329,0.142926589
104279.619424,0.258304863,-0.192221046,0.242570154,-0.214273348,0.418275088,0.142531365
104279.629452,0.0949857295,-0.144437697,-0.381086645,-0.19491297,0.385807693,0.119585574
104279.639479,0.00877179213,-0.074000179,-1.03671796,-0.13648507,0.327556103,0.082186006
104279.649507,-0.0566633054,0.0185116621,-1.57213534,-0.0525025614,0.250852019,0.0485793091
104279.659535,-0.0132665463,0.0705934393,-1.87737442,0.0258082245,0.154932663,0.021988444
104279.669563,0.103332602,0.129038029,-1.98514389,0.0908745751,0.0402588248,0.014001091
104279.679591,0.255705567,0.25343101,-2.00753692,0.141809925,-0.0656396449,0.0163430758
104279.689618,0.32119149,0.375405969,-1.64078451,0.169651419,-0.113383733,0.0273901336
104279.699646,0.240549353,0.486494354,-0.91166827,0.172417372,-0.127532855,0.0444452837
104279.709674,0.118225242,0.629913668,-0.281007145,0.119284116,-0.131935582,0.0413927697
104279.719702,-0.090767162,0.816758428,0.292900412,0.0280697811,-0.118438944,0.0066196071
104279.729729,-0.259543099,1.05439113,0.618356355,-0.0243172608,-0.084056206,-0.0540290922
104279.739757,-0.264532578,1.21523095,0.647668958,-0.0430161171,-0.0196673628,-0.126598105
104279.749785,-0.212940082,1.24922338,0.626771716,-0.0371078923,0.0400460362,-0.201315209
104279.759813,-0.0721846266,1.15898343,0.237218272,-0.0201938879,0.0550569445,-0.274199009
104279.769841,0.120627728,1.06021691,-0.218310158,0.0145782065,0.045751594,-0.332820773
104279.779868,0.30885216,0.863961785,-0.547283169,0.0647542924,0.0286314599,-0.354404092
104279.789896,0.432364449,0.561671906,-0.669890727,0.104535528,0.0355535522,-0.337434173
104279.799924,0.434857398,0.259478619,-0.449627097,0.113349795,0.0327785388,-0.298129916
104279.809952,0.37452725,-0.000185293439,-0.226038706,0.0835455582,0.0113507416,-0.237165093
104279.819980,0.320096827,-0.287026697,-0.113552145,0.0134692667,-0.0110810641,-0.160450608
104279.830007,0.257563232,-0.482962088,0.121480015,-0.0379798114,-0.0178449601,-0.0733335465
104279.840035,0.217369224,-0.578956511,0.258988205,-0.0718946308,-0.00978437159,0.00675436342
104279.850063,0.0935235937,-0.55415247,0.455267733,-0.112840198,0.016215805,0.066027008
104279.860091,-0.114042687,-0.521883939,0.653395519,-0.141048133,0.0308088604,0.0942426696
104279.870119,-0.35106677,-0.437118767,0.676924864,-0.176197603,0.0362646133,0.0832118541
104279.880146,-0.541138017,-0.310725115,0.608372136,-0.172901943,0.0342587233,0.0473156385
104279.890174,-0.585020414,-0.18626243,0.291361366,-0.113357916,0.0336730927,0.000184078701
104279.900202,-0.458749767,-0.0899886062,-0.0746136347,-0.0427346192,0.0438658074,-0.049564302
104279.910231,-0.241105726,-0.040715749,-0.203480253,0.0133978939,0.0472474918,-0.0878693461
104279.920259,-0.050847066,-0.0834719178,-0.362530413,0.0468815416,0.0178652052,-0.109335504
104279.930286,0.113561863,-0.135589205,-0.500187656,0.0318149738,-0.0130548924,-0.108189285
104279.940314,0.264954658,-0.272254806,-0.504089924,0.0621558353,-0.0528936535,-0.0709106177
104279.950342,0.413102954,-0.435965067,-0.676401132,0.0926948339,-0.0843983144,-0.0207260102
104279.960370,0.395880017,-0.411802539,-0.4726444,0.0936828628,-0.121766724,0.0226736609
104279.970398,0.285062722,-0.366098919,-0.301549582,0.0829053149,-0.161438242,0.0587509684
104279.980425,0.167927988,-0.229847743,-0.0430173039,0.0496291257,-0.171064764,0.0952834114
104279.990453,0.0680189765,-0.107381347,0.427130019,0.0214803107,-0.165403694,0.124120653
104280.000481,-0.0111438733,0.0504673277,0.638513008,-0.013821221,-0.159097597,0.13691102
104280.010509,-0.107047494,0.262793297,0.811999689,-0.0470532104,-0.160688296,0.128634721
104280.020537,-0.176332116,0.450099098,0.851834856,-0.0781482831,-0.151740074,0.0980776027
104280.030564,-0.191373928,0.654439329,0.938612391,-0.0974777713,-0.114380181,0.0505034253
104280.040592,-0.110165169,0.772819771,0.898961349,-0.0637115538,-0.0797391087,-0.00342451874
104280.050620,0.0339716313,0.87513609,0.625953386,-0.0466446802,-0.0246455017,-0.0603282824
104280.060648,0.228564864,0.799716254,0.570526098,-0.0175211504,0.00864188094,-0.0941341817
104280.070675,0.433064633,0.621699382,0.196180744,0.00787209067,0.024780903,-0.11709249
104280.080703,0.501361449,0.473242512,0.078908117,0.025210334,0.0418051593,-0.117061064
104280.090731,0.510851345,0.202701962,0.107553781,0.0389589034,0.0742115751,-0.101461872
104280.100759,0.46796333,-0.0229842775,0.195362998,0.0277954638,0.110287815,-0.0745050907
104280.110787,0.437266359,-0.226223415,0.19715748,0.000630688912,0.12053486,-0.0318585597
104280.120815,0.469056093,-0.394636008,-0.0552589459,-0.0393319055,0.109798059,0.0125453928
104280.130842,0.456544841,-0.441276179,-0.273633986,-0.0593852438,0.10708297,0.0488791652
104280.140869,0.396591344,-0.365791753,-0.462493008,-0.0336929299,0.126711264,0.0806807727
104280.150898,0.303930906,-0.281495221,-0.5704618,-0.0221430659,0.150895953,0.107937157
104280.160926,0.216269683,-0.240589794,-0.61228025,-0.0344271623,0.131230906,0.145968691
104280.170954,0.175672209,-0.225104787,-0.841950006,-0.0445306636,0.0594222359,0.183700368
104280.180982,0.108748334,-0.14431977,-1.14352823,-0.0524234734,-0.00956801511,0.212281138
104280.191009,0.0475856256,-0.0230325005,-1.08291273,-0.0381611809,-0.0668595284,0.226195887
104280.201037,-0.00173440431,0.182726073,-0.992367947,-0.00920915883,-0.115953572,0.218775794
104280.211065,-0.0528899974,0.43988677,-0.816156809,0.0172954202,-0.157559618,0.191414744
104280.221093,-0.149036332,0.649940411,-0.541812044,0.0367396921,-0.190047249,0.154459924
104280.231121,-0.169391119,0.81144717,-0.216260824,0.0506246127,-0.226134151,0.109344371
104280.241148,-0.148433891,0.949897463,0.00130348381,0.0664805397,-0.267455488,0.0640237629
104280.251176,-0.127655918,1.09733186,0.14409166,0.0717024654,-0.285312504,0.0114708077
104280.261204,-0.0874738287,1.19601888,0.490400421,0.079141736,-0.27822718,-0.0367643684
104280.271232,-0.0645784442,1.26021721,0.800413881,0.0686448887,-0.240664616,-0.0849798322
104280.281259,-0.0930166762,1.22382488,1.22585638,0.0452452935,-0.196768001,-0.128961936
104280.291287,-0.0918799181,1.12159229,1.47113463,0.0130210463,-0.157311946,-0.173920885
104280.301315,-0.0303736114,1.00073289,1.49190854,-0.0248190109,-0.119491048,-0.21542573
104280.311343,0.0541142511,0.890430398,1.47028415,-0.0506474115,-0.0703477412,-0.257994473
104280.321371,0.126151852,0.74965853,1.35057699,-0.0477403067,-0.019825181,-0.295666754
104280.331399,0.240659316,0.495971646,1.04167821,-0.0221441314,0.0296915062,-0.313311785
104280.341426,0.394923666,0.211645732,0.720364192,0.0126015982,0.065809831,-0.318817616
104280.351453,0.483984052,-0.0526534396,0.421329808,0.0407440215,0.0710850209,-0.312159717
104280.361482,0.532042638,-0.322582726,0.125559978,0.0689231902,0.065320611,-0.288900197
104280.371510,0.550786465,-0.544101178,0.00704641138,0.0892630816,0.0741670951,-0.245286152
104280.381538,0.577277837,-0.755101744,-0.0239472773,0.0862755477,0.0952079371,-0.188945383
104280.391566,0.598453604,-0.877088393,-0.0647889908,0.0717211068,0.120458432,-0.118160695
104280.401593,0.600214549,-0.94478728,-0.131543729,0.0436908081,0.138632372,-0.0434084199
104280.411621,0.543829996,-0.974134225,-0.144175831,-0.000679852674,0.150524184,0.0424356461
104280.421649,0.492878502,-0.953430752,-0.114485626,-0.0481746681,0.134543076,0.121652707
104280.431677,0.421014129,-0.817841401,-0.310998379,-0.101955079,0.106608927,0.186769128
104280.441705,0.327542357,-0.698431908,-0.459614823,-0.0995694175,0.0565843731,0.254778266
104280.451732,0.310932328,-0.624948739,-0.836759452,-0.0897625908,-0.00935549475,0.306908339
104280.461760,0.268601015,-0.471858656,-0.940394014,-0.0705012828,-0.100286998,0.342624515
104280.471788,0.20465717,-0.244935422,-0.957761913,-0.0431801751,-0.192337036,0.35615924
104280.481816,0.0573310121,0.10121961,-0.613831571,-0.00628767069,-0.239253148,0.344882607
104280.491843,-0.127067588,0.433667457,0.0775894356,0.0144828549,-0.24452354,0.302162319
104280.501872,-0.306708901,0.787873986,0.784244252,-0.00651617022,-0.213292658,0.217285216
104280.511899,-0.446398965,1.09270478,1.31514152,-0.011452605,-0.174827814,0.108722523
104280.521927,-0.443508505,1.28669708,1.3581787,-0.00416007126,-0.105236478,-0.00657770131
104280.531955,-0.269841206,1.35859911,1.40923201,0.0100790523,-0.0180685595,-0.114893526
104280.541983,-0.0424045697,1.31009081,1.28396838,0.0135688577,0.0766630098,-0.219398886
104280.552011,0.118739073,1.18146049,1.07311672,0.0052121249,0.185136214,-0.296959728
104280.562039,0.34333771,0.851245804,0.801592861,-0.00751964888,0.28445214,-0.33768478
104280.572066,0.647571051,0.436948963,0.274606046,-0.00784615334,0.359469146,-0.331472695
104280.582094,1.02347511,0.0118527887,-0.425158426,0.0251280423,0.411839396,-0.256653309
104280.592122,1.3940359,-0.492977725,-1.15960317,0.0563725159,0.413104415,-0.130455166
104280.602150,1.5496669,-0.924785526,-1.69180859,0.0290604662,0.353095651,0.0271605551
104280.612178,1.44481975,-1.2340657,-2.00766727,-0.00879583601,0.221352816,0.196774349
104280.622205,1.07305878,-1.36097096,-2.18679634,-0.0546128601,0.110591151,0.343769401
104280.632233,0.456127273,-1.18135279,-1.66620303,-0.0713516325,0.0422158204,0.454299659
104280.642261,-0.178048071,-0.803484812,-1.0648282,-0.0870403126,-0.00963938795,0.516438603
104280.652289,-0.73515698,-0.336736923,-0.540206947,-0.122716546,-0.0734298155,0.523017943
104280.662317,-1.1288419,0.152456461,-0.221342073,-0.157034308,-0.145562336,0.475799888
104280.672345,-1.32314465,0.623708968,-0.0194692551,-0.163213104,-0.194340006,0.403055638
104280.682372,-1.18902281,1.04547337,0.168850254,-0.131708711,-0.225336537,0.296383262
104280.692400,-1.07632465,1.39662007,0.127802789,-0.0732938722,-0.234320432,0.174149469
104280.702428,-0.837077066,1.62449111,0.103666126,-0.00233474094,-0.232665822,0.0435746796
104280.712456,-0.578153962,1.72998299,0.121343237,0.0542537048,-0.242708862,-0.0831542388
104280.722484,-0.301701083,1.76567185,0.179818222,0.0989418104,-0.230335549,-0.20160684
104280.732511,-0.058650931,1.66012268,0.37948447,0.139027178,-0.199343279,-0.282731771
104280.742539,0.238705643,1.38705583,0.512661353,0.162895769,-0.152138487,-0.333199471
104280.752566,0.490046859,1.09956195,0.603112024,0.170751289,-0.0847314745,-0.346342713
104280.762595,0.643081485,0.756628223,0.8128905,0.1532695,-0.0127257248,-0.328653187
104280.772623,0.714172279,0.440938325,0.919483912,0.0944732875,0.0381869897,-0.288669288
104280.782651,0.697501642,0.174931619,0.878075212,0.0210443512,0.0820745528,-0.240562499
104280.792678,0.594217866,-0.0371983885,0.834949772,-0.0452164263,0.114757665,-0.192808822
104280.802706,0.488159803,-0.189271549,0.664301529,-0.0890837535,0.148860767,-0.151844889
104280.812734,0.395886081,-0.293853475,0.447659012,-0.0992628857,0.169776171,-0.117942572
104280.822762,0.331932007,-0.35307621,0.0911865838,-0.0860610679,0.158560529,-0.0834876671
104280.832790,0.3113431,-0.407483507,-0.28538346,-0.059462741,0.129365638,-0.0469267219
104280.842818,0.3380704,-0.453920703,-0.524385109,-0.0389923528,0.0743388683,-0.0166561678
104280.852845,0.336041123,-0.375794676,-0.686230452,-0.00728316046,0.00810791738,0.0106050139
104280.862873,0.303397146,-0.260603093,-0.767486594,0.0288934857,-0.0492099673,0.0335960835
104280.872901,0.267017326,-0.194230048,-0.564576834,0.0717059299,-0.0776498616,0.0657998249
104280.882929,0.201781194,-0.158046097,-0.132203069,0.093222402,-0.085657455,0.0890327096
104280.892956,0.0301239018,-0.00445054967,0.355978507,0.0681324974,-0.0911656693,0.0960168466
104280.902985,-0.186887101,0.168708507,0.786632608,0.0295302477,-0.0851035193,0.0840278342
104280.913011,-0.372435684,0.357157634,1.10652215,0.0158021841,-0.0494792126,0.0550747439
104280.923039,-0.484548955,0.525833408,1.25390817,0.00477210851,-0.00232382398,0.0117589124
104280.933067,-0.513793316,0.622816403,1.31645903,-0.00408982625,0.0331524089,-0.0369867869
104280.943095,-0.483216355,0.687710754,1.15985217,-0.0265799556,0.0772407725,-0.0963726193
104280.953123,-0.377641728,0.651106386,1.05603816,-0.0267067216,0.126969188,-0.141490296
104280.963151,-0.214034088,0.517443181,0.692230569,-0.0260406658,0.173837349,-0.176042154
104280.973178,-0.0304566775,0.327458661,0.308104411,0.00687121227,0.190871194,-0.184556007
104280.983206,0.125964741,0.0429185198,-0.214977214,0.0381726734,0.169301197,-0.1722783
104280.993234,0.295625891,-0.218396229,-0.689364658,0.0752049983,0.103834569,-0.130559355
104281.003262,0.41308794,-0.446292254,-1.06276192,0.119800158,0.0134085333,-0.0702174455
104281.013290,0.43653567,-0.54707844,-1.20771516,0.140756845,-0.0781043395,-0.00179045182
104281.023318,0.355909643,-0.572395983,-0.939020972,0.124583729,-0.1293156,0.0647427663
104281.033345,0.274113221,-0.464350181,-0.327176775,0.113863707,-0.156278238,0.116097033
104281.043373,0.159984938,-0.200601775,0.094675595,0.0770793259,-0.165407285,0.139529124
104281.053401,0.0998781412,0.104136812,0.440789126,0.0364445485,-0.132906601,0.139990374
104281.063429,0.0182131929,0.338896001,0.772569596,0.0176650025,-0.0611288175,0.132389724
104281.073457,0.0302156786,0.502551755,0.896874021,-0.0171920471,0.030206155,0.116909295
104281.083485,0.0779847551,0.672894293,0.836633779,-0.0404526293,0.0941308066,0.0863412693
104281.093512,0.0962294003,0.770200383,0.368974182,-0.0487443805,0.135897696,0.0456897169
104281.103540,0.173002259,0.825916571,0.0414747507,-0.0541596524,0.184280947,0.00557505246
104281.113568,0.246978016,0.748747845,-0.172942492,-0.0488698147,0.219548389,-0.0157265067
104281.123596,0.399412319,0.517744063,-0.624661592,-0.0260550473,0.227528274,-0.00612980686
104281.133624,0.555608405,0.243102508,-1.10243108,0.00497983536,0.200258583,0.0268353336
104281.143652,0.589538695,0.00185746443,-1.50059921,0.0476340875,0.135292098,0.0765187293
104281.153679,0.49973224,-0.0951207084,-1.75805071,0.078784287,0.0381413102,0.119879253
104281.163707,0.31821379,-0.0466978922,-1.68356216,0.095938772,-0.0591426305,0.157507583
104281.173735,0.0504002812,0.0526959635,-1.28991238,0.104490444,-0.122739986,0.188067898
104281.183763,-0.242937654,0.211107533,-0.599207418,0.0765450969,-0.142516091,0.198292568
104281.193791,-0.486753114,0.472378881,0.163387312,0.0391588435,-0.150077328,0.191499919
104281.203819,-0.63211695,0.733278034,0.600129209,-0.043850556,-0.156008452,0.155623406
104281.213846,-0.700719727,0.988280823,0.922876477,-0.104519494,-0.163920179,0.0946391448
104281.223874,-0.624638723,1.17832555,0.928452231,-0.0934202373,-0.152324513,0.0216738619
104281.233902,-0.463216829,1.35825278,0.729260031,-0.0513947569,-0.137277648,-0.0723176152
104281.243930,-0.351425301,1.47051547,0.476817886,-0.0088877771,-0.137448624,-0.17611751
104281.253958,-0.124710869,1.46432729,0.287238148,0.0415658094,-0.14373368,-0.279651076
104281.263986,0.103439679,1.38466411,0.206001881,0.0821481198,-0.122404426,-0.365278363
104281.274013,0.366537895,1.19200877,0.297088511,0.122478232,-0.0834618211,-0.432785243
104281.284041,0.554881698,0.980499522,0.296529124,0.142854616,-0.0393902324,-0.48187983
104281.294069,0.661264353,0.696613022,0.325488676,0.138003945,0.0032363236,-0.499341875
104281.304097,0.795336066,0.379018168,0.301301745,0.109854847,0.047268495,-0.488992333
104281.314125,0.877102787,0.0498150013,0.215716634,0.0916422904,0.0856571645,-0.449648917
104281.324153,0.939170975,-0.263901112,0.0404378089,0.0732595548,0.111273311,-0.388967186
104281.334181,0.88740009,-0.563836683,-0.156261406,0.0395737626,0.12015602,-0.305283755
104281.344208,0.796940067,-0.819915869,-0.252135271,0.00472044339,0.106123023,-0.209507704
104281.354236,0.647392991,-0.985124697,-0.3813678,-0.0359220579,0.0858872607,-0.117906943
104281.364264,0.46597822,-1.03154406,-0.410460039,-0.0619563237,0.0606189221,-0.0342863426
104281.374292,0.279715808,-0.99509518,-0.434983655,-0.0664325655,0.0325302966,0.0407271832
104281.384320,0.0986691125,-0.914739348,-0.405575774,-0.0712377056,-0.00110649306,0.103982583
104281.394348,-0.111409735,-0.756963446,-0.215263045,-0.110242099,-0.0337888077,0.140820488
104281.404375,-0.325106947,-0.462341909,0.126685767,-0.143945187,-0.0508966856,0.153663054
104281.414403,-0.507893189,-0.225660082,0.365047949,-0.141148612,-0.0404355228,0.146372378
104281.424431,-0.576986635,-0.0465558533,0.459342435,-0.113062114,-0.00706025632,0.136875808
104281.434459,-0.463091486,0.0130053198,0.364795435,-0.0867381021,0.00410797633,0.140488133
104281.444487,-0.26469429,-0.0350529009,0.194327225,-0.099062942,-0.00208334066,0.149855793
104281.454515,-0.0802244055,-0.0866108004,0.100699678,-0.110665269,-0.0256528482,0.157602936
104281.464543,-0.0116576201,-0.0358497504,-0.00761865831,-0.0990877151,-0.029037727,0.14639236
104281.474570,-0.0749913043,0.0461417196,0.109440618,-0.0731197596,-0.000440969248,0.121228144
104281.484598,-0.175187987,0.12954744,0.220760474,-0.019565722,0.0225767307,0.0828408077
104281.494626,-0.304984525,0.230554576,0.169256496,0.0168029387,0.0275379345,0.0352570489
104281.504654,-0.445970511,0.215649122,0.249355285,0.0159440693,0.0241413396,-0.00954930577
104281.514682,-0.484604266,0.128411714,0.326170813,0.0188538376,0.0167172458,-0.043199677
104281.524710,-0.442808247,0.0344783159,0.258536954,0.0390674956,0.00732906954,-0.0632538125
104281.534737,-0.317053587,-0.0525682455,0.0689355891,0.0604633316,-0.0109743038,-0.0719112232
104281.544765,-0.15500304,-0.193124863,-0.102055768,0.0819300115,-0.031127777,-0.06134459
104281.554793,0.0251397887,-0.305666662,-0.0958528221,0.0789608508,-0.0502599254,-0.0351143181
104281.564821,0.187288613,-0.379276527,-0.0970855787,0.081513226,-0.0912419781,0.00774419727
104281.574849,0.314658691,-0.413722109,-0.174158297,0.0663955212,-0.106926665,0.0616404526
104281.584877,0.347947432,-0.418874231,0.205723064,0.0324823,-0.0867915675,0.120911226
104281.594905,0.345676893,-0.378253467,0.568731615,-0.0151302265,-0.049093727,0.168375149
104281.604932,0.324124402,-0.236105342,0.707559071,-0.0481997654,-0.0409252793,0.201171443
104281.614960,0.370346165,-0.0592393938,0.49303077,-0.0308591239,-0.0612238944,0.223611236
104281.624988,0.391875019,0.130748048,0.227100783,-0.0265413392,-0.0581335612,0.225571588
104281.635016,0.346297034,0.292793737,0.376577643,-0.01020764,-0.0473727919,0.206121191
104281.645044,0.238291363,0.433783923,0.350232072,0.0114912642,-0.0196109358,0.165161252
104281.655072,0.135222746,0.565103196,0.387519308,0.0446926244,0.0105224652,0.118198536
104281.665099,0.0798737106,0.630616409,0.382426369,0.0868315548,0.0347987749,0.0849638805
104281.675127,0.100264364,0.585439151,0.331799759,0.0825910047,0.0687218532,0.0719074681
104281.685155,0.130966111,0.503441835,0.476107692,0.0430811457,0.104546167,0.0844584107
104281.695183,0.205005983,0.384342724,0.516267853,0.00762541918,0.134953871,0.121975161
104281.705211,0.256687344,0.268266175,0.331810865,-0.0447906516,0.155935049,0.161501527
104281.715239,0.205362377,0.241714414,0.055676879,-0.0718659461,0.132430002,0.195075199
104281.725267,0.138926313,0.25763343,-0.381256156,-0.0955499709,0.104787447,0.216100067
104281.735294,0.132353849,0.295033186,-0.587126519,-0.0934564546,0.0719099268,0.225450426
104281.745322,0.083331386,0.355003086,-0.772097302,-0.0735711679,0.0429363325,0.218754441
104281.755350,0.0313301655,0.458311777,-0.907975261,-0.0561141446,0.0121360747,0.200595409
104281.765378,0.013368696,0.579073415,-0.920237945,-0.0400997587,-0.0358743258,0.175817624
104281.775406,-0.0118726819,0.706147889,-0.983030209,-0.0212517697,-0.0883407295,0.138559729
104281.785434,-0.045119852,0.864420343,-0.925850525,0.0201603845,-0.1272908,0.0967451707
104281.795462,-0.114783148,1.02095837,-0.711340928,0.0570763238,-0.149628863,0.0512671731
104281.805489,-0.193187298,1.07176852,-0.361892115,0.0632732362,-0.167528227,0.000672705472
104281.815517,-0.213597341,1.0522186,0.00685644177,0.0674069896,-0.184802815,-0.0439035483
104281.825545,-0.239363723,0.990848774,0.311680516,0.0474734977,-0.198570028,-0.0957963094
104281.835573,-0.169904512,0.956351169,0.512474306,0.0303251389,-0.205354437,-0.155184001
104281.845601,-0.177373935,0.903922478,0.596055676,0.0270885993,-0.187287822,-0.223036289
104281.855629,-0.163969496,0.874117707,0.788555101,0.0367372297,-0.132609919,-0.306312799
104281.865657,-0.106008278,0.876746156,0.860866888,0.0592606477,-0.0664546043,-0.390495837
104281.875684,0.063082954,0.711680389,0.677478406,0.0931858569,-0.0203917753,-0.445450157
104281.885712,0.412917661,0.390187358,0.297493,0.114499405,0.00817568786,-0.456399769
104281.895740,0.779080147,-0.00283916895,-0.00527881719,0.133505329,0.0194869321,-0.416768193
104281.905768,1.08206378,-0.360996335,-0.182338096,0.143861562,0.0216784477,-0.345579505
104281.915797,1.21389692,-0.585911444,-0.157950674,0.125670567,0.0405216441,-0.252462327
104281.925825,1.16445419,-0.7989913,0.0474982488,0.0776841417,0.0639861226,-0.151080653
104281.935853,0.975084,-0.918526319,0.232735574,0.0194469355,0.0731820166,-0.0477859527
104281.945880,0.722039286,-0.969314988,0.322874694,-0.0522727892,0.085723646,0.0394818448
104281.955908,0.433382065,-0.919698139,0.413020829,-0.104587391,0.099376604,0.106742911
104281.965936,0.154861823,-0.748711166,0.330140886,-0.118955411,0.115751587,0.145687908
104281.975964,-0.0662896822,-0.509938942,0.193902277,-0.120296583,0.132009119,0.17310594
104281.985992,-0.159348814,-0.37609965,0.0777495946,-0.119897105,0.126982138,0.194881022
104281.996020,-0.119207138,-0.243344646,-0.143124861,-0.113528423,0.100890882,0.211609393
104282.006048,-0.0806552621,-0.047858022,-0.229331318,-0.121554926,0.0870003626,0.218347728
104282.016075,-0.0898751724,0.171767749,-0.0808083977,-0.126203746,0.0861633345,0.214106381
104282.026103,-0.127831174,0.327748292,-0.0525800821,-0.127783,0.0778212473,0.201176465
104282.036131,-0.211314417,0.474225093,-0.165189393,-0.100095972,0.0424107872,0.182049379
104282.046159,-0.291304685,0.598780571,-0.410014633,-0.0495268069,-0.00771469623,0.151965767
104282.056187,-0.445909392,0.659697104,-0.431812039,-0.018303372,-0.043142464,0.12200176
104282.066215,-0.579078566,0.67150503,-0.172929632,0.0164860338,-0.0819423199,0.0969818905
104282.076243,-0.685700656,0.64125573,0.0553711741,0.01801016,-0.106638074,0.0734406114
104282.086270,-0.764335582,0.573969224,0.50345338,-0.0131352413,-0.113644324,0.0495752245
104282.096298,-0.771762371,0.527573676,0.849038503,-0.017839184,-0.134285957,0.0186428744
104282.106326,-0.787961153,0.55873746,0.877361511,-0.0212357789,-0.136579201,-0.0214092024
104282.116354,-0.737299764,0.565689033,1.14179688,-0.0110941939,-0.135164529,-0.0699194819
104282.126382,-0.745040734,0.544435378,1.19852882,0.0107637001,-0.125847995,-0.134256393
104282.136410,-0.77378394,0.584524228,1.24723352,0.00477904407,-0.0917797685,-0.216308385
104282.146438,-0.692698187,0.565326045,1.40254917,0.0331129469,-0.0335074104,-0.294488937
104282.156465,-0.462032807,0.41438788,1.18567693,0.0642330498,0.0442310572,-0.358284146
104282.166493,-0.0860266712,0.164035839,0.945005891,0.0876819193,0.118230723,-0.391989917
104282.176521,0.286333272,-0.135972067,0.570135637,0.101377219,0.176211193,-0.403803706
104282.186549,0.594856018,-0.373678414,0.127691145,0.131550565,0.220830604,-0.37779209
104282.196577,0.826073442,-0.67312854,-0.15642098,0.130368128,0.283109665,-0.319794834
104282.206605,0.993189711,-1.00102588,-0.260309809,0.130539894,0.318378717,-0.216037542
104282.216633,1.07187637,-1.31049895,-0.649237231,0.0953845754,0.295490444,-0.0882851705
104282.226660,1.00005865,-1.431081,-1.00505441,0.0446066186,0.233236134,0.0403809249
104282.236688,0.814558945,-1.36028298,-1.20013917,-0.00154915918,0.189293981,0.162153691
104282.246716,0.61738919,-1.22441729,-1.14678928,-0.0285400301,0.164827779,0.275150567
104282.256744,0.421325241,-0.980779069,-1.18719552,-0.0666408092,0.129922792,0.358026803
104282.266772,0.189132652,-0.640420887,-1.15781628,-0.120625749,0.0895183831,0.409886271
104282.276800,0.0738213244,-0.240168208,-1.07197048,-0.153382629,0.033161629,0.427870333
104282.286828,-0.0586339844,0.211015763,-1.13197866,-0.136434004,-0.0206158478,0.431070119
104282.296855,-0.128743759,0.542897355,-1.1451795,-0.0997409746,-0.0667071715,0.423970401
104282.306883,-0.16085794,0.787629364,-0.914642317,-0.0896377414,-0.112074658,0.411118537
104282.316911,-0.190604003,0.997769075,-0.707888157,-0.0987417549,-0.167942986,0.386671245
104282.326939,-0.202199566,1.18088663,-0.485333201,-0.104302965,-0.228978902,0.354355901
104282.336967,-0.176608247,1.30631524,-0.12280045,-0.10583695,-0.273010552,0.311566889
104282.346995,-0.232240557,1.36980016,0.231599848,-0.0870595351,-0.295886308,0.25314647
104282.357023,-0.391807543,1.41340798,0.645830053,-0.0660676956,-0.279872447,0.18508485
104282.367051,-0.520355634,1.38414184,1.21583651,-0.0584840812,-0.254022211,0.104023024
104282.377078,-0.648756754,1.32717566,1.60891053,-0.0676924959,-0.218552366,-0.00551146362
104282.387106,-0.74668609,1.30231389,1.90839441,-0.103296295,-0.154437825,-0.13778162
104282.397134,-0.783669593,1.1907367,2.09669522,-0.114108197,-0.0658576265,-0.265602678
104282.407162,-0.597372238,0.915645503,1.91825413,-0.0698030517,0.0467583984,-0.373005033
104282.417190,-0.260054994,0.579733779,1.45726392,-0.00141147361,0.152804151,-0.43747431
104282.427218,0.0795784632,0.128363199,0.916256182,0.0517521463,0.215161532,-0.464073181
104282.437246,0.367866659,-0.393814901,0.457585363,0.0898907408,0.240234122,-0.437026918
104282.447273,0.602794263,-0.893381649,0.11047113,0.093163237,0.260658413,-0.361076206
104282.457301,0.807613437,-1.36777918,-0.0735287621,0.0738047138,0.250315785,-0.242501393
104282.467329,0.89459139,-1.73863537,-0.33053953,0.0232211687,0.226225898,-0.105555773
104282.477357,0.880863747,-2.00484272,-0.493344658,-0.0130404327,0.196436316,0.0464870222
104282.487385,0.82210768,-2.03788647,-0.678147099,-0.0213047545,0.164127901,0.178982481
104282.497413,0.505739006,-1.81074959,-0.739311469,-0.0401327722,0.137701631,0.289564133
104282.507441,0.220607183,-1.56206943,-0.596912,-0.0633163899,0.107050501,0.379048735
104282.517469,0.00733423361,-1.22173127,-0.53484922,-0.101647265,0.0671329126,0.444050908
104282.527496,-0.0641021684,-0.783642632,-0.545673396,-0.109573096,0.0109010665,0.50162816
104282.537524,-0.0103417266,-0.401828112,-0.687121848,-0.0767216757,-0.0464857966,0.542115688
104282.547552,-0.0136361422,-0.0411700686,-0.671859397,-0.0567876473,-0.0802336335,0.563450813
104282.557580,-0.0159235499,0.29366935,-0.393629315,-0.0464271531,-0.128940716,0.567791224
104282.567608,-0.0919461518,0.594727642,-0.227105459,-0.0430835523,-0.169750735,0.541458428
104282.577636,-0.189941795,0.901254574,0.0883212575,-0.0323906951,-0.171999246,0.496991366
104282.587664,-0.299901377,1.08428241,0.496371313,-0.00750904717,-0.153348058,0.441760063
104282.597691,-0.408183728,1.17732441,0.680351915,0.0317403525,-0.14306879,0.373445183
104282.607719,-0.553066063,1.23504551,0.790320357,0.0372259319,-0.125145182,0.287928939
104282.617747,-0.665649948,1.25189011,1.00325525,0.0369910412,-0.108940117,0.200715199
104282.627775,-0.597319923,1.31891475,0.984538276,0.058600463,-0.0823332742,0.112121165
104282.637803,-0.489803625,1.37963664,1.00209673,0.0675106049,-0.0269424543,0.0321216658
104282.647831,-0.31148956,1.31372873,1.08895376,0.0624633804,0.0223883446,-0.0335502885
104282.657859,-0.160759941,1.17212991,0.91536011,0.0427043214,0.0456212275,-0.0876286998
104282.667887,0.0343817145,0.99002869,0.69449793,0.029877739,0.0724693611,-0.118982099
104282.677914,0.248910025,0.751374394,0.419135513,0.0435591973,0.100673035,-0.12673457
104282.687942,0.387370255,0.467374497,0.0871083746,0.0647036284,0.121757016,-0.11958424
104282.697970,0.489886481,0.211905844,-0.245282921,0.0830717161,0.104658186,-0.101936534
104282.707998,0.572537036,0.00474646387,-0.552914453,0.0734079033,0.0554200634,-0.0772277266
104282.718026,0.621950945,-0.123099725,-0.713421826,0.0600433648,0.00630205311,-0.0472892709
104282.728054,0.651446139,-0.190989897,-0.832744371,0.0684533641,-0.0286178477,-0.0187865235
104282.738082,0.651349108,-0.119393711,-0.862391321,0.086991623,-0.0392358713,0.00136242108
104282.748110,0.595719247,0.0151416012,-0.661515698,0.0937573835,-0.0432641692,0.0149253681
104282.758137,0.503490387,0.166313721,-0.460011713,0.0821566582,-0.0594982654,0.0172886569
104282.768165,0.440076338,0.352260509,-0.333960152,0.0586478673,-0.0641747713,0.0129402475
104282.778193,0.438793093,0.546098928,-0.0695733024,0.0363865048,-0.0433105081,0.00712470245
104282.788221,0.41316232,0.705583826,0.139167063,0.015532623,-0.0184285939,-0.0107275313
104282.798249,0.35569885,0.805002524,0.20135084,-0.0254547577,-0.00410531461,-0.0426364616
104282.808277,0.305861911,0.871166164,0.139562784,-0.0261887256,-0.0116015794,-0.0828232914
104282.818305,0.272613338,0.901116627,-0.133307231,0.000526774966,-0.0116074383,-0.133324817
104282.828332,0.259885392,0.8717596,-0.232820329,0.0397090651,-0.0112921204,-0.179102167
104282.838360,0.26720841,0.763173991,-0.26447219,0.0809715465,-0.0239232276,-0.205862135
104282.848388,0.282948123,0.534779369,-0.234009831,0.0940934792,-0.0270210169,-0.207089588
104282.858416,0.339566813,0.29724604,0.0300087693,0.0982775688,-0.012760587,-0.189164385
104282.868444,0.23393757,0.182921595,0.440419124,0.0558185242,0.032595709,-0.16002275
104282.878472,0.0819612666,0.0419710098,0.833925105,0.00613725651,0.0556914397,-0.117384471
104282.888500,-0.125951717,-0.10055457,0.92418113,-0.0994533524,0.0922036469,-0.0898958519
104282.898528,-0.311148966,-0.224914671,1.14020522,-0.156642869,0.101366788,-0.0629166961
104282.908555,-0.390112138,-0.324180955,0.724826432,-0.16276069,0.101368651,-0.0504690856
104282.918582,-0.479520642,-0.299390504,0.428594246,-0.158916414,0.112325959,-0.0598684438
104282.928610,-0.55622113,-0.243191209,0.266465994,-0.114935942,0.0921365768,-0.0779076219
104282.938638,-0.660887117,-0.177310477,-0.13424948,-0.083801724,0.0702818781,-0.11596287
104282.948666,-0.668925828,-0.160684045,-0.26472295,-0.0286556464,0.0445133969,-0.146971911
104282.958694,-0.578373304,-0.184729229,-0.575383474,0.0518599674,0.01341167,-0.169558436
104282.968722,-0.442928513,-0.193377085,-0.80796415,0.129508942,-0.0225303508,-0.176920742
104282.978750,-0.29055984,-0.33128158,-0.869072406,0.180938318,-0.0549061336,-0.155847162
104282.988778,-0.201717993,-0.472069084,-0.626841274,0.184998304,-0.0641736686,-0.11751122
104282.998805,-0.165760398,-0.536648232,-0.0941577086,0.154373825,-0.0490391925,-0.0669404566
104283.008833,-0.20847881,-0.525026329,0.378104414,0.0860994309,-0.0158024076,-0.0127147688
104283.018861,-0.224862155,-0.494584283,0.660811349,0.00186923915,0.0170117319,0.0288787484
104283.028889,-0.216533138,-0.430463401,0.697777682,-0.0686190426,0.0443876944,0.0613418818
104283.038917,-0.137361904,-0.369153192,0.413930345,-0.0794240162,0.0505710244,0.0864336491
104283.048945,-0.0509552071,-0.224460497,-0.0903963102,-0.0809569359,0.0474740341,0.0976053402
104283.058973,0.0984019677,-0.108529933,-0.43939095,-0.0396582298,0.0135030169,0.106850505
104283.069001,0.185635129,-0.0174336576,-0.871909676,0.00656838669,-0.0291216746,0.112940356
104283.079028,0.133124102,0.117817401,-0.833853793,0.0246070419,-0.0571197532,0.111529417
104283.089056,0.0374941429,0.246173147,-0.51966451,0.0216131173,-0.0718696713,0.093135491
104283.099084,-0.0261482625,0.429204048,-0.261432091,0.0274393149,-0.0785371587,0.0685739592
104283.109112,0.0298652509,0.567535684,-0.157039989,0.0353100225,-0.0722201467,0.0541265793
104283.119140,0.141965617,0.574691839,0.0791173759,0.0349480957,-0.0705029368,0.0507784523
104283.129168,0.263277646,0.514766363,0.166208799,0.0396672189,-0.0913264602,0.0562094375
104283.139196,0.31613059,0.450198759,0.122003162,0.0402049124,-0.102326915,0.0609679744
104283.149223,0.232581625,0.426294737,0.362329337,0.044700861,-0.084309034,0.0599466525
104283.159251,0.109266458,0.449462846,0.631494069,0.0251418054,-0.0701740384,0.0357371867
104283.169279,-0.0747284887,0.512937978,0.889156578,-0.0108337728,-0.0475491509,-0.00553994719
104283.179307,-0.158625066,0.56893123,1.0424644,-0.034122318,-0.0127387075,-0.0539186634
104283.189335,-0.0959794259,0.548109537,1.03015729,-0.0286026485,0.0267983153,-0.0926769823
104283.199363,0.0605195744,0.485099831,0.855316853,-0.0158240031,0.0715681836,-0.122703053
104283.209391,0.232557696,0.424038336,0.640713733,0.00586850801,0.106567711,-0.137293711
104283.219419,0.376539357,0.307829832,0.304989494,0.0297014043,0.117456846,-0.138645262
104283.229447,0.431353774,0.173085699,0.00879997705,0.0576454215,0.128639996,-0.123932101
104283.239474,0.442756919,0.0452443323,-0.0730845254,0.0698086098,0.138548285,-0.0944583714
104283.249502,0.367060713,-0.0548529954,-0.102556119,0.0417213142,0.127870068,-0.0708265454
104283.259530,0.255993042,-0.104536333,-0.246810861,0.0378546715,0.0893660858,-0.0423275232
104283.269558,0.131582426,-0.0909998291,-0.406743064,0.0657518134,0.0667593107,-0.00916344393
104283.279586,-0.0301093071,-0.0750242613,-0.165413265,0.0797675028,0.0701817423,0.0211896673
104283.289614,-0.18126296,-0.107844435,0.133350486,0.0485267565,0.0656194836,0.0457099266
104283.299642,-0.287094849,-0.0795918615,0.234480956,-0.0115120802,0.0450662673,0.0546437651
104283.309670,-0.331243148,0.0674839289,0.125790864,-0.0291392766,0.0265178848,0.043318674
104283.319697,-0.325315512,0.229145148,-0.149358202,-0.00337878615,0.0308939908,0.0214605108
104283.329725,-0.316591486,0.365846698,-0.184632929,0.0290372111,0.0283389539,-0.0103546763
104283.339753,-0.250829814,0.497552924,-0.216633165,0.039071735,-0.00032944174,-0.0538962968
104283.349781,-0.2251982,0.632508506,-0.305952201,0.0520370677,-0.0292473771,-0.0954890102
104283.359809,-0.158415789,0.676818919,-0.346949982,0.0789134279,-0.0281679966,-0.126570493
104283.369837,-0.103973557,0.639911184,-0.228290285,0.09766341,-0.0151043925,-0.146591336
104283.379865,-0.0507184849,0.589880056,-0.0621130496,0.0710286051,-0.0254315995,-0.16674614
104283.389893,0.0192690016,0.50528834,-0.0723304922,0.0473741405,-0.0690107718,-0.17458196
104283.399920,0.164375264,0.40416693,-0.222866506,0.0352953747,-0.0967388004,-0.176735923
104283.409948,0.226872052,0.316908187,-0.245354232,0.0709556341,-0.121486761,-0.174396336
104283.419976,0.15170861,0.271406081,-0.35625557,0.0918795541,-0.14446637,-0.178228363
104283.430004,0.0538274152,0.205029967,-0.202024209,0.0781467035,-0.165873662,-0.188083649
104283.440032,-0.0671479156,0.123567197,0.0375368267,0.0695204586,-0.164307997,-0.204490587
104283.450060,-0.144635448,0.145415018,0.278949628,0.0492801666,-0.124183476,-0.229602873
104283.460088,-0.16476819,0.142913556,0.659825845,0.0300462823,-0.0696941316,-0.244585559
104283.470116,0.00327548657,0.0239702198,0.68726564,-0.00162083353,-0.0271890201,-0.247713968
104283.480144,0.20065082,-0.122696844,0.587658434,-0.0388062857,-0.00103944039,-0.241333291
104283.490171,0.41620461,-0.307026698,0.412257444,-0.0579426959,0.0219478998,-0.213109642
104283.500199,0.654149845,-0.485897995,0.127910341,-0.055204168,0.0348421261,-0.172955573
104283.510227,0.79789313,-0.639855362,-0.188567931,-0.0332725011,0.043718975,-0.121160828
104283.520255,0.8446315,-0.768620566,-0.43319794,-0.0251027234,0.0420563631,-0.0668533742
104283.530283,0.811087031,-0.824226279,-0.537500026,-0.00963455159,0.0309571084,-0.0181572065
104283.540311,0.712801137,-0.875171308,-0.608722265,0.00970505737,0.0250675268,0.0332497917
104283.550339,0.587707059,-0.911902663,-0.498517677,0.0144550717,0.0187963154,0.0960319489
104283.560367,0.45275502,-0.936714302,-0.248607097,-0.00472954148,0.00878602546,0.166299999
104283.570394,0.34888632,-0.862177386,0.102727969,-0.0651649237,-0.000361399609,0.231509089
104283.580422,0.262751686,-0.734350924,0.390615521,-0.12265911,-0.0124585424,0.285614908
104283.590450,0.142435463,-0.49612859,0.463919242,-0.136297688,-0.018368097,0.318483114
104283.600478,0.0414074804,-0.176881438,0.401343251,-0.126379013,-0.0169481002,0.324522644
104283.610506,-0.052493518,0.115313309,0.399835769,-0.10186062,-0.0258087032,0.309415847
104283.620534,-0.105957078,0.326936099,0.346114116,-0.0825780034,-0.0422031209,0.26617676
104283.630562,-0.194211946,0.571332738,0.388913393,-0.0591640212,-0.0556685962,0.201525629
104283.640590,-0.24561186,0.746014036,0.395452439,-0.00661958707,-0.0606993102,0.129235178
104283.650618,-0.299142722,0.907615926,0.433988214,0.0356181487,-0.0427080579,0.0460356288
104283.660645,-0.31696916,0.990593192,0.581345013,0.0756435916,-0.0161648635,-0.0230438374
104283.670673,-0.271541434,0.93617362,0.58059098,0.082660757,0.0132561419,-0.0767302364
104283.680701,-0.107268736,0.767614019,0.599942746,0.0574089326,0.0467049107,-0.095605664
104283.690729,0.198551437,0.50837067,0.490740029,0.051797118,0.0788671076,-0.0809412301
104283.700757,0.437905095,0.342508346,0.275866859,0.0398997143,0.116370812,-0.0489878207
104283.710785,0.499287748,0.211977302,0.137622172,0.0296713095,0.140058026,0.000412750989
104283.720813,0.478552784,0.0585977349,-0.033832127,-0.00275054644,0.137553066,0.0486958623
104283.730841,0.337834144,-0.0439336881,-0.168984109,-0.0442045107,0.115196623,0.0960308835
104283.740868,0.223668854,-0.0569740792,-0.339638782,-0.0584739968,0.0818650275,0.133729532
104283.750896,0.148427625,-0.017090251,-0.497160417,-0.0552137531,0.0606313795,0.167371109
104283.760924,0.121833962,0.0432061045,-0.535676318,-0.0526680388,0.0295672044,0.186081156
104283.770952,0.0359190185,0.212215348,-0.565713729,-0.0566995293,0.00177605345,0.187182367
104283.780980,-0.00523545297,0.376264631,-0.449372245,-0.0418984815,-0.0275863633,0.16702038
104283.791008,-0.0831517642,0.576238484,-0.401298827,-0.00614075083,-0.0335198864,0.130944401
104283.801036,-0.128748006,0.738085142,-0.26792613,0.0284111015,-0.0383969322,0.0805403367
104283.811064,-0.177308066,0.89720033,-0.0394616573,0.034793634,-0.0398214571,0.0206823349
104283.821092,-0.169103699,0.940490314,0.00656184273,0.0628716052,-0.0651230887,-0.0304642059
104283.831119,-0.112296336,0.92033293,-0.0180231479,0.0307576135,-0.0556033514,-0.0767294392
104283.841147,0.0178007865,0.82654537,0.237341606,0.0374480076,-0.044635389,-0.108091094
104283.851175,0.116026636,0.772094526,0.147040573,0.0434300005,-0.0299552456,-0.143326044
104283.861203,0.156150018,0.692224286,0.145417356,0.0475379266,-0.0316426232,-0.161974549
104283.871231,0.211187393,0.487456477,0.095450671,0.0399593674,-0.031032227,-0.169319823
104283.881259,0.229787008,0.317873233,0.107031219,0.0424531512,-0.0406094864,-0.171240494
104283.891287,0.201356886,0.248142109,0.0578244125,0.0429546237,-0.0379463248,-0.177005708
104283.901315,0.203228361,0.233531985,0.169596104,0.0301687885,-0.0212810636,-0.197598591
104283.911343,0.168470406,0.221955529,0.250285843,0.0387947671,-0.0118545378,-0.214821264
104283.921371,0.207023186,0.153045366,0.150963884,0.0303866342,0.00693140086,-0.227939457
104283.931399,0.312780038,0.0679860333,0.164189276,0.0360668041,0.0124362092,-0.222957492
104283.941427,0.388723094,-0.0527411178,0.0361111778,0.03020785,0.0116606969,-0.203344375
104283.951455,0.441027173,-0.153400463,0.015702596,0.0109356176,0.014762748,-0.171436518
104283.961483,0.539978472,-0.268931069,-0.0573357522,0.0162305161,0.0149885844,-0.12926057
104283.971511,0.556198516,-0.331061946,-0.265105811,0.0258706249,0.0273704194,-0.0878595859
104283.981539,0.530006346,-0.371962112,-0.260592133,0.0228386149,0.0326594561,-0.0364736319
104283.991567,0.452388086,-0.39268882,-0.167477796,0.0039605326,0.0270441808,0.012433989
104284.001595,0.323773689,-0.353875689,0.0452507621,-0.0291223191,0.0386196077,0.0545912944
104284.011622,0.145416114,-0.290525792,0.351400532,-0.0617716089,0.0537229292,0.0866243243
104284.021650,-0.0527180292,-0.245894915,0.533143585,-0.0879462212,0.0788261518,0.109701678
104284.031678,-0.218173563,-0.208829651,0.633591333,-0.0989655778,0.093655698,0.111611441
104284.041706,-0.402492786,-0.0789268217,0.500088287,-0.113398314,0.0769195929,0.0881945342
104284.051734,-0.552765144,0.105095721,0.209898888,-0.0940299407,0.0347945094,0.0427921601
104284.061762,-0.586011763,0.181244602,-0.0537228224,-0.0360212401,0.0218491536,-0.00629336014
104284.071790,-0.524400635,0.197645409,-0.106152682,0.0402141437,0.0171832945,-0.0500538908
104284.081818,-0.475848238,0.18218086,-0.152720372,0.0838748068,-0.00693322672,-0.0910905451
104284.091846,-0.339539815,0.138494132,-0.133085697,0.0914581567,-0.0336945355,-0.11472024
104284.101873,-0.202869683,0.0683057667,-0.0999807157,0.0884959251,-0.0326396562,-0.115410253
104284.111901,-0.0343485886,-0.0611363135,0.0302209507,0.0876503736,-0.00197841553,-0.0888886303
104284.121929,0.0637464412,-0.142099902,0.167366737,0.0535842776,0.0241629072,-0.0561725013
104284.131957,0.0805153878,-0.197798846,0.17608605,-0.00427715713,0.0194235463,-0.0203332789
104284.141985,0.121429326,-0.233080149,-0.076103581,-0.0402569957,0.0232800692,0.0232376345
104284.152013,0.197027186,-0.298082198,-0.164518947,-0.0297588147,0.0427312627,0.0773940831
104284.162041,0.218264017,-0.287747413,-0.251163211,-0.00952012278,0.0287201088,0.134126335
104284.172069,0.191196562,-0.190771578,-0.436186016,-0.0174440928,-0.0354367755,0.17624636
104284.182097,0.0867984867,-0.0904069778,-0.501301755,-0.0265662186,-0.11587622,0.210257843
104284.192124,-0.033258268,0.0113585755,-0.28438685,-0.023469761,-0.146302566,0.232386053
104284.202152,-0.167548889,0.160563487,0.135055536,-0.00441857101,-0.155117095,0.234073162
104284.212180,-0.403857754,0.329636297,0.437121251,-0.00338366674,-0.170696586,0.205343783
104284.222208,-0.587303885,0.490985382,0.795959239,-0.0300749317,-0.188556284,0.155021757
104284.232236,-0.678537559,0.63053896,1.11590373,-0.04151747,-0.177175,0.0817291737
104284.242264,-0.657983359,0.770777159,1.26868313,-0.0179636739,-0.14473103,-0.00609495491
104284.252292,-0.525403163,0.907598244,1.21711895,0.00369608076,-0.107355438,-0.0964232534
104284.262320,-0.261985195,0.91913393,1.03511111,0.0162851103,-0.0748952329,-0.176365763
104284.272348,0.0963946739,0.793941031,0.694865009,0.050585825,-0.0485163592,-0.23242344
104284.282375,0.520734879,0.51209349,0.220091781,0.0872469023,-0.00881634839,-0.255041927
104284.292403,0.899241627,0.175843181,-0.0240302794,0.113520853,0.028680427,-0.251759827
104284.302431,1.06674536,-0.023883126,-0.262843127,0.134649843,0.0565743744,-0.218119338
104284.312459,1.13712319,-0.227164496,-0.392475469,0.135847196,0.0847104043,-0.161902666
